t,imu_roll,imu_pitch,imu_yaw,lpf_roll,lpf_pitch,lpf_yaw,gyro_x,gyro_y,gyro_z,acc_x,acc_y,acc_z
1790548204.9674,-0.027084,-0.059177,-0.005766,-0.018959,-0.041424,-0.005766,0.027040,0.013628,-0.000149,0.032335,1.311511,-9.870749
1790548204.9826,-0.040019,-0.056425,-0.004641,-0.033701,-0.051925,-0.004641,-0.026383,-0.011869,-0.003792,0.300631,1.348691,-9.793126
1790548204.9964,-0.033069,-0.061202,-0.004594,-0.033259,-0.058418,-0.004594,-0.022740,-0.009441,-0.008648,-0.044320,1.199971,-10.025993
1790548205.0101,-0.039871,-0.058952,-0.004751,-0.037887,-0.058792,-0.004751,-0.006956,-0.008227,-0.002578,0.377287,1.385871,-9.948371
1790548205.0242,-0.038494,-0.061519,-0.004177,-0.038312,-0.060701,-0.004177,-0.003314,-0.016726,-0.005006,0.108991,1.237151,-10.375294
1790548205.0382,-0.041697,-0.057419,-0.005244,-0.040681,-0.058404,-0.005244,-0.047023,-0.033724,-0.013505,0.377287,1.534591,-10.103616
1790548205.0524,-0.042462,-0.055292,-0.005747,-0.041928,-0.056226,-0.005747,-0.110159,-0.017940,-0.031717,0.262303,1.423051,-10.181238
1790548205.0668,-0.044696,-0.052211,-0.005869,-0.043865,-0.053415,-0.005869,-0.187864,-0.009441,-0.025646,0.377287,1.385871,-9.754315
1790548205.0808,-0.044132,-0.049979,-0.004858,-0.044052,-0.051010,-0.004858,-0.241286,-0.020368,0.020491,0.185647,1.348691,-10.181238
1790548205.0948,-0.046662,-0.050117,-0.000379,-0.045879,-0.050385,-0.000379,-0.204862,-0.051936,0.160117,0.492271,1.125611,-9.831937
1790548205.1089,-0.050479,-0.051202,0.006560,-0.049099,-0.050957,0.006560,-0.168437,-0.071362,0.327669,0.683911,1.051251,-9.870749
1790548205.1229,-0.058523,-0.054298,0.015364,-0.055696,-0.053296,0.015364,-0.083447,0.086476,0.492792,0.990535,0.902531,-9.831937
1790548205.1372,-0.059482,-0.047509,0.014086,-0.058346,-0.049245,0.014086,-0.108944,0.098617,0.575354,0.147319,1.794851,-8.473546
1790548205.1513,-0.039254,-0.047011,0.031771,-0.044982,-0.047681,0.031771,-0.212146,-0.186706,0.441798,-2.152360,1.051251,-9.249770
1790548205.1651,-0.043491,-0.050792,0.031087,-0.043938,-0.049859,0.031087,-0.091946,0.051266,0.324027,0.645583,0.753811,-10.724595
1790548205.1792,-0.045190,-0.055853,0.033574,-0.044814,-0.054055,0.033574,0.098674,0.025769,0.307029,0.377287,0.939711,-11.539630
1790548205.1931,-0.046653,-0.056221,0.037698,-0.046101,-0.055571,0.037698,0.035539,0.000272,0.392019,0.338959,1.348691,-9.676693
1790548205.2072,-0.042345,-0.059085,0.048415,-0.043472,-0.058031,0.048415,0.073177,-0.123571,0.347095,-0.350944,1.014071,-9.870749
1790548205.2208,-0.039594,-0.060443,0.054360,-0.040757,-0.059719,0.054360,-0.032453,-0.135712,0.282746,-0.082648,0.902531,-9.055714
1790548205.2345,-0.037439,-0.060099,0.060878,-0.038434,-0.059985,0.060878,-0.065235,-0.065292,0.223253,-0.159304,1.125611,-9.249770
1790548205.2485,-0.033547,-0.058188,0.068743,-0.035013,-0.058727,0.068743,-0.094375,-0.159995,0.166188,-0.274288,1.385871,-9.521448
1790548205.2625,-0.032485,-0.052419,0.072110,-0.033243,-0.054312,0.072110,-0.252213,-0.161209,0.139477,0.262303,1.720491,-9.172147
1790548205.2763,-0.031430,-0.049948,0.067508,-0.031974,-0.051257,0.067508,-0.265569,-0.278981,0.095768,0.645583,1.162791,-10.064805
1790548205.2904,-0.030488,-0.048842,0.060332,-0.030934,-0.049567,0.060332,-0.223074,-0.276552,-0.000149,0.683911,0.902531,-9.405014
1790548205.3046,-0.026390,-0.046543,0.055964,-0.027753,-0.047450,0.055964,-0.295922,-0.291122,-0.247834,0.147319,1.014071,-10.220049
1790548205.3188,-0.035368,-0.055397,0.031676,-0.033084,-0.053013,0.031676,0.133884,0.272240,-0.482164,2.561982,-0.659029,-15.964105
1790548205.3328,-0.023725,-0.042706,0.028957,-0.026533,-0.045798,0.028957,-0.203647,-0.501169,-0.737134,-0.887536,4.137191,-9.715504
1790548205.3468,-0.020197,-0.036484,0.008392,-0.022097,-0.039278,0.008392,-0.361486,-0.354258,-0.989675,0.875551,1.832031,-9.754315
1790548205.3608,-0.027367,-0.037613,-0.012854,-0.025786,-0.038113,-0.012854,0.045252,0.396082,-1.091663,1.028863,1.237151,-8.822846
1790548205.3749,-0.007192,-0.021864,-0.001489,-0.012770,-0.026739,-0.001489,-0.366342,-0.333617,-0.998174,-2.803935,3.133331,-5.717951
1790548205.3891,-0.019037,-0.017439,-0.010274,-0.017157,-0.020229,-0.010274,-0.210932,0.677763,-0.888901,1.297159,2.203831,-9.793126
1790548205.4031,-0.020250,-0.018261,-0.029088,-0.019322,-0.018851,-0.029088,-0.105302,0.398511,-1.197293,-0.580912,1.348691,-12.859210
1790548205.4171,-0.022513,-0.016557,-0.047571,-0.021555,-0.017246,-0.047571,-0.192720,0.286810,-1.352704,0.453943,1.348691,-9.249770
1790548205.4309,-0.026400,-0.015684,-0.065904,-0.024946,-0.016153,-0.065904,-0.301993,0.478644,-1.333277,0.185647,0.567911,-8.357112
1790548205.4446,-0.023084,-0.015503,-0.080267,-0.023643,-0.015698,-0.080267,-0.276496,0.138684,-1.230075,-0.619240,0.456371,-8.357112
1790548205.4582,-0.022005,-0.014209,-0.096628,-0.022496,-0.014656,-0.096628,-0.225502,0.198177,-1.241003,-0.274288,1.162791,-9.987182
1790548205.4723,-0.018235,-0.013954,-0.111345,-0.019513,-0.014164,-0.111345,-0.170866,0.013628,-1.160869,-0.465928,1.125611,-10.841028
1790548205.4863,-0.015994,-0.011516,-0.125091,-0.017050,-0.012310,-0.125091,-0.244928,-0.000942,-0.928968,-0.044320,1.460231,-9.909560
1790548205.5003,-0.009800,-0.012556,-0.131634,-0.011975,-0.012483,-0.131634,-0.021526,-0.283837,-0.625433,-0.465928,1.534591,-11.578441
1790548205.5143,-0.003122,-0.020141,-0.152299,-0.005778,-0.017843,-0.152299,0.541836,-0.833844,-0.178628,2.140375,2.055111,-12.005364
1790548205.5282,-0.013709,-0.022257,-0.175828,-0.011329,-0.020933,-0.175828,0.795591,0.084048,0.376235,3.136902,4.657711,-7.969000
1790548205.5422,-0.020987,-0.019465,-0.178284,-0.018090,-0.019905,-0.178284,0.014898,0.485929,0.537716,-0.427600,4.100011,-13.907112
1790548205.5566,-0.022205,-0.015056,-0.168235,-0.020971,-0.016510,-0.168235,-0.209718,-0.092003,0.982092,0.032335,2.947431,-12.626343
1790548205.5714,-0.015426,-0.009433,-0.152097,-0.017089,-0.011556,-0.152097,-0.121086,-0.286266,1.179997,-1.079176,1.460231,-4.087881
1790548205.5859,-0.018992,-0.001175,-0.117007,-0.018421,-0.004289,-0.117007,-0.374841,-0.299621,1.212779,0.913879,1.460231,-4.592427
1790548205.6001,-0.017691,0.006219,-0.094666,-0.017910,0.003067,-0.094666,-0.301993,-0.536379,1.281985,0.645583,1.869211,-5.523895
1790548205.6140,-0.022554,0.006726,-0.049506,-0.021161,0.005628,-0.049506,-0.207290,-0.152710,1.339049,1.872079,1.311511,-13.441378
1790548205.6280,-0.017041,0.007694,-0.020688,-0.018277,0.007074,-0.020688,-0.316563,-0.431963,1.314767,-1.654096,0.456371,-10.763406
1790548205.6419,-0.012063,0.008794,0.006371,-0.013927,0.008278,0.006371,-0.315349,-0.427106,1.215207,-1.309144,0.456371,-10.258860
1790548205.6559,-0.003088,0.012135,0.028498,-0.006340,0.010978,0.028498,-0.485328,-0.594658,0.963879,-1.654096,0.270471,-8.861658
1790548205.6699,0.002877,0.018524,0.043627,0.000112,0.016260,0.043627,-0.648023,-0.502383,0.665201,-0.695896,0.679451,-9.521448
1790548205.6836,0.011127,0.026096,0.055649,0.007823,0.023145,0.055649,-0.764581,-0.657793,0.486722,-0.657568,0.567911,-8.706413
1790548205.6972,0.012502,0.031117,0.056661,0.011098,0.028725,0.056661,-0.561819,-0.224344,0.249964,0.070663,1.088431,-12.626343
1790548205.7112,0.012264,0.028458,0.064697,0.011914,0.028538,0.064697,0.115672,0.120472,0.050845,-1.500784,2.241011,-13.286133
1790548205.7251,0.013378,0.033698,0.063980,0.012939,0.032150,0.063980,-0.110159,0.247957,-0.331610,-2.612295,5.029511,-11.073895
1790548205.7390,0.013497,0.038512,0.054791,0.013330,0.036603,0.054791,-0.006956,0.382727,-0.516160,-2.535639,5.215411,-9.637881
1790548205.7529,0.011907,0.044847,0.039559,0.012334,0.042374,0.039559,0.028254,0.439791,-0.568368,-1.654096,5.698751,-8.007811
1790548205.7669,0.011167,0.050308,0.026521,0.011517,0.047928,0.026521,0.042823,0.433721,-0.620576,-1.884064,5.252591,-7.774944
1790548205.7808,0.013640,0.049991,0.004913,0.013003,0.049372,0.004913,0.274725,0.298951,-0.667927,-2.458983,4.025651,-8.085434
1790548205.7949,0.011694,0.045671,0.003880,0.012087,0.046781,0.003880,0.580688,0.467717,-0.729849,-1.232488,3.653851,-7.231588
1790548205.8089,0.009803,0.039492,0.003274,0.010488,0.041679,0.003274,0.635325,0.399725,-0.860976,-0.964192,4.508991,-10.724595
1790548205.8233,0.012590,0.039748,0.017220,0.011960,0.040327,0.017220,0.039181,-0.153924,-1.073451,1.795423,4.732071,-15.575993
1790548205.8370,0.011938,0.045329,0.018487,0.011945,0.043829,0.018487,-0.451332,0.137470,-1.336920,1.987063,3.579491,-15.071448
1790548205.8500,0.008368,0.051813,0.010148,0.009441,0.049418,0.010148,-0.616456,0.410652,-1.298067,1.182175,2.166651,-11.462007
1790548205.8631,-0.004111,0.058154,0.003482,-0.000045,0.055533,0.003482,-0.559391,1.071145,-1.054025,0.760567,1.497411,-6.765853
1790548205.8765,-0.024254,0.065505,-0.004661,-0.016991,0.062514,-0.004661,-0.598244,1.606582,-0.876760,0.837223,1.460231,-6.377742
1790548205.8904,-0.035452,0.072195,-0.026873,-0.029914,0.069290,-0.026873,-0.663807,0.976442,-0.676426,0.453943,1.014071,-9.327392
1790548205.9040,-0.040958,0.077722,-0.040176,-0.037645,0.075192,-0.040176,-0.538751,0.513854,-0.585366,0.952207,2.017931,-13.441378
1790548205.9177,-0.042860,0.086236,-0.045593,-0.041295,0.082923,-0.045593,-0.652880,0.210319,-0.589008,1.182175,2.873071,-11.617252
1790548205.9316,-0.046221,0.091606,-0.050050,-0.044743,0.089001,-0.050050,-0.439191,0.201820,-0.439669,1.757095,2.315371,-10.064805
1790548205.9456,-0.041450,0.093328,-0.052469,-0.042438,0.092030,-0.052469,-0.022740,-0.327546,-0.228408,0.530599,3.876931,-9.987182
1790548205.9596,-0.038733,0.090057,-0.056896,-0.039845,0.090649,-0.056896,0.356072,-0.541235,0.061772,2.830278,3.579491,-8.551168
1790548205.9736,-0.044889,0.080862,-0.078734,-0.043376,0.083798,-0.078734,0.963143,0.178751,0.139477,1.948735,4.174371,-6.727042
1790548205.9875,-0.042762,0.070308,-0.083648,-0.042946,0.074355,-0.083648,1.011709,-0.395538,0.348309,1.373815,4.323091,-7.969000
1790548206.0015,-0.041748,0.054851,-0.091416,-0.042108,0.060702,-0.091416,1.419661,-0.345759,0.384734,1.565455,4.397451,-7.231588
1790548206.0154,-0.039200,0.037470,-0.086020,-0.040073,0.044440,-0.086020,1.535004,-0.543664,0.610564,1.833751,4.248731,-7.464455
1790548206.0294,-0.030025,0.020229,-0.105112,-0.033039,0.027492,-0.105112,1.618780,-0.861769,0.702839,0.683911,5.103871,-7.930189
1790548206.0432,-0.035099,0.014946,-0.095108,-0.034481,0.018710,-0.095108,0.403424,0.188464,0.855821,0.338959,4.211551,-17.865854
1790548206.0574,-0.034428,0.016663,-0.109670,-0.034444,0.017277,-0.109670,-0.105302,-0.072577,1.071938,-2.803935,4.211551,-18.603266
1790548206.0719,-0.022153,0.016858,-0.109903,-0.025841,0.016983,-0.109903,-0.066449,-0.943116,1.156928,-1.155832,1.237151,-7.930189
1790548206.0859,-0.025377,0.009814,-0.013876,-0.025516,0.011965,-0.013876,0.103531,-0.260769,0.986948,1.565455,-1.216729,-7.386832
1790548206.0999,-0.008360,0.006420,-0.046410,-0.013507,0.008083,-0.046410,0.099888,-0.980755,0.673700,-3.033903,0.196111,-7.852567
1790548206.1138,-0.004137,0.005586,-0.037037,-0.006948,0.006335,-0.037037,-0.212146,-0.253484,0.326455,-1.385800,-0.807749,-9.793126
1790548206.1278,0.002139,0.007943,-0.045565,-0.000587,0.007461,-0.045565,-0.394268,-0.213417,-0.066927,-2.803935,-0.435949,-11.073895
1790548206.1415,0.006734,0.005649,-0.039944,0.004537,0.006193,-0.039944,-0.150225,-0.224344,-0.165273,-1.270816,-1.328269,-10.996273
1790548206.1550,0.008274,0.003748,-0.036520,0.007153,0.004482,-0.036520,-0.138084,-0.049508,-0.312184,-0.312616,-0.621849,-8.512357
1790548206.1690,0.009070,0.001007,-0.037638,0.008495,0.002049,-0.037638,0.000328,0.002700,-0.449382,-0.044320,0.047391,-9.133336
1790548206.1830,0.009876,-0.001437,-0.043071,0.009462,-0.000391,-0.043071,-0.020312,0.057337,-0.678855,-0.197632,0.121751,-11.850119
1790548206.1969,0.004086,-0.005500,-0.054187,0.005699,-0.003968,-0.054187,0.207947,0.629198,-0.750489,-1.270816,1.720491,-13.790679
1790548206.2107,0.004619,-0.005467,-0.070777,0.004943,-0.005017,-0.070777,0.181236,0.329304,-0.710422,-3.033903,4.323091,-10.025993
1790548206.2247,0.001864,-0.006198,-0.083828,0.002788,-0.005843,-0.083828,0.190949,0.460432,-0.699495,-1.462456,3.170511,-8.551168
1790548206.2386,0.001471,-0.008174,-0.095103,0.001866,-0.007475,-0.095103,0.379141,0.302593,-0.705566,-1.539112,3.876931,-7.774944
1790548206.2525,0.004485,-0.008202,-0.102191,0.003699,-0.007984,-0.102191,0.346359,0.050052,-0.789342,-1.462456,4.992331,-7.464455
1790548206.2663,0.007494,-0.008462,-0.114552,0.006355,-0.008319,-0.114552,0.062250,-0.022797,-0.960536,-0.772552,3.579491,-13.557812
1790548206.2803,0.010547,-0.004530,-0.127486,0.009290,-0.005667,-0.127486,-0.355415,-0.051936,-1.335706,0.683911,2.166651,-14.178791
1790548206.2942,0.012297,0.002263,-0.138532,0.011395,-0.000116,-0.138532,-0.572747,0.017270,-1.358774,0.913879,1.571771,-10.452916
1790548206.3081,0.006300,0.013066,-0.148200,0.007829,0.009111,-0.148200,-0.649238,0.601272,-1.162083,0.262303,2.278191,-5.485084
1790548206.3224,-0.007464,0.017804,-0.165043,-0.002876,0.015196,-0.165043,-0.454975,1.156135,-1.052811,0.300631,0.902531,-9.133336
1790548206.3364,-0.016994,0.022968,-0.181863,-0.012759,0.020637,-0.181863,-0.529038,0.874454,-1.056453,0.530599,0.530731,-10.375294
1790548206.3504,-0.027522,0.031264,-0.195198,-0.023093,0.028076,-0.195198,-0.759725,0.869598,-1.027314,1.565455,0.344831,-10.608161
1790548206.3639,-0.033452,0.036215,-0.211349,-0.030344,0.033773,-0.211349,-0.603100,0.590345,-0.888901,0.875551,-0.510309,-11.073895
1790548206.3776,-0.031242,0.040915,-0.221912,-0.030973,0.038773,-0.221912,-0.520539,-0.025225,-0.676426,0.300631,0.270471,-10.841028
1790548206.3916,-0.027714,0.042089,-0.228673,-0.028692,0.041094,-0.228673,-0.153868,-0.180635,-0.590222,0.837223,1.683311,-11.267951
1790548206.4055,-0.023597,0.038233,-0.231255,-0.025126,0.039091,-0.231255,0.322076,-0.368827,-0.263618,1.412143,2.724351,-9.443825
1790548206.4195,-0.021767,0.034005,-0.233901,-0.022774,0.035531,-0.233901,0.441062,-0.297193,-0.002578,1.757095,3.542311,-8.628791
1790548206.4335,-0.019596,0.026635,-0.234237,-0.020549,0.029303,-0.234237,0.699674,-0.351829,0.258463,1.603783,4.248731,-9.482637
1790548206.4475,-0.017075,0.016935,-0.233289,-0.018117,0.020645,-0.233289,0.924291,-0.455031,0.440584,1.987063,4.508991,-8.589979
1790548206.4613,-0.014589,0.006265,-0.232358,-0.015647,0.010579,-0.232358,1.044491,-0.453817,0.586281,1.488799,4.248731,-7.464455
1790548206.4753,-0.012074,-0.008056,-0.227226,-0.013146,-0.002465,-0.227226,1.225398,-0.411322,0.775687,0.952207,4.323091,-9.754315
1790548206.4895,-0.021640,-0.009567,-0.220024,-0.019092,-0.007437,-0.220024,0.170308,0.515068,0.965094,-0.120976,4.248731,-16.662707
1790548206.5031,-0.013988,-0.007740,-0.216130,-0.015519,-0.007649,-0.216130,-0.179365,-0.584945,1.215207,-4.643678,2.129471,-18.137532
1790548206.5170,-0.012388,-0.008424,-0.172763,-0.013327,-0.008192,-0.172763,-0.129585,-0.459888,1.441037,0.530599,-0.361589,-8.007811
1790548206.5312,-0.004473,-0.008246,-0.146313,-0.007130,-0.008230,-0.146313,-0.309278,-0.550949,1.283199,-1.462456,-0.993649,-4.049070
1790548206.5452,-0.008342,-0.002404,-0.123081,-0.007978,-0.004152,-0.123081,-0.444048,-0.064078,1.034300,1.297159,1.051251,-7.697322
1790548206.5594,-0.007964,-0.000060,-0.107838,-0.007968,-0.001288,-0.107838,-0.281353,-0.136926,0.517075,-0.044320,0.382011,-10.569350
1790548206.5739,-0.002569,0.000218,-0.096451,-0.004189,-0.000234,-0.096451,-0.170866,-0.373684,0.303386,-1.309144,-0.138509,-12.509909
1790548206.5881,-0.001137,0.003722,-0.089158,-0.002053,0.002535,-0.089158,-0.395482,-0.081076,0.104267,-0.887536,0.047391,-11.927742
1790548206.6034,0.007879,0.006218,-0.085955,0.004900,0.005113,-0.085955,-0.333561,-0.468387,-0.150703,-1.654096,-0.398769,-9.948371
1790548206.6177,0.016125,0.008869,-0.087190,0.012757,0.007742,-0.087190,-0.362700,-0.416179,-0.417814,-1.232488,-0.138509,-8.279490
1790548206.6322,0.021317,0.012328,-0.095630,0.018749,0.010952,-0.095630,-0.396696,-0.327546,-0.536800,0.377287,0.158931,-7.813756
1790548206.6470,0.018151,0.010063,-0.104326,0.018331,0.010330,-0.104326,-0.008171,0.375442,-0.727420,-0.542584,0.344831,-11.345574
1790548206.6624,0.016510,0.010007,-0.124462,0.017056,0.010104,-0.124462,0.133884,0.407010,-0.765059,-2.842263,4.917971,-10.530539
1790548206.6770,0.016640,0.014854,-0.151926,0.016765,0.013429,-0.151926,-0.079805,0.296523,-0.734705,-2.343999,5.364131,-7.813756
1790548206.6910,0.012578,0.014391,-0.169364,0.013834,0.014102,-0.169364,0.203090,0.613414,-0.824552,-2.075704,4.248731,-8.201867
1790548206.7052,0.005620,0.012913,-0.186985,0.008084,0.013270,-0.186985,0.365785,0.782179,-0.817267,-1.347472,4.434631,-6.494175
1790548206.7192,0.002469,0.010296,-0.202042,0.004153,0.011188,-0.202042,0.399781,0.483501,-1.024885,-0.695896,4.137191,-7.153965
1790548206.7333,0.011300,0.008262,-0.210737,0.009156,0.009140,-0.210737,0.234658,-0.469601,-0.874332,-0.389272,4.471811,-12.393476
1790548206.7471,0.010279,0.010584,-0.218894,0.009942,0.010150,-0.218894,-0.150225,0.193321,-1.203364,1.795423,4.062831,-14.178791
1790548206.7611,0.013243,0.012770,-0.233908,0.012252,0.011984,-0.233908,-0.242500,0.002700,-1.270142,0.185647,1.906391,-12.626343
1790548206.7751,0.008444,0.018016,-0.244119,0.009587,0.016207,-0.244119,-0.333561,0.454361,-1.270142,1.105519,2.055111,-6.067252
1790548206.7891,-0.005459,0.023047,-0.254526,-0.000945,0.020995,-0.254526,-0.422193,1.126996,-1.030956,0.798895,1.125611,-6.377742
1790548206.8031,-0.017204,0.027074,-0.265820,-0.012326,0.025250,-0.265820,-0.447690,0.983727,-0.825766,0.607255,0.196111,-9.210958
1790548206.8174,-0.023056,0.032750,-0.278451,-0.019837,0.030500,-0.278451,-0.508397,0.601272,-0.851263,0.147319,0.865351,-11.112707
1790548206.8312,-0.027239,0.037040,-0.287742,-0.025018,0.035078,-0.287742,-0.465902,0.410652,-0.737134,1.105519,0.233291,-11.850119
1790548206.8449,-0.023347,0.039223,-0.292657,-0.023848,0.037979,-0.292657,-0.305635,-0.208560,-0.522230,0.568927,0.419191,-11.500819
1790548206.8589,-0.019805,0.041066,-0.298307,-0.021018,0.040140,-0.298307,-0.111373,-0.204918,-0.442097,0.607255,2.575631,-9.676693
1790548206.8728,-0.015507,0.038042,-0.300814,-0.017161,0.038672,-0.300814,0.246799,-0.428320,-0.143418,1.527127,2.203831,-8.007811
1790548206.8866,-0.013555,0.031973,-0.303875,-0.014637,0.033982,-0.303875,0.535765,-0.282623,0.120051,1.220503,3.058971,-8.395923
1790548206.9006,-0.014461,0.021883,-0.312346,-0.014514,0.025513,-0.312346,0.909721,-0.213417,0.384734,2.715294,4.583351,-9.249770
1790548206.9146,-0.015014,0.011376,-0.321993,-0.014864,0.015617,-0.321993,0.995925,-0.197633,0.475794,1.757095,4.694891,-8.046623
1790548206.9284,-0.012018,-0.000577,-0.322310,-0.012872,0.004281,-0.322310,1.080915,-0.453817,0.636061,1.373815,4.471811,-8.745224
1790548206.9424,-0.022847,-0.005688,-0.319870,-0.019854,-0.002697,-0.319870,0.458060,0.630412,0.735621,0.453943,4.471811,-14.372847
1790548206.9563,-0.021233,-0.005270,-0.318506,-0.020819,-0.004498,-0.318506,-0.023954,-0.144211,0.923813,-3.033903,2.873071,-15.265504
1790548206.9703,-0.009655,-0.003088,-0.316977,-0.013004,-0.003511,-0.316977,-0.100445,-0.833844,1.230991,-3.072231,2.166651,-8.551168
1790548206.9843,-0.008927,0.001358,-0.281034,-0.010150,-0.000103,-0.281034,-0.453761,-0.328761,1.182425,0.338959,-0.138509,-8.551168
1790548206.9983,-0.015995,0.000485,-0.237377,-0.014242,0.000308,-0.237377,-0.102874,0.152040,1.027015,1.373815,-0.287229,-6.727042
1790548207.0123,-0.009332,-0.001371,-0.225644,-0.010805,-0.000867,-0.225644,0.012470,-0.457460,0.742906,-2.573967,0.047391,-10.025993
1790548207.0264,-0.006308,-0.001304,-0.213870,-0.007657,-0.001173,-0.213870,-0.149011,-0.208560,0.339810,-1.385800,-0.250049,-11.306763
1790548207.0405,-0.003208,0.000042,-0.207089,-0.004543,-0.000322,-0.207089,-0.266783,-0.138140,0.042346,-1.884064,-0.659029,-12.315854
1790548207.0540,0.000755,0.001892,-0.204361,-0.000834,0.001228,-0.204361,-0.298351,-0.173350,-0.153131,-1.385800,-0.250049,-9.172147
1790548207.0679,0.005221,0.003353,-0.204874,0.003404,0.002716,-0.204874,-0.248571,-0.220702,-0.366820,-0.657568,0.047391,-8.628791
1790548207.0827,0.010479,0.004981,-0.209625,0.008357,0.004301,-0.209625,-0.248571,-0.246199,-0.589008,-0.274288,0.121751,-8.201867
1790548207.0969,0.014676,0.006834,-0.218538,0.012780,0.006074,-0.218538,-0.241286,-0.225558,-0.693424,0.492271,0.642271,-9.172147
1790548207.1110,0.014896,0.006917,-0.228057,0.014261,0.006664,-0.228057,-0.149011,0.121686,-0.825766,0.032335,0.456371,-11.656063
1790548207.1255,0.011647,0.000847,-0.238658,0.012431,0.002592,-0.238658,0.333003,0.411866,-0.858548,-0.810880,1.757671,-15.459560
1790548207.1395,0.011861,0.005283,-0.277358,0.012032,0.004475,-0.277358,-0.025169,0.178751,-0.706780,-1.002520,5.289771,-6.843476
1790548207.1536,0.009415,0.002322,-0.293540,0.010200,0.002968,-0.293540,0.302650,0.455575,-0.819695,-1.615768,2.910251,-7.464455
1790548207.1676,0.001195,-0.002044,-0.313861,0.003897,-0.000540,-0.313861,0.476272,0.884167,-0.925326,-1.194160,3.058971,-5.950818
1790548207.1816,-0.002431,-0.007509,-0.332532,-0.000533,-0.005419,-0.332532,0.561262,0.455575,-1.102590,-0.005993,4.285911,-8.395923
1790548207.1955,0.009931,-0.004732,-0.350869,0.006792,-0.004938,-0.350869,-0.225502,-0.616512,-1.361203,-1.270816,2.984611,-14.955014
1790548207.2094,0.006344,0.000105,-0.366948,0.006478,-0.001408,-0.366948,-0.254641,0.399725,-1.420696,1.987063,4.880791,-11.656063
1790548207.2233,0.011556,0.001342,-0.394606,0.010033,0.000517,-0.394606,-0.161152,0.080405,-1.500829,-2.842263,1.534591,-9.948371
1790548207.2373,0.000913,0.005089,-0.412755,0.003649,0.003717,-0.412755,-0.277710,0.976442,-1.412197,0.530599,1.534591,-5.950818
1790548207.2511,-0.011550,0.009179,-0.423951,-0.006990,0.007541,-0.423951,-0.418551,1.048077,-1.220362,1.488799,0.605091,-9.793126
1790548207.2651,-0.013296,0.013342,-0.435848,-0.011404,0.011602,-0.435848,-0.452547,0.341446,-1.120802,0.147319,-0.026969,-11.229140
1790548207.2792,-0.016921,0.017962,-0.447597,-0.015266,0.016054,-0.447597,-0.446476,0.438577,-1.037027,0.607255,0.530731,-11.539630
1790548207.2930,-0.015355,0.019638,-0.454646,-0.015328,0.018563,-0.454646,-0.250999,0.026983,-0.778414,0.262303,0.382011,-11.190329
1790548207.3066,-0.014605,0.019979,-0.459336,-0.014822,0.019554,-0.459336,-0.111373,0.006343,-0.525873,0.683911,1.051251,-11.112707
1790548207.3259,-0.004312,0.017132,-0.462719,-0.007465,0.017858,-0.462719,0.163023,-0.525452,-0.230836,0.338959,2.129471,-8.628791
1790548207.3405,-0.003834,0.012223,-0.465733,-0.004924,0.013913,-0.465733,0.421636,-0.157567,0.090911,1.335487,3.096151,-9.094525
1790548207.3545,-0.002244,0.005069,-0.464677,-0.003048,0.007722,-0.464677,0.628040,-0.298407,0.421158,1.258831,3.579491,-9.715504
1790548207.3684,-0.001373,-0.003333,-0.465163,-0.001876,-0.000016,-0.465163,0.807733,-0.283837,0.629990,1.220503,4.397451,-8.861658
1790548207.3824,-0.002272,-0.014562,-0.461230,-0.002153,-0.010198,-0.461230,1.035992,-0.195205,0.923813,1.105519,4.471811,-8.201867
1790548207.3964,-0.011136,-0.019999,-0.445900,-0.008441,-0.017059,-0.445900,0.433777,0.396082,1.115647,0.952207,3.282051,-15.187882
1790548207.4103,-0.010513,-0.020438,-0.432309,-0.009891,-0.019424,-0.432309,0.047680,-0.156352,1.370617,-2.880591,2.464091,-14.605714
1790548207.4243,-0.007366,-0.017795,-0.415207,-0.008124,-0.018284,-0.415207,-0.214575,-0.316619,1.348763,-2.650623,1.199971,-11.267951
1790548207.4381,-0.005413,-0.017823,-0.394621,-0.006226,-0.017961,-0.394621,-0.067664,-0.251055,1.305053,-1.040848,0.196111,-5.291028
1790548207.4521,-0.008688,-0.017595,-0.378597,-0.007950,-0.017705,-0.378597,-0.016670,0.024555,0.983306,0.338959,1.125611,-7.464455
1790548207.4661,-0.009449,-0.015369,-0.364721,-0.008999,-0.016070,-0.364721,-0.187864,-0.112643,0.700411,0.415615,0.976891,-8.279490
1790548207.4806,-0.005273,-0.016850,-0.350778,-0.006391,-0.016616,-0.350778,-0.014241,-0.329975,0.424800,-1.040848,-0.212869,-13.286133
1790548207.4946,-0.003655,-0.018218,-0.339894,-0.004476,-0.017737,-0.339894,-0.021526,-0.139354,0.300958,-0.849208,-0.175689,-13.053266
1790548207.5089,-0.000400,-0.016319,-0.334498,-0.001623,-0.016745,-0.334498,-0.227930,-0.166065,0.049630,-1.539112,0.307651,-11.384385
1790548207.5226,0.003792,-0.015517,-0.332091,0.002168,-0.015885,-0.332091,-0.180579,-0.241342,-0.191984,-0.657568,0.010211,-8.589979
1790548207.5364,0.007398,-0.015369,-0.334642,0.005829,-0.015524,-0.334642,-0.089518,-0.225558,-0.361964,0.032335,0.530731,-7.231588
1790548207.5504,0.009048,-0.015716,-0.339561,0.008082,-0.015658,-0.339561,-0.053094,-0.105358,-0.420243,0.492271,0.642271,-8.357112
1790548207.5646,0.010626,-0.015053,-0.344378,0.009863,-0.015234,-0.344378,-0.115015,-0.056793,-0.457881,0.032335,0.939711,-9.831937
1790548207.5789,0.005998,-0.016649,-0.352399,0.007158,-0.016225,-0.352399,0.058607,0.472573,-0.647287,-0.964192,1.646131,-12.742777
1790548207.5934,0.001355,-0.022446,-0.364149,0.003095,-0.020580,-0.364149,0.431349,0.479858,-0.661857,-0.772552,2.166651,-8.551168
1790548207.6075,-0.000155,-0.021687,-0.383983,0.000820,-0.021355,-0.383983,0.137526,0.289238,-0.682497,-1.002520,3.876931,-7.231588
1790548207.6216,0.000427,-0.025395,-0.403047,0.000545,-0.024183,-0.403047,0.443490,0.207890,-0.870689,-1.654096,4.211551,-8.124245
1790548207.6355,0.005209,-0.028017,-0.417768,0.003810,-0.026867,-0.417768,0.257727,-0.147853,-0.925326,-1.270816,3.839751,-12.277042
1790548207.6495,0.010833,-0.025635,-0.434004,0.008726,-0.026005,-0.434004,-0.189078,-0.212203,-1.197293,-0.427600,2.538451,-13.053266
1790548207.6633,0.013569,-0.024171,-0.448849,0.012116,-0.024721,-0.448849,-0.197577,-0.073791,-1.351489,1.373815,1.237151,-12.199420
1790548207.6773,0.016771,-0.017986,-0.467106,0.015374,-0.020007,-0.467106,-0.412480,-0.084718,-1.322350,0.568927,2.129471,-6.998721
1790548207.6913,0.007898,-0.009818,-0.480316,0.010141,-0.012875,-0.480316,-0.527823,0.636482,-1.096520,1.872079,2.203831,-6.144874
1790548207.7052,-0.004981,-0.007521,-0.490540,-0.000444,-0.009127,-0.490540,-0.280138,1.066289,-1.060095,0.837223,0.567911,-9.599070
1790548207.7190,-0.012916,-0.003510,-0.502783,-0.009174,-0.005195,-0.502783,-0.372413,0.739684,-1.132944,0.760567,0.976891,-10.608161
1790548207.7330,-0.019364,0.001236,-0.510178,-0.016307,-0.000693,-0.510178,-0.456189,0.564848,-0.989675,1.565455,0.344831,-10.996273
1790548207.7465,-0.021825,0.005161,-0.513542,-0.020169,0.003405,-0.513542,-0.444048,0.301379,-0.833051,0.683911,-0.287229,-10.025993
1790548207.7602,-0.019381,0.006637,-0.515923,-0.019617,0.005667,-0.515923,-0.220645,-0.036152,-0.648501,-0.312616,0.382011,-10.841028
1790548207.7742,-0.013261,0.003279,-0.516506,-0.015168,0.003995,-0.516506,0.147240,-0.338474,-0.474879,-0.312616,0.679451,-11.539630
1790548207.7880,-0.007112,0.000802,-0.521721,-0.009529,0.001760,-0.521721,0.195805,-0.427106,-0.301257,0.338959,2.278191,-10.181238
1790548207.8019,-0.000670,-0.000875,-0.536530,-0.003328,-0.000084,-0.536530,0.250442,-0.543664,-0.071784,1.143847,3.951291,-9.870749
1790548207.8159,0.006402,-0.005746,-0.547217,0.003483,-0.004048,-0.547217,0.504197,-0.611656,0.183186,0.683911,4.062831,-9.482637
1790548207.8299,0.010477,-0.013245,-0.555200,0.008379,-0.010486,-0.555200,0.734884,-0.510882,0.470938,1.680439,4.285911,-8.745224
1790548207.8443,0.005678,-0.018411,-0.554000,0.006488,-0.016034,-0.554000,0.509054,0.125329,0.723479,1.373815,4.508991,-11.617252
1790548207.8583,0.004137,-0.016963,-0.542180,0.004843,-0.016685,-0.542180,-0.065235,-0.008227,1.081651,-1.960720,2.724351,-14.566903
1790548207.8722,0.008172,-0.015117,-0.521954,0.007173,-0.015587,-0.521954,-0.112587,-0.427106,1.450750,-2.842263,1.757671,-12.548721
1790548207.8862,0.007014,-0.016188,-0.493222,0.007062,-0.016008,-0.493222,0.056179,-0.196419,1.579450,-0.235960,0.530731,-7.503266
1790548207.9000,0.012049,-0.013479,-0.466402,0.010553,-0.014238,-0.466402,-0.249785,-0.383397,1.329336,-2.458983,0.121751,-6.144874
1790548207.9140,0.013362,-0.010201,-0.452572,0.012519,-0.011412,-0.452572,-0.198791,-0.036152,1.062225,-2.037376,0.790991,-4.359560
1790548207.9284,0.013911,-0.005579,-0.437198,0.013493,-0.007329,-0.437198,-0.385769,-0.166065,0.761118,-0.657568,0.382011,-11.112707
1790548207.9425,0.019270,-0.004168,-0.422858,0.017537,-0.005116,-0.422858,-0.208504,-0.435605,0.559570,-1.692424,-0.324409,-13.053266
1790548207.9566,0.022596,0.000330,-0.413271,0.021078,-0.001304,-0.413271,-0.397910,-0.285051,0.395661,-1.117504,0.456371,-11.850119
1790548207.9706,0.025172,0.006153,-0.407885,0.023944,0.003916,-0.407885,-0.520539,-0.240128,0.166188,-0.159304,0.158931,-9.793126
1790548207.9842,0.032476,0.010704,-0.404259,0.029917,0.008668,-0.404259,-0.425835,-0.508454,-0.065713,-0.772552,0.493551,-8.240679
1790548207.9979,0.039332,0.015579,-0.404053,0.036507,0.013505,-0.404053,-0.433120,-0.508454,-0.134919,-0.235960,0.865351,-9.443825
1790548208.0120,0.037158,0.017415,-0.409682,0.036963,0.016242,-0.409682,-0.260712,0.170252,-0.330396,0.377287,0.493551,-13.208511
1790548208.0261,0.033573,0.009756,-0.413664,0.034590,0.011702,-0.413664,0.430135,0.394868,-0.502804,-1.539112,1.125611,-15.110259
1790548208.0400,0.031913,0.012428,-0.427019,0.032716,0.012210,-0.427019,-0.025169,0.354801,-0.604792,-2.114032,4.732071,-8.007811
1790548208.0540,0.027180,0.012616,-0.439766,0.028841,0.012494,-0.439766,0.101102,0.584274,-0.706780,-1.730752,3.876931,-7.891378
1790548208.0680,0.022720,0.009796,-0.454398,0.024556,0.010605,-0.454398,0.318434,0.559991,-0.818481,-1.347472,3.951291,-8.007811
1790548208.0821,0.019208,0.004604,-0.469224,0.020813,0.006405,-0.469224,0.507840,0.495642,-0.826980,-1.309144,3.765391,-7.037532
1790548208.0971,0.016575,-0.003120,-0.485498,0.017847,-0.000263,-0.485498,0.664464,0.430078,-0.915612,-1.232488,3.728211,-6.649420
1790548208.1112,0.017693,-0.011000,-0.498552,0.017739,-0.007779,-0.498552,0.676606,0.125329,-0.921683,-1.232488,5.438491,-11.694875
1790548208.1254,0.020388,-0.011952,-0.509322,0.019593,-0.010700,-0.509322,0.095032,-0.089575,-1.192437,2.140375,4.917971,-15.692427
1790548208.1395,0.024059,-0.007800,-0.525335,0.022719,-0.008670,-0.525335,-0.372413,-0.083504,-1.441336,1.297159,2.575631,-15.770049
1790548208.1534,0.021597,-0.002392,-0.540724,0.021933,-0.004275,-0.540724,-0.436763,0.326876,-1.386700,0.875551,1.460231,-6.610609
1790548208.1673,0.008210,0.004562,-0.553431,0.012327,0.001911,-0.553431,-0.559391,1.059004,-1.097734,1.028863,1.051251,-5.717951
1790548208.1814,-0.007411,0.009560,-0.564680,-0.001490,0.007266,-0.564680,-0.482900,1.225341,-0.932610,1.067191,0.344831,-8.007811
1790548208.1954,-0.014076,0.016105,-0.576555,-0.010300,0.013453,-0.576555,-0.603100,0.668050,-0.869475,-0.159304,0.121751,-12.044175
1790548208.2091,-0.021396,0.022115,-0.585574,-0.018067,0.019516,-0.585574,-0.565462,0.614628,-0.755346,1.757095,0.307651,-12.393476
1790548208.2226,-0.017818,0.027015,-0.589542,-0.017893,0.024765,-0.589542,-0.467116,-0.181849,-0.553798,0.530599,0.716631,-12.044175
1790548208.2366,-0.015774,0.028876,-0.594545,-0.016410,0.027643,-0.594545,-0.179365,-0.119928,-0.462737,0.952207,1.385871,-9.016902
1790548208.2505,-0.011106,0.026232,-0.596746,-0.012697,0.026655,-0.596746,0.207947,-0.316619,-0.150703,-0.005993,1.794851,-7.115154
1790548208.2643,-0.008120,0.023745,-0.612098,-0.009493,0.024618,-0.612098,0.370642,-0.291122,0.061772,0.645583,4.211551,-7.580888
1790548208.2782,-0.007773,0.013067,-0.618584,-0.008289,0.016532,-0.618584,0.946145,-0.198847,0.321598,1.527127,4.546171,-8.900469
1790548208.2922,-0.004419,0.000292,-0.620397,-0.005580,0.005164,-0.620397,1.110054,-0.461102,0.458796,1.987063,5.066691,-9.521448
1790548208.3060,-0.002889,-0.013398,-0.616661,-0.003696,-0.007830,-0.616661,1.158620,-0.332403,0.678556,1.297159,4.062831,-8.939280
1790548208.3199,-0.012267,-0.014061,-0.605262,-0.009696,-0.012192,-0.605262,0.086533,0.485929,0.767188,1.450471,3.653851,-16.158161
1790548208.3339,-0.009808,-0.012434,-0.594643,-0.009774,-0.012362,-0.594643,-0.129585,-0.263197,0.949310,-1.999048,1.832031,-13.363756
1790548208.3485,-0.003189,-0.013044,-0.580755,-0.005165,-0.012840,-0.580755,0.070749,-0.605585,1.222492,-1.232488,1.608951,-8.512357
1790548208.3626,-0.008599,-0.016231,-0.522358,-0.007569,-0.015214,-0.522358,0.040395,-0.073791,1.054940,1.488799,-0.510309,-3.311658
1790548208.3765,-0.005802,-0.023085,-0.510186,-0.006332,-0.020723,-0.510186,0.317220,-0.156352,0.976021,-2.382327,-0.993649,-6.183686
1790548208.3906,-0.004339,-0.028701,-0.491850,-0.004937,-0.026308,-0.491850,0.325719,-0.209775,0.908029,-0.849208,0.158931,-8.939280
1790548208.4046,-0.003541,-0.033565,-0.478427,-0.003960,-0.031388,-0.478427,0.204304,-0.047080,0.609350,-2.535639,-1.216729,-12.936833
1790548208.4184,-0.004505,-0.035347,-0.467170,-0.004341,-0.034160,-0.467170,0.007613,0.075549,0.512219,-2.037376,-0.696209,-13.208511
1790548208.4321,-0.003300,-0.036175,-0.461226,-0.003613,-0.035571,-0.461226,-0.048237,0.007557,0.319170,-2.382327,-0.287229,-9.405014
1790548208.4457,-0.003066,-0.034989,-0.457637,-0.003230,-0.035164,-0.457637,-0.173294,-0.060435,0.156475,0.070663,0.121751,-8.007811
1790548208.4594,-0.000100,-0.033771,-0.454420,-0.001039,-0.034189,-0.454420,-0.168437,-0.179421,-0.017147,-0.657568,0.270471,-8.124245
1790548208.4732,0.000646,-0.033058,-0.456121,0.000141,-0.033397,-0.456121,-0.128371,-0.064078,-0.130063,0.223975,0.382011,-9.560259
1790548208.4873,0.001694,-0.030716,-0.458824,0.001228,-0.031520,-0.458824,-0.220645,-0.077433,-0.179842,0.262303,0.865351,-10.918651
1790548208.5012,0.000746,-0.029811,-0.461445,0.000890,-0.030323,-0.461445,-0.140512,0.119258,-0.307327,-0.235960,0.530731,-9.948371
1790548208.5152,-0.006199,-0.036571,-0.471019,-0.004072,-0.034697,-0.471019,0.417993,0.551492,-0.536800,0.530599,0.939711,-13.324944
1790548208.5292,-0.004421,-0.033848,-0.497878,-0.004317,-0.034103,-0.497878,0.001543,0.031840,-0.646073,-1.155832,4.508991,-8.395923
1790548208.5430,-0.004566,-0.030694,-0.515430,-0.004491,-0.031717,-0.515430,-0.127156,0.084048,-0.666713,0.338959,3.691031,-10.491728
1790548208.5570,-0.000286,-0.027203,-0.529462,-0.001547,-0.028557,-0.529462,-0.203647,-0.173350,-0.816053,-0.350944,2.984611,-11.073895
1790548208.5710,-0.000739,-0.021940,-0.550250,-0.000981,-0.023925,-0.550250,-0.345702,0.107116,-1.044312,1.412143,2.612811,-9.948371
1790548208.5853,0.003050,-0.013313,-0.570997,0.001841,-0.016497,-0.570997,-0.571532,-0.139354,-1.137800,0.798895,2.538451,-9.055714
1790548208.5996,0.009913,-0.005428,-0.588480,0.007492,-0.008749,-0.588480,-0.512040,-0.121142,-1.044312,-2.305671,2.055111,-6.649420
1790548208.6136,-0.003365,-0.002553,-0.605562,-0.000108,-0.004412,-0.605562,-0.259498,1.078430,-1.075879,1.143847,1.385871,-8.706413
1790548208.6276,-0.008706,0.000473,-0.617318,-0.006127,-0.000993,-0.617318,-0.323848,0.564848,-1.071023,0.338959,0.530731,-10.297672
1790548208.6415,-0.016420,0.006626,-0.629607,-0.013332,0.004340,-0.629607,-0.586102,0.665622,-1.114732,2.178703,-0.138509,-11.656063
1790548208.6554,-0.020873,0.012347,-0.639622,-0.018610,0.009945,-0.639622,-0.533894,0.478644,-1.030956,0.952207,0.196111,-10.375294
1790548208.6690,-0.023037,0.019614,-0.649989,-0.021709,0.016713,-0.649989,-0.595815,0.325662,-0.926540,0.415615,0.976891,-8.512357
1790548208.6834,-0.021471,0.022862,-0.656087,-0.021543,0.021018,-0.656087,-0.286209,0.040339,-0.712851,0.032335,1.348691,-11.423196
1790548208.6985,-0.018073,0.022982,-0.665544,-0.019114,0.022393,-0.665544,-0.005742,-0.150282,-0.528301,0.607255,2.426911,-10.879840
1790548208.7132,-0.012002,0.022010,-0.679315,-0.014135,0.022125,-0.679315,0.149668,-0.442890,-0.264832,1.067191,3.319231,-9.133336
1790548208.7274,-0.009099,0.019034,-0.693096,-0.010610,0.019961,-0.693096,0.339074,-0.311763,0.033847,1.373815,3.951291,-9.016902
1790548208.7424,-0.003371,0.010921,-0.699280,-0.005542,0.013633,-0.699280,0.677820,-0.518167,0.356808,0.722239,4.025651,-9.055714
1790548208.7564,0.001672,0.002214,-0.705075,-0.000492,0.005639,-0.705075,0.828373,-0.541235,0.506148,0.837223,4.323091,-8.085434
1790548208.7702,0.001002,-0.003685,-0.704307,0.000553,-0.000888,-0.704307,0.590401,-0.152710,0.697982,0.990535,4.620531,-10.569350
1790548208.7842,-0.002561,-0.001693,-0.694861,-0.001627,-0.001452,-0.694861,-0.098017,0.119258,0.917742,-1.270816,3.691031,-16.080539
1790548208.7983,0.007115,0.002827,-0.677687,0.004493,0.001543,-0.677687,-0.275282,-0.899407,1.196995,-1.002520,2.464091,-11.423196
1790548208.8121,0.012346,0.005058,-0.653693,0.009990,0.004003,-0.653693,-0.157510,-0.601943,1.341478,-0.849208,0.976891,-7.542077
1790548208.8262,0.003335,0.005665,-0.627638,0.005331,0.005166,-0.627638,-0.122300,0.438577,1.068296,-0.159304,0.196111,-6.843476
1790548208.8404,0.011744,0.005838,-0.610788,0.009820,0.005636,-0.610788,0.002757,-0.662650,0.864320,-1.730752,1.348691,-7.658511
1790548208.8546,0.021681,0.007922,-0.595298,0.018123,0.007236,-0.595298,-0.142940,-0.774351,0.711338,-1.730752,1.460231,-9.599070
1790548208.8686,0.027873,0.016678,-0.579692,0.024948,0.013845,-0.579692,-0.682019,-0.438033,0.438156,-2.727279,0.939711,-12.471098
1790548208.8825,0.034953,0.023414,-0.561415,0.031952,0.020543,-0.561415,-0.621312,-0.547306,0.314313,-1.347472,-0.435949,-11.190329
1790548208.8962,0.044638,0.030864,-0.551861,0.040832,0.027768,-0.551861,-0.632240,-0.770708,0.115194,-0.274288,0.493551,-9.405014
1790548208.9098,0.049817,0.036456,-0.551778,0.047122,0.033849,-0.551778,-0.518110,-0.499955,-0.150703,1.412143,0.567911,-9.288581
1790548208.9239,0.053893,0.039552,-0.553371,0.051862,0.037841,-0.553371,-0.260712,-0.253484,-0.257547,-0.580912,2.092291,-10.918651
1790548208.9379,0.052129,0.037897,-0.555779,0.052049,0.037880,-0.555779,0.079248,0.240672,-0.307327,-1.692424,2.575631,-12.044175
1790548208.9519,0.051410,0.040485,-0.565255,0.051602,0.039703,-0.565255,-0.122300,0.283167,-0.455453,-2.842263,3.951291,-9.366203
1790548208.9658,0.048980,0.040196,-0.580077,0.049767,0.040048,-0.580077,0.114458,0.420365,-0.590222,-2.458983,4.657711,-9.249770
1790548208.9797,0.043559,0.037114,-0.596950,0.045421,0.037994,-0.596950,0.301436,0.583060,-0.671570,-1.117504,4.434631,-9.288581
1790548208.9937,0.040797,0.031309,-0.614402,0.042184,0.033315,-0.614402,0.550335,0.487143,-0.731063,-2.152360,4.360271,-7.270399
1790548209.0076,0.038143,0.023949,-0.630963,0.039355,0.026759,-0.630963,0.629254,0.461646,-0.813625,-1.654096,3.802571,-7.348021
1790548209.0216,0.034428,0.013083,-0.647156,0.035906,0.017186,-0.647156,0.887866,0.540565,-0.836693,-1.615768,3.653851,-7.076343
1790548209.0356,0.028761,0.000117,-0.658835,0.030904,0.005238,-0.658835,1.137980,0.634054,-0.893758,-1.309144,6.591070,-8.861658
1790548209.0494,0.033261,-0.008680,-0.669862,0.032554,-0.004505,-0.669862,0.604971,-0.176993,-0.984819,-0.082648,3.244871,-14.566903
1790548209.0634,0.038241,-0.008298,-0.685314,0.036535,-0.007160,-0.685314,-0.118657,-0.153924,-1.517827,0.837223,3.133331,-17.477742
1790548209.0772,0.036313,-0.001839,-0.695974,0.036380,-0.003436,-0.695974,-0.470759,0.261313,-1.402483,1.642111,3.207691,-9.443825
1790548209.0915,0.022220,0.003246,-0.694694,0.026468,0.001242,-0.694694,-0.479258,0.983727,-1.006673,1.910407,0.605091,-5.950818
1790548209.1059,0.004880,0.006179,-0.700374,0.011357,0.004698,-0.700374,-0.345702,1.301832,-0.825766,1.067191,0.270471,-8.900469
1790548209.1200,-0.005017,0.013571,-0.706889,-0.000105,0.010909,-0.706889,-0.616456,0.807676,-0.774772,0.913879,0.976891,-10.724595
1790548209.1338,-0.011375,0.018776,-0.708571,-0.007994,0.016416,-0.708571,-0.529038,0.504141,-0.642431,1.565455,-0.175689,-10.685784
1790548209.1474,-0.011488,0.022412,-0.706481,-0.010440,0.020613,-0.706481,-0.439191,0.012413,-0.368034,1.297159,-0.621849,-12.393476
1790548209.1614,-0.009645,0.024297,-0.707487,-0.009884,0.023192,-0.707487,-0.168437,-0.100502,-0.274545,0.223975,1.385871,-8.240679
1790548209.1754,-0.007538,0.021354,-0.704179,-0.008242,0.021905,-0.704179,0.181236,-0.241342,0.053273,0.683911,1.051251,-6.338930
1790548209.1894,-0.004295,0.012148,-0.710200,-0.005479,0.015075,-0.710200,0.767666,-0.329975,0.287602,0.300631,3.021791,-7.969000
1790548209.2035,-0.003916,-0.000926,-0.737216,-0.004385,0.003874,-0.737216,1.191402,-0.246199,0.511004,1.680439,4.917971,-7.309210
1790548209.2173,0.001071,-0.015312,-0.739615,-0.000566,-0.009556,-0.739615,1.230254,-0.588587,0.608136,1.948735,5.289771,-10.918651
1790548209.2313,-0.010351,-0.017533,-0.732853,-0.007415,-0.015140,-0.732853,0.241943,0.617056,0.725908,2.217030,4.992331,-16.817952
1790548209.2453,-0.006882,-0.012926,-0.725724,-0.007042,-0.013591,-0.725724,-0.310492,-0.319047,0.899530,-2.458983,2.724351,-14.760958
1790548209.2592,-0.000632,-0.013724,-0.716551,-0.002555,-0.013684,-0.716551,0.141169,-0.614084,1.193352,-0.772552,1.906391,-6.998721
1790548209.2732,0.000147,-0.012597,-0.702453,-0.000664,-0.012923,-0.702453,-0.111373,-0.117500,1.078009,-1.194160,0.419191,-4.902916
1790548209.2870,-0.001026,-0.018085,-0.676710,-0.000918,-0.016537,-0.676710,0.248013,0.054908,1.044013,-2.382327,-0.919289,-8.357112
1790548209.3010,0.003042,-0.024835,-0.653024,0.001854,-0.022345,-0.653024,0.351215,-0.370041,0.983306,-1.884064,-0.919289,-10.336483
1790548209.3151,0.003157,-0.027513,-0.637810,0.002766,-0.025963,-0.637810,0.082890,-0.026439,0.679770,-2.114032,-0.510309,-11.500819
1790548209.3289,0.000774,-0.032848,-0.622575,0.001371,-0.030782,-0.622575,0.211589,0.158110,0.521932,-1.577440,-1.700068,-11.578441
1790548209.3429,0.000385,-0.040001,-0.610894,0.000681,-0.037236,-0.610894,0.357286,0.048838,0.423586,-1.769080,-1.291089,-10.646972
1790548209.3568,-0.001781,-0.042841,-0.604143,-0.001042,-0.041159,-0.604143,0.146025,0.205462,0.310671,-1.424128,0.344831,-8.085434
1790548209.3706,-0.002273,-0.042550,-0.599347,-0.001904,-0.042133,-0.599347,-0.061593,0.108331,0.201398,-1.577440,0.642271,-8.434735
1790548209.3847,-0.002874,-0.041308,-0.598186,-0.002583,-0.041555,-0.598186,-0.127156,0.048838,0.025348,-0.312616,0.753811,-8.784035
1790548209.3987,-0.003115,-0.041970,-0.599459,-0.002955,-0.041846,-0.599459,-0.016670,0.014842,-0.105780,0.108991,0.530731,-11.190329
1790548209.4128,-0.004680,-0.041389,-0.604934,-0.004163,-0.041526,-0.604934,-0.085876,0.062193,-0.184699,1.105519,0.828171,-10.181238
1790548209.4267,-0.004921,-0.039604,-0.609652,-0.004693,-0.040181,-0.609652,-0.153868,0.026983,-0.280616,0.338959,1.162791,-9.793126
1790548209.4406,-0.003057,-0.041035,-0.615545,-0.003548,-0.040779,-0.615545,0.058607,-0.004585,-0.596293,-1.079176,1.237151,-12.742777
1790548209.4545,-0.000400,-0.040566,-0.625015,-0.001344,-0.040630,-0.625015,-0.042167,-0.084718,-0.700709,-0.389272,2.166651,-13.363756
1790548209.4684,0.003815,-0.032367,-0.642688,0.002267,-0.034846,-0.642688,-0.503541,-0.298407,-0.676426,1.565455,3.988471,-11.811308
1790548209.4823,-0.001399,-0.025142,-0.658474,-0.000299,-0.028053,-0.658474,-0.514468,0.483501,-0.891330,0.377287,1.794851,-8.395923
1790548209.4962,-0.000406,-0.015316,-0.673758,-0.000374,-0.019137,-0.673758,-0.713587,0.093761,-1.029742,-0.044320,1.683311,-8.357112
1790548209.5102,0.011071,-0.007640,-0.687649,0.007638,-0.011089,-0.687649,-0.499898,-0.468387,-1.029742,-3.110559,2.798711,-8.589979
1790548209.5242,0.000367,-0.006324,-0.706725,0.002548,-0.007754,-0.706725,-0.106516,0.833173,-0.981176,1.565455,1.869211,-8.434735
1790548209.5382,-0.007635,-0.002216,-0.723430,-0.004580,-0.003877,-0.723430,-0.333561,0.743327,-1.072237,0.530599,1.683311,-10.258860
1790548209.5521,-0.013164,0.005644,-0.739750,-0.010589,0.002787,-0.739750,-0.635882,0.542993,-1.141443,1.373815,1.162791,-10.763406
1790548209.5660,-0.018215,0.011565,-0.752681,-0.015927,0.008932,-0.752681,-0.541179,0.634054,-1.193651,-0.350944,0.344831,-9.870749
1790548209.5798,-0.020369,0.016925,-0.765504,-0.019036,0.014527,-0.765504,-0.471973,0.366943,-1.081950,0.223975,0.679451,-8.939280
1790548209.5936,-0.022207,0.021351,-0.779681,-0.021256,0.019304,-0.779681,-0.388197,0.271026,-0.986033,1.182175,1.051251,-9.831937
1790548209.6078,-0.020243,0.025879,-0.796383,-0.020547,0.023907,-0.796383,-0.303207,-0.013084,-0.915612,1.297159,2.910251,-11.500819
1790548209.6219,-0.016664,0.028101,-0.813037,-0.017829,0.026842,-0.813037,-0.091946,-0.213417,-0.652144,1.680439,3.579491,-10.491728
1790548209.6358,-0.012066,0.028051,-0.828284,-0.013795,0.027689,-0.828284,0.120528,-0.387039,-0.347394,1.833751,3.876931,-8.939280
1790548209.6498,-0.009288,0.022137,-0.836415,-0.010640,0.023803,-0.836415,0.532123,-0.328761,0.009564,1.872079,3.765391,-9.133336
1790548209.6638,-0.008487,0.013880,-0.843185,-0.009133,0.016857,-0.843185,0.771309,-0.247413,0.294887,1.718767,4.174371,-7.774944
1790548209.6776,-0.005936,0.002924,-0.844798,-0.006895,0.007104,-0.844798,0.971642,-0.388254,0.485507,1.373815,4.100011,-8.124245
1790548209.6916,0.004374,-0.008260,-0.847097,0.000993,-0.003651,-0.847097,1.009281,-0.865411,0.559570,-0.044320,3.579491,-6.649420
1790548209.7057,-0.002490,-0.009445,-0.838894,-0.001445,-0.007707,-0.838894,0.182450,0.275882,0.793900,1.718767,5.066691,-15.731238
1790548209.7195,0.003140,-0.004411,-0.827065,0.001764,-0.005400,-0.827065,-0.329918,-0.481742,0.957809,-2.995575,2.910251,-14.372847
1790548209.7335,0.009084,-0.001005,-0.797733,0.006888,-0.002323,-0.797733,-0.297136,-0.642009,1.243132,-0.619240,0.344831,-7.813756
1790548209.7475,0.010798,0.003374,-0.771767,0.009625,0.001665,-0.771767,-0.368771,-0.283837,1.129003,-0.772552,0.270471,-5.679140
1790548209.7614,0.009158,0.005772,-0.743404,0.009298,0.004540,-0.743404,-0.246142,-0.176993,0.824253,1.028863,0.233291,-5.601518
1790548209.7753,0.016862,0.007785,-0.734667,0.014593,0.006811,-0.734667,-0.113801,-0.609227,0.582639,-1.002520,1.311511,-6.222497
1790548209.7894,0.023853,0.010422,-0.717262,0.021075,0.009339,-0.717262,-0.284995,-0.518167,0.300958,-1.577440,0.233291,-12.315854
1790548209.8033,0.025931,0.017542,-0.702769,0.024474,0.015081,-0.702769,-0.632240,-0.172136,0.141905,-0.887536,0.084571,-14.062357
1790548209.8169,0.033434,0.023577,-0.688398,0.030746,0.021028,-0.688398,-0.586102,-0.544878,0.024134,-1.079176,-0.175689,-11.578441
1790548209.8304,0.042880,0.030598,-0.679636,0.039240,0.027727,-0.679636,-0.654094,-0.645652,-0.218695,-0.849208,0.196111,-8.667602
1790548209.8444,0.046397,0.035208,-0.680751,0.044250,0.032964,-0.680751,-0.461046,-0.208560,-0.468808,0.262303,0.605091,-10.142427
1790548209.8588,0.044382,0.033756,-0.688622,0.044342,0.033518,-0.688622,0.040395,0.319591,-0.640002,-1.194160,2.092291,-10.064805
1790548209.8728,0.041345,0.031950,-0.713240,0.042244,0.032420,-0.713240,0.207947,0.527210,-0.806340,-2.612295,4.211551,-8.706413
1790548209.8868,0.037466,0.029056,-0.741145,0.038900,0.030065,-0.741145,0.323290,0.523567,-0.831837,-1.539112,4.992331,-9.016902
1790548209.9011,0.035036,0.025597,-0.765897,0.036195,0.026937,-0.765897,0.351215,0.456789,-0.845192,-2.037376,4.434631,-8.240679
1790548209.9152,0.032315,0.019037,-0.787707,0.033479,0.021407,-0.787707,0.575832,0.467717,-0.807554,-1.884064,4.100011,-7.813756
1790548209.9293,0.025166,0.010609,-0.808357,0.027660,0.013849,-0.808357,0.704531,0.763967,-0.824552,-1.385800,3.728211,-7.542077
1790548209.9431,0.021135,0.002214,-0.828143,0.023093,0.005704,-0.828143,0.788307,0.557563,-0.916827,-1.500784,4.917971,-7.542077
1790548209.9570,0.027161,0.001881,-0.844464,0.025941,0.003028,-0.844464,0.028254,-0.181849,-0.885259,-2.075704,2.798711,-10.375294
1790548209.9709,0.033060,0.005532,-0.856561,0.030924,0.004781,-0.856561,-0.275282,-0.265625,-1.183938,0.722239,4.100011,-14.528091
1790548209.9847,0.026326,0.009004,-0.861388,0.027705,0.007737,-0.861388,-0.323848,0.568490,-1.077093,1.872079,1.980751,-10.414105
1790548209.9987,0.017153,0.015744,-0.876833,0.020318,0.013342,-0.876833,-0.510825,0.852600,-0.935039,-0.197632,2.017931,-8.201867
1790548210.0127,0.005053,0.021801,-0.880310,0.009633,0.019263,-0.880310,-0.554535,0.966729,-0.734705,0.722239,0.567911,-8.046623
1790548210.0266,-0.004251,0.026446,-0.881608,-0.000086,0.024291,-0.881608,-0.509611,0.796749,-0.705566,0.377287,-0.361589,-9.366203
1790548210.0405,-0.013556,0.031512,-0.881903,-0.009515,0.029346,-0.881903,-0.508397,0.726329,-0.612077,1.642111,0.084571,-11.384385
1790548210.0542,-0.015256,0.035227,-0.880109,-0.013533,0.033462,-0.880109,-0.445262,0.209104,-0.468808,0.377287,-0.473129,-11.578441
1790548210.0678,-0.013370,0.035743,-0.874720,-0.013419,0.035059,-0.874720,-0.204862,-0.164851,-0.193198,1.182175,-0.473129,-12.315854
1790548210.0817,-0.010144,0.034818,-0.873453,-0.011126,0.034890,-0.873453,0.023397,-0.315405,-0.072998,1.450471,1.608951,-10.297672
1790548210.0957,-0.003063,0.032746,-0.877124,-0.005482,0.033389,-0.877124,0.233444,-0.672363,0.214754,1.297159,2.873071,-7.852567
1790548210.1102,0.001212,0.026781,-0.879221,-0.000796,0.028764,-0.879221,0.532123,-0.566732,0.538930,1.910407,3.282051,-8.007811
1790548210.1245,0.001307,0.019631,-0.886268,0.000676,0.022371,-0.886268,0.705745,-0.299621,0.727122,2.025391,4.769251,-8.318301
1790548210.1388,0.002428,0.008413,-0.883190,0.001902,0.012601,-0.883190,0.940074,-0.326332,0.904387,0.760567,3.951291,-9.210958
1790548210.1527,0.004454,-0.004198,-0.879410,0.003688,0.000842,-0.879410,1.085771,-0.399181,1.035514,0.568927,3.951291,-8.667602
1790548210.1669,-0.003479,-0.007706,-0.869314,-0.001329,-0.005141,-0.869314,0.302650,0.408224,1.160570,-1.730752,3.653851,-15.808861
1790548210.1809,-0.003592,-0.004037,-0.854915,-0.002913,-0.004369,-0.854915,-0.235215,-0.106573,1.251631,-3.302199,2.835891,-14.955014
1790548210.1950,0.005662,-0.000529,-0.837023,0.003089,-0.001681,-0.837023,-0.193934,-0.794991,1.432538,-2.803935,2.203831,-9.870749
1790548210.2088,0.007612,0.003144,-0.811861,0.006255,0.001697,-0.811861,-0.317777,-0.350615,1.221278,-0.619240,0.382011,-7.386832
1790548210.2228,0.006046,0.006380,-0.786288,0.006108,0.004975,-0.786288,-0.304421,-0.139354,0.912886,0.568927,0.270471,-6.727042
1790548210.2367,0.015982,0.007530,-0.769772,0.013020,0.006763,-0.769772,-0.136870,-0.711215,0.623920,-2.190688,0.530731,-7.891378
1790548210.2506,0.018913,0.009978,-0.752698,0.017145,0.009013,-0.752698,-0.298351,-0.281409,0.368950,-0.695896,-0.250049,-12.277042
1790548210.2644,0.022222,0.012322,-0.738988,0.020699,0.011330,-0.738988,-0.309278,-0.254698,0.154047,-0.964192,-0.435949,-12.471098
1790548210.2780,0.026586,0.012823,-0.729894,0.024820,0.012375,-0.729894,-0.170866,-0.317833,-0.029289,-0.580912,-0.101329,-10.763406
1790548210.2916,0.030400,0.014717,-0.727798,0.028726,0.014014,-0.727798,-0.236429,-0.297193,-0.216267,0.338959,0.642271,-9.793126
1790548210.3056,0.031601,0.014607,-0.727894,0.030739,0.014429,-0.727894,-0.134441,-0.011869,-0.478521,-0.120976,0.158931,-9.521448
1790548210.3195,0.029965,0.012310,-0.734330,0.030197,0.012946,-0.734330,0.091389,0.232173,-0.590222,-0.389272,1.497411,-10.608161
1790548210.3335,0.027926,0.011903,-0.752308,0.028607,0.012216,-0.752308,0.099888,0.374228,-0.686140,-2.190688,4.248731,-10.569350
1790548210.3475,0.024327,0.010905,-0.770496,0.025611,0.011299,-0.770496,0.148454,0.473787,-0.678855,-1.807408,4.100011,-9.987182
1790548210.3618,0.019638,0.008134,-0.794590,0.021430,0.009083,-0.794590,0.343931,0.532066,-0.687354,-1.309144,4.620531,-8.240679
1790548210.3758,0.013857,0.002946,-0.814620,0.016129,0.004787,-0.814620,0.506626,0.613414,-0.657000,-1.155832,3.802571,-7.464455
1790548210.3899,0.008490,-0.006310,-0.833575,0.010782,-0.002981,-0.833575,0.795591,0.630412,-0.663071,-1.615768,3.244871,-6.455364
1790548210.4037,0.010164,-0.012372,-0.849603,0.010349,-0.009554,-0.849603,0.615898,0.063407,-0.773558,-1.079176,5.178231,-9.133336
1790548210.4177,0.023395,-0.014825,-0.861476,0.019481,-0.013244,-0.861476,0.176379,-0.808347,-1.045526,0.070663,3.244871,-13.480189
1790548210.4317,0.023164,-0.010580,-0.870912,0.022059,-0.011379,-0.870912,-0.335989,0.103474,-1.210649,2.561982,3.430771,-15.032637
1790548210.4456,0.017412,-0.007292,-0.859220,0.018806,-0.008518,-0.859220,-0.300779,0.269812,-0.990889,4.133430,1.274331,-7.231588
1790548210.4595,0.006980,-0.005503,-0.856669,0.010528,-0.006407,-0.856669,-0.263140,0.699618,-0.743204,2.178703,0.158931,-7.076343
1790548210.4734,-0.005216,-0.002614,-0.863195,-0.000493,-0.003752,-0.863195,-0.265569,0.937590,-0.704352,0.913879,1.014071,-7.619700
1790548210.4874,-0.007974,0.001043,-0.865405,-0.005730,-0.000396,-0.865405,-0.411266,0.365729,-0.732277,-0.657568,-0.324409,-11.927742
1790548210.5011,-0.014418,0.004285,-0.866911,-0.011812,0.002881,-0.866911,-0.346916,0.489571,-0.596293,1.718767,0.382011,-10.608161
1790548210.5147,-0.021762,0.009570,-0.866930,-0.018777,0.007563,-0.866930,-0.481686,0.507783,-0.352251,1.718767,0.567911,-9.482637
1790548210.5283,-0.023872,0.010828,-0.858874,-0.022344,0.009849,-0.858874,-0.258284,0.125329,-0.122778,0.837223,-0.547489,-9.094525
1790548210.5424,-0.018871,0.007744,-0.847701,-0.019913,0.008376,-0.847701,0.078034,-0.366399,0.077556,-0.235960,-0.287229,-9.793126
1790548210.5562,-0.016374,0.001900,-0.840142,-0.017436,0.003843,-0.840142,0.365785,-0.291122,0.265748,0.798895,0.976891,-9.987182
1790548210.5700,-0.011063,-0.002759,-0.839011,-0.012975,-0.000778,-0.839011,0.369428,-0.519381,0.362879,0.913879,2.538451,-10.918651
1790548210.5840,-0.003943,-0.005592,-0.851188,-0.006652,-0.004148,-0.851188,0.341502,-0.717286,0.545000,1.565455,4.100011,-10.452916
1790548210.5981,-0.003559,-0.011753,-0.863534,-0.004487,-0.009471,-0.863534,0.606185,-0.291122,0.793900,1.872079,4.137191,-9.637881
1790548210.6124,-0.013384,-0.010706,-0.859718,-0.010715,-0.010336,-0.859718,-0.004528,0.434935,0.888603,2.217030,3.542311,-13.014455
1790548210.6264,-0.012861,-0.009416,-0.847327,-0.012218,-0.009692,-0.847327,-0.051880,-0.168494,1.189710,-2.114032,3.058971,-13.480189
1790548210.6404,-0.011579,-0.010069,-0.823767,-0.011771,-0.009956,-0.823767,0.028254,-0.299621,1.409470,-0.964192,1.274331,-9.870749
1790548210.6543,-0.010480,-0.010178,-0.794328,-0.010867,-0.010112,-0.794328,-0.060379,-0.295979,1.445894,-0.657568,0.344831,-7.115154
1790548210.6682,-0.016204,-0.010648,-0.769312,-0.014603,-0.010487,-0.769312,-0.017884,0.205462,1.387615,-0.619240,0.716631,-8.822846
1790548210.6822,-0.013857,-0.009809,-0.744581,-0.014081,-0.010013,-0.744581,-0.141726,-0.264411,1.139930,-1.500784,0.270471,-7.580888
1790548210.6960,-0.011043,-0.009043,-0.722893,-0.011955,-0.009334,-0.722893,-0.155082,-0.327546,0.878890,-0.887536,0.121751,-11.694875
1790548210.7100,-0.005038,-0.007308,-0.704874,-0.007113,-0.007916,-0.704874,-0.226716,-0.482957,0.589924,-1.270816,0.047391,-10.608161
1790548210.7238,-0.001948,-0.005992,-0.692215,-0.003497,-0.006569,-0.692215,-0.206076,-0.280195,0.364093,-0.465928,-0.064149,-11.345574
1790548210.7374,0.004697,-0.001594,-0.682331,0.002239,-0.003087,-0.682331,-0.401553,-0.472029,0.154047,-1.079176,0.567911,-9.793126
1790548210.7510,0.009110,0.003386,-0.681460,0.007049,0.001444,-0.681460,-0.442833,-0.365185,-0.064499,0.377287,0.642271,-8.939280
1790548210.7657,0.015809,0.008101,-0.685901,0.013181,0.006104,-0.685901,-0.379698,-0.472029,-0.280616,0.568927,0.939711,-8.667602
1790548210.7809,0.014455,0.008675,-0.693904,0.014073,0.007904,-0.693904,-0.095589,0.210319,-0.625433,-0.312616,1.832031,-12.742777
1790548210.7952,0.013761,0.007241,-0.708023,0.013854,0.007440,-0.708023,0.146025,0.238244,-0.633932,-1.807408,3.914111,-12.005364
1790548210.8096,0.010658,0.009066,-0.736691,0.011617,0.008578,-0.736691,0.013684,0.438577,-0.677641,-1.769080,4.471811,-8.667602
1790548210.8247,0.004887,0.007440,-0.766017,0.006906,0.007781,-0.766017,0.246799,0.590345,-0.735919,-1.194160,4.471811,-8.512357
1790548210.8385,0.000382,0.002939,-0.792500,0.002339,0.004392,-0.792500,0.482343,0.573347,-0.784485,-1.424128,4.025651,-7.697322
1790548210.8526,-0.005055,-0.003656,-0.821645,-0.002837,-0.001242,-0.821645,0.658393,0.631626,-0.867047,-1.040848,3.876931,-6.494175
1790548210.8666,0.002992,-0.009563,-0.836539,0.001243,-0.007066,-0.836539,0.442276,-0.325118,-0.944752,-1.692424,2.612811,-10.258860
1790548210.8807,0.013382,-0.010478,-0.853559,0.009740,-0.009455,-0.853559,0.069535,-0.560662,-1.209435,0.262303,4.062831,-16.274595
1790548210.8947,0.014700,-0.007723,-0.869013,0.013212,-0.008242,-0.869013,-0.289852,0.084048,-1.327207,0.875551,1.534591,-13.247322
1790548210.9087,0.015237,-0.004722,-0.885632,0.014630,-0.005778,-0.885632,-0.270425,0.200605,-1.196079,-0.619240,1.608951,-9.366203
1790548210.9226,0.002232,-0.001622,-0.900033,0.005951,-0.002869,-0.900033,-0.276496,1.049291,-0.977534,0.837223,1.162791,-6.998721
1790548210.9366,-0.006473,0.001919,-0.908397,-0.002745,0.000483,-0.908397,-0.360272,0.767610,-0.845192,0.300631,0.493551,-9.016902
1790548210.9506,-0.015816,0.007181,-0.914861,-0.011895,0.005171,-0.914861,-0.490185,0.759111,-0.762631,1.143847,0.307651,-10.414105
1790548210.9642,-0.023290,0.011559,-0.920079,-0.019872,0.009642,-0.920079,-0.435549,0.606129,-0.690996,1.603783,0.270471,-10.685784
1790548210.9779,-0.024820,0.012655,-0.918043,-0.023336,0.011751,-0.918043,-0.229144,0.142327,-0.404459,1.182175,-0.435949,-12.898021
1790548210.9920,-0.019808,0.010357,-0.913250,-0.020867,0.010775,-0.913250,0.030682,-0.331189,-0.256333,0.377287,-0.175689,-12.199420
1790548211.0060,-0.011790,0.007777,-0.914391,-0.014513,0.008676,-0.914391,0.173951,-0.592229,-0.150703,0.415615,1.423051,-7.736133
1790548211.0201,-0.008031,0.002426,-0.921888,-0.009976,0.004301,-0.921888,0.443490,-0.399181,0.096982,1.335487,2.352551,-7.930189
1790548211.0343,-0.004289,-0.004424,-0.930096,-0.005995,-0.001807,-0.930096,0.613470,-0.402823,0.314313,0.913879,3.393591,-8.512357
1790548211.0482,-0.000211,-0.014240,-0.933696,-0.001946,-0.010510,-0.933696,0.835658,-0.508454,0.570497,1.527127,3.542311,-9.366203
1790548211.0622,-0.002628,-0.021908,-0.937479,-0.002423,-0.018489,-0.937479,0.728814,-0.072577,0.806041,1.795423,4.657711,-10.297672
1790548211.0760,-0.009050,-0.021738,-0.928578,-0.007062,-0.020763,-0.928578,0.048894,0.314735,1.010017,-0.619240,3.802571,-15.731238
1790548211.0899,-0.002687,-0.017670,-0.908198,-0.003999,-0.018598,-0.908198,-0.278924,-0.542450,1.235847,-2.918919,1.906391,-11.656063
1790548211.1042,-0.002441,-0.018944,-0.874253,-0.002908,-0.018840,-0.874253,-0.021526,-0.207346,1.380330,-0.734224,-0.361589,-6.959909
1790548211.1186,0.000232,-0.017961,-0.842513,-0.000710,-0.018225,-0.842513,-0.164795,-0.288694,1.268629,-1.385800,-0.212869,-6.067252
1790548211.1328,-0.004367,-0.016551,-0.822600,-0.003270,-0.017053,-0.822600,-0.152653,0.158110,1.048869,-0.274288,0.382011,-7.076343
1790548211.1466,-0.001532,-0.014163,-0.805361,-0.002053,-0.015030,-0.805361,-0.212146,-0.252270,0.779330,-1.615768,0.828171,-9.288581
1790548211.1605,0.000485,-0.011159,-0.792775,-0.000277,-0.012320,-0.792775,-0.276496,-0.218274,0.517075,-0.695896,0.753811,-12.082986
1790548211.1744,0.004789,-0.010552,-0.779814,0.003269,-0.011083,-0.779814,-0.164795,-0.356686,0.354380,-0.734224,-0.361589,-11.578441
1790548211.1884,0.011771,-0.011461,-0.768740,0.009221,-0.011347,-0.768740,-0.038524,-0.475672,0.174687,-1.347472,-0.026969,-10.142427
1790548211.2020,0.015926,-0.007664,-0.761600,0.013915,-0.008769,-0.761600,-0.367557,-0.248627,0.015635,-1.270816,0.344831,-9.327392
1790548211.2157,0.020267,-0.003833,-0.759171,0.018361,-0.005314,-0.759171,-0.345702,-0.271696,-0.138562,-0.657568,0.716631,-8.007811
1790548211.2297,0.023822,-0.001104,-0.765213,0.022184,-0.002367,-0.765213,-0.255856,-0.259554,-0.303685,0.377287,0.865351,-8.085434
1790548211.2435,0.018764,-0.003933,-0.773126,0.019790,-0.003463,-0.773126,0.084104,0.428864,-0.507661,0.300631,0.419191,-12.936833
1790548211.2575,0.012992,-0.004247,-0.796817,0.015031,-0.004012,-0.796817,0.181236,0.545422,-0.576867,-0.772552,5.029511,-9.482637
1790548211.2713,0.008563,-0.003355,-0.817690,0.010504,-0.003552,-0.817690,0.099888,0.513854,-0.643645,-1.385800,4.508991,-8.279490
1790548211.2853,0.003839,-0.005641,-0.835491,0.005838,-0.005014,-0.835491,0.309935,0.563634,-0.675212,-1.654096,4.100011,-8.124245
1790548211.2991,-0.001942,-0.009777,-0.853262,0.000392,-0.008348,-0.853262,0.462917,0.671693,-0.705566,-1.730752,3.802571,-7.153965
1790548211.3130,-0.002164,-0.011283,-0.871881,-0.001397,-0.010403,-0.871881,0.307506,0.212747,-0.767487,-1.155832,5.215411,-8.667602
1790548211.3269,0.000675,-0.014494,-0.884465,0.000053,-0.013267,-0.884465,0.199448,-0.041009,-0.947180,-0.235960,2.166651,-13.441378
1790548211.3408,0.004531,-0.010169,-0.901925,0.003188,-0.011099,-0.901925,-0.298351,-0.151496,-1.200936,1.642111,3.691031,-14.295224
1790548211.3547,0.005388,-0.007436,-0.916698,0.004728,-0.008534,-0.916698,-0.237643,0.060979,-1.111089,1.105519,1.832031,-10.685784
1790548211.3690,-0.002856,-0.002825,-0.933685,-0.000581,-0.004538,-0.933685,-0.326276,0.746969,-1.000602,0.185647,1.646131,-7.076343
1790548211.3832,-0.013522,0.004170,-0.944400,-0.009640,0.001558,-0.944400,-0.536322,0.830745,-0.731063,0.875551,1.088431,-7.425644
1790548211.3974,-0.027842,0.009506,-0.951256,-0.022381,0.007122,-0.951256,-0.470759,1.042006,-0.640002,1.833751,0.419191,-9.327392
1790548211.4114,-0.036979,0.015856,-0.957010,-0.032599,0.013236,-0.957010,-0.538751,0.767610,-0.618148,0.645583,0.642271,-11.229140
1790548211.4251,-0.040857,0.020624,-0.958019,-0.038380,0.018407,-0.958019,-0.461046,0.385155,-0.459095,0.223975,0.196111,-9.793126
1790548211.4387,-0.039309,0.021038,-0.955244,-0.039030,0.020249,-0.955244,-0.164795,-0.082290,-0.269689,0.568927,-0.101329,-10.064805
1790548211.4526,-0.034490,0.020374,-0.956341,-0.035852,0.020336,-0.956341,0.029468,-0.328761,-0.200483,0.377287,1.794851,-9.948371
1790548211.4665,-0.027724,0.017681,-0.960632,-0.030162,0.018477,-0.960632,0.233444,-0.538807,-0.096067,0.990535,2.501271,-8.939280
1790548211.4805,-0.021762,0.013814,-0.966317,-0.024282,0.015213,-0.966317,0.359714,-0.544878,0.079984,1.488799,3.319231,-9.443825
1790548211.4945,-0.013437,0.007424,-0.971088,-0.016691,0.009761,-0.971088,0.589187,-0.770708,0.310671,1.565455,4.062831,-9.482637
1790548211.5085,-0.008288,0.000161,-0.974410,-0.010809,0.003041,-0.974410,0.686319,-0.621369,0.521932,2.140375,4.137191,-8.589979
1790548211.5225,-0.004764,-0.007772,-0.976074,-0.006577,-0.004528,-0.976074,0.774951,-0.481742,0.711338,1.182175,4.174371,-7.658511
1790548211.5365,-0.012686,-0.016123,-0.969029,-0.010853,-0.012644,-0.969029,0.709387,0.309878,0.940811,1.757095,3.914111,-11.190329
1790548211.5505,-0.015815,-0.017786,-0.953539,-0.014326,-0.016243,-0.953539,0.136312,0.093761,1.226134,-2.190688,2.798711,-15.032637
1790548211.5644,-0.010991,-0.016194,-0.932639,-0.011991,-0.016208,-0.932639,-0.084662,-0.492670,1.524813,-2.995575,2.649991,-13.092077
1790548211.5783,-0.007333,-0.013865,-0.905417,-0.008730,-0.014568,-0.905417,-0.207290,-0.510882,1.536955,-0.504256,0.605091,-7.697322
1790548211.5923,-0.004955,-0.008039,-0.869219,-0.006087,-0.009998,-0.869219,-0.556963,-0.261983,1.334193,-2.037376,-0.659029,-7.270399
1790548211.6063,-0.001383,-0.003798,-0.849190,-0.002794,-0.005658,-0.849190,-0.367557,-0.328761,0.916528,-1.002520,0.270471,-5.213406
1790548211.6206,0.003874,0.000165,-0.834208,0.001874,-0.001582,-0.834208,-0.331132,-0.529094,0.670057,0.185647,0.753811,-10.685784
1790548211.6345,0.008912,0.003862,-0.818869,0.006800,0.002229,-0.818869,-0.377270,-0.433177,0.455154,-0.887536,-0.175689,-13.053266
1790548211.6485,0.011637,0.008949,-0.808535,0.010186,0.006933,-0.808535,-0.467116,-0.234057,0.246322,-0.657568,0.196111,-11.927742
1790548211.6622,0.020056,0.014955,-0.802343,0.017095,0.012548,-0.802343,-0.529038,-0.605585,-0.034145,-0.657568,0.567911,-9.599070
1790548211.6758,0.027140,0.020711,-0.800438,0.024127,0.018262,-0.800438,-0.525395,-0.487813,-0.252691,-0.274288,0.493551,-8.279490
1790548211.6897,0.029260,0.023694,-0.805294,0.027720,0.022064,-0.805294,-0.337203,-0.094431,-0.516160,0.377287,0.642271,-12.005364
1790548211.7037,0.030060,0.021103,-0.811460,0.029358,0.021391,-0.811460,0.153310,0.173894,-0.663071,-2.343999,2.575631,-11.539630
1790548211.7175,0.029544,0.022818,-0.829483,0.029488,0.022390,-0.829483,-0.021526,0.269812,-0.778414,-1.692424,4.657711,-9.560259
1790548211.7314,0.027182,0.021904,-0.849567,0.027874,0.022050,-0.849567,0.189735,0.451933,-0.841550,-2.152360,4.880791,-8.900469
1790548211.7454,0.021793,0.019122,-0.870763,0.023617,0.020000,-0.870763,0.333003,0.631626,-0.862190,-1.232488,4.583351,-8.163056
1790548211.7597,0.018764,0.012481,-0.890368,0.020220,0.014737,-0.890368,0.570975,0.507783,-0.930182,-1.769080,3.839751,-7.619700
1790548211.7750,0.013818,0.001991,-0.911144,0.015739,0.005815,-0.911144,0.804090,0.570919,-0.954465,-0.925864,3.467951,-6.688231
1790548211.7890,0.017290,-0.007533,-0.932327,0.016824,-0.003529,-0.932327,0.936432,0.076763,-1.078308,-1.960720,5.289771,-6.067252
1790548211.8031,0.019346,-0.009117,-0.948235,0.018589,-0.007440,-0.948235,0.105959,0.052480,-1.107447,-0.427600,2.761531,-10.957462
1790548211.8171,0.023192,-0.004997,-0.965439,0.021811,-0.005730,-0.965439,-0.371199,-0.058007,-1.364845,0.108991,2.687171,-16.973196
1790548211.8310,0.018234,-0.002747,-0.980499,0.019307,-0.003642,-0.980499,-0.247357,0.511426,-1.312637,1.220503,1.534591,-10.103616
1790548211.8449,0.008221,0.001607,-0.996606,0.011547,0.000033,-0.996606,-0.342060,0.887810,-1.130516,0.415615,1.348691,-5.950818
1790548211.8590,0.000534,0.005308,-1.005255,0.003838,0.003725,-1.005255,-0.403981,0.661979,-0.928968,0.837223,0.084571,-8.201867
1790548211.8734,-0.008581,0.007618,-1.014297,-0.004855,0.006450,-1.014297,-0.298351,0.754254,-0.879188,0.913879,-0.026969,-9.560259
1790548211.8871,-0.014047,0.011533,-1.020774,-0.011290,0.010008,-1.020774,-0.418551,0.494428,-0.751703,1.105519,0.084571,-11.306763
1790548211.9009,-0.016485,0.016927,-1.023861,-0.014926,0.014852,-1.023861,-0.522967,0.216389,-0.534372,1.258831,0.010211,-10.957462
1790548211.9149,-0.013610,0.018956,-1.021281,-0.014005,0.017724,-1.021281,-0.286209,-0.223130,-0.208982,1.028863,-0.287229,-11.850119
1790548211.9289,-0.009418,0.017460,-1.022797,-0.010794,0.017540,-1.022797,0.149668,-0.380969,0.031418,0.798895,2.241011,-7.930189
1790548211.9428,-0.006080,0.013608,-1.024038,-0.007494,0.014788,-1.024038,0.380355,-0.450175,0.355594,1.603783,2.873071,-7.658511
1790548211.9567,-0.006220,0.005799,-1.026572,-0.006602,0.008496,-1.026572,0.730028,-0.230415,0.557142,1.795423,4.025651,-8.279490
1790548211.9707,-0.005837,-0.004881,-1.026894,-0.006067,-0.000868,-1.026894,0.960715,-0.258340,0.741691,1.258831,4.508991,-8.512357
1790548211.9847,-0.009792,-0.015140,-1.018610,-0.008674,-0.010858,-1.018610,0.863583,0.012413,0.955380,1.718767,3.914111,-10.336483
1790548211.9986,-0.014842,-0.015827,-1.007105,-0.012992,-0.014337,-1.007105,0.101102,0.179965,1.101078,-0.312616,3.765391,-15.498371
1790548212.0125,-0.010477,-0.016775,-0.988810,-0.011231,-0.016043,-0.988810,0.057393,-0.434391,1.283199,-2.037376,1.385871,-10.336483
1790548212.0266,-0.007535,-0.019785,-0.964916,-0.008644,-0.018662,-0.964916,0.155739,-0.368827,1.345120,-0.925864,0.270471,-6.261308
1790548212.0406,-0.011891,-0.024263,-0.937378,-0.010917,-0.022583,-0.937378,0.234658,0.005129,1.312338,0.760567,0.010211,-5.950818
1790548212.0545,-0.012886,-0.026645,-0.917299,-0.012295,-0.025426,-0.917299,0.086533,0.042767,1.047655,-1.845736,0.047391,-7.270399
1790548212.0685,-0.007016,-0.027055,-0.900773,-0.008600,-0.026566,-0.900773,-0.059165,-0.393110,0.736835,-3.263871,-0.026969,-11.733686
1790548212.0825,-0.010247,-0.028280,-0.889042,-0.009753,-0.027766,-0.889042,-0.032453,0.155682,0.440584,-0.044320,-0.547489,-12.471098
1790548212.0964,-0.010703,-0.031065,-0.880635,-0.010418,-0.030075,-0.880635,0.103531,0.048838,0.251178,-1.002520,-0.026969,-9.637881
1790548212.1105,-0.008630,-0.032227,-0.876669,-0.009166,-0.031582,-0.876669,0.031896,-0.116286,0.059344,-0.849208,0.753811,-10.181238
1790548212.1247,-0.007367,-0.031528,-0.875979,-0.007907,-0.031544,-0.875979,-0.134441,-0.053150,-0.185913,-0.274288,0.233291,-10.025993
1790548212.1384,-0.005690,-0.031948,-0.877890,-0.006355,-0.031827,-0.877890,-0.026383,-0.078647,-0.289115,-0.120976,0.642271,-8.589979
1790548212.1525,-0.003563,-0.031470,-0.882127,-0.004400,-0.031577,-0.882127,-0.083447,-0.128427,-0.361964,0.338959,0.865351,-9.793126
1790548212.1663,-0.002075,-0.029723,-0.888567,-0.002773,-0.030279,-0.888567,-0.153868,-0.088360,-0.416600,0.530599,1.237151,-9.599070
1790548212.1805,-0.001398,-0.026952,-0.897082,-0.001810,-0.027951,-0.897082,-0.247357,-0.033724,-0.529515,0.837223,0.828171,-8.589979
1790548212.1946,-0.006400,-0.029097,-0.906499,-0.005023,-0.028753,-0.906499,0.108387,0.508998,-0.750489,-0.695896,1.348691,-11.462007
1790548212.2085,-0.010334,-0.032807,-0.923873,-0.008741,-0.031591,-0.923873,0.365785,0.381513,-0.687354,0.070663,2.835891,-8.085434
1790548212.2225,-0.007010,-0.031676,-0.933868,-0.007529,-0.031650,-0.933868,-0.034882,-0.075005,-0.633932,-1.270816,2.538451,-9.948371
1790548212.2365,-0.006020,-0.031358,-0.951023,-0.006473,-0.031445,-0.951023,0.052537,0.011199,-0.818481,0.683911,3.393591,-10.802217
1790548212.2504,0.000395,-0.029647,-0.967080,-0.001665,-0.030187,-0.967080,-0.110159,-0.230415,-1.136586,-1.347472,2.612811,-11.772497
1790548212.2644,-0.002263,-0.026946,-0.987055,-0.002084,-0.027918,-0.987055,-0.218217,0.291666,-1.253144,1.565455,1.720491,-10.025993
1790548212.2784,0.004972,-0.020750,-1.009015,0.002855,-0.022901,-1.009015,-0.352987,-0.246199,-1.215506,-1.194160,2.835891,-7.425644
1790548212.2924,-0.006695,-0.018273,-1.023917,-0.003830,-0.019661,-1.023917,-0.258284,0.927877,-1.072237,1.450471,0.790991,-9.210958
1790548212.3063,-0.012877,-0.017516,-1.037129,-0.010163,-0.018160,-1.037129,-0.151439,0.652266,-1.151156,-0.120976,0.456371,-10.530539
1790548212.3205,-0.020552,-0.012953,-1.054557,-0.017435,-0.014515,-1.054557,-0.374841,0.675335,-1.208221,1.565455,1.125611,-10.491728
1790548212.3349,-0.024479,-0.007436,-1.065607,-0.022366,-0.009560,-1.065607,-0.504755,0.438577,-1.129301,0.798895,-0.175689,-9.987182
1790548212.3485,-0.026782,-0.003081,-1.074253,-0.025457,-0.005025,-1.074253,-0.440405,0.305022,-0.987247,0.798895,-0.064149,-8.900469
1790548212.3623,-0.027539,0.001258,-1.081550,-0.026915,-0.000627,-1.081550,-0.397910,0.209104,-0.843978,0.185647,0.456371,-8.861658
1790548212.3772,-0.022373,-0.000854,-1.089897,-0.023736,-0.000786,-1.089897,0.109601,-0.331189,-0.545299,1.642111,1.497411,-11.423196
1790548212.3913,-0.017246,-0.001714,-1.102928,-0.019193,-0.001435,-1.102928,0.158167,-0.401609,-0.251477,1.335487,3.728211,-10.414105
1790548212.4053,-0.013431,-0.004356,-1.116041,-0.015160,-0.003480,-1.116041,0.346359,-0.390682,0.094554,1.642111,4.732071,-10.142427
1790548212.4193,-0.009676,-0.009597,-1.124297,-0.011321,-0.007762,-1.124297,0.552763,-0.423464,0.353166,1.220503,4.323091,-8.861658
1790548212.4333,-0.006936,-0.016935,-1.128602,-0.008251,-0.014183,-1.128602,0.711816,-0.390682,0.514647,1.258831,3.728211,-7.503266
1790548212.4471,-0.007239,-0.024233,-1.123737,-0.007543,-0.021218,-1.123737,0.617113,-0.167280,0.697982,1.220503,3.542311,-11.927742
1790548212.4611,-0.011398,-0.021520,-1.114682,-0.010241,-0.021429,-1.114682,-0.163581,0.201820,0.837609,-1.270816,3.207691,-15.808861
1790548212.4750,-0.003202,-0.019716,-1.091352,-0.005314,-0.020230,-1.091352,-0.166009,-0.705145,1.172712,-2.458983,1.162791,-14.101168
1790548212.4889,0.003263,-0.015338,-1.070035,0.000690,-0.016806,-1.070035,-0.280138,-0.643223,1.424039,-0.964192,1.088431,-6.106063
1790548212.5029,0.007382,-0.011958,-1.041012,0.005374,-0.013413,-1.041012,-0.297136,-0.497526,1.393686,-0.925864,0.196111,-8.046623
1790548212.5169,0.008613,-0.009626,-1.007874,0.007641,-0.010762,-1.007874,-0.282567,-0.202490,1.280771,-1.385800,-0.435949,-5.989630
1790548212.5309,0.008678,-0.005448,-0.987159,0.008367,-0.007042,-0.987159,-0.343274,-0.197633,1.076795,-0.389272,0.530731,-9.210958
1790548212.5448,0.016406,-0.003258,-0.962344,0.013995,-0.004393,-0.962344,-0.271639,-0.625011,0.849750,-2.803935,-0.733389,-13.790679
1790548212.5587,0.020213,0.003701,-0.944533,0.018347,0.001273,-0.944533,-0.590959,-0.373684,0.685841,-1.194160,-0.101329,-12.082986
1790548212.5724,0.028436,0.010323,-0.928782,0.025409,0.007608,-0.928782,-0.600672,-0.598300,0.388376,-2.037376,-0.250049,-10.336483
1790548212.5862,0.037651,0.019068,-0.922803,0.033978,0.015630,-0.922803,-0.686876,-0.714858,0.127336,-0.389272,0.790991,-8.085434
1790548212.6003,0.042459,0.025361,-0.924564,0.039915,0.022441,-0.924564,-0.535108,-0.371256,-0.167701,0.262303,0.642271,-8.473546
1790548212.6146,0.043156,0.025798,-0.928208,0.042183,0.024791,-0.928208,-0.089518,0.090118,-0.471236,-1.654096,2.278191,-13.053266
1790548212.6294,0.041376,0.027690,-0.945920,0.041618,0.026820,-0.945920,-0.031239,0.329304,-0.680069,-1.922392,5.289771,-10.336483
1790548212.6436,0.038635,0.027258,-0.964816,0.039530,0.027126,-0.964816,0.154524,0.462860,-0.754132,-2.305671,5.029511,-8.745224
1790548212.6577,0.037798,0.026633,-0.985058,0.038317,0.026781,-0.985058,0.205518,0.352373,-0.794198,-2.382327,5.141051,-7.658511
1790548212.6719,0.029554,0.021786,-1.002641,0.032183,0.023284,-1.002641,0.434991,0.766396,-0.745633,-0.542584,3.579491,-7.348021
1790548212.6859,0.025127,0.013757,-1.018782,0.027244,0.016615,-1.018782,0.676606,0.561206,-0.766273,-1.424128,3.579491,-7.348021
1790548212.6999,0.019777,0.004049,-1.035397,0.022017,0.007819,-1.035397,0.869654,0.570919,-0.715279,-0.772552,4.025651,-6.455364
1790548212.7142,0.022913,-0.002075,-1.048956,0.022644,0.000893,-1.048956,0.596472,-0.087146,-0.749275,-0.389272,6.330810,-10.879840
1790548212.7282,0.025618,-0.000775,-1.063271,0.024726,-0.000274,-1.063271,-0.147797,-0.011869,-1.096520,-0.120976,3.393591,-18.253966
1790548212.7423,0.025605,0.004195,-1.076392,0.025342,0.002855,-1.076392,-0.399124,0.111973,-1.165726,1.642111,2.538451,-11.423196
1790548212.7563,0.023985,0.006922,-1.091083,0.024392,0.005702,-1.091083,-0.305635,0.392440,-0.972677,-1.577440,0.828171,-8.745224
1790548212.7705,0.007212,0.011736,-1.100823,0.012366,0.009926,-1.100823,-0.397910,1.225341,-0.714065,1.028863,1.014071,-6.106063
1790548212.7846,-0.002500,0.013442,-1.104047,0.001959,0.012387,-1.104047,-0.264355,0.723901,-0.529515,1.067191,-0.026969,-8.240679
1790548212.7986,-0.012784,0.016234,-1.108663,-0.008361,0.015080,-1.108663,-0.318991,0.770038,-0.534372,1.412143,0.270471,-10.491728
1790548212.8124,-0.013808,0.017900,-1.108615,-0.012174,0.017054,-1.108615,-0.278924,0.135042,-0.387461,0.338959,-0.473129,-12.082986
1790548212.8261,-0.012441,0.020027,-1.107123,-0.012361,0.019135,-1.107123,-0.265569,-0.175779,-0.151917,1.872079,0.382011,-11.694875
1790548212.8402,-0.009441,0.019357,-1.106075,-0.010317,0.019290,-1.106075,0.003971,-0.275338,-0.054786,1.028863,1.385871,-9.987182
1790548212.8556,-0.003028,0.015631,-1.103534,-0.005215,0.016729,-1.103534,0.272296,-0.469601,0.173473,-0.082648,1.794851,-7.037532
1790548212.8716,0.000257,0.009492,-1.106267,-0.001384,0.011663,-1.106267,0.521195,-0.331189,0.383520,0.453943,3.393591,-7.270399
1790548212.8862,0.003653,-0.001913,-1.104389,0.002142,0.002160,-1.104389,0.918220,-0.406466,0.591138,0.722239,4.211551,-10.064805
1790548212.9009,0.005220,-0.015761,-1.097955,0.004296,-0.010385,-1.097955,1.103984,-0.356686,0.895888,1.258831,4.174371,-9.987182
1790548212.9165,-0.001502,-0.013969,-1.085616,0.000238,-0.012894,-1.085616,-0.062807,0.313521,1.036728,-2.075704,3.579491,-15.537182
1790548212.9305,0.006330,-0.011454,-1.067777,0.004502,-0.011886,-1.067777,-0.141726,-0.680862,1.264987,-3.110559,2.612811,-14.062357
1790548212.9443,0.005466,-0.013978,-1.041888,0.005177,-0.013350,-1.041888,0.095032,-0.145425,1.385187,-0.580912,-0.175689,-6.106063
1790548212.9583,-0.000104,-0.013480,-1.018643,0.001480,-0.013441,-1.018643,-0.113801,0.216389,1.323266,-0.695896,-0.026969,-6.532986
1790548212.9722,-0.001655,-0.015743,-1.000148,-0.000715,-0.015052,-1.000148,0.122957,0.024555,1.122932,-1.654096,0.567911,-8.124245
1790548212.9862,0.001944,-0.014887,-0.985503,0.001146,-0.014937,-0.985503,-0.105302,-0.263197,0.789043,-2.727279,0.753811,-10.646972
1790548213.0002,0.000790,-0.014911,-0.975305,0.000897,-0.014919,-0.975305,-0.116229,-0.013084,0.508576,-0.159304,-0.473129,-12.315854
1790548213.0140,0.001781,-0.017276,-0.966269,0.001516,-0.016569,-0.966269,0.044038,-0.111429,0.375021,-0.810880,-0.584669,-11.966553
1790548213.0281,0.005202,-0.018526,-0.960118,0.004096,-0.017939,-0.960118,0.012470,-0.268053,0.226895,-0.657568,0.382011,-11.151518
1790548213.0416,0.005349,-0.017613,-0.959048,0.004973,-0.017711,-0.959048,-0.145369,-0.033724,0.014420,0.032335,0.456371,-9.443825
1790548213.0552,0.007675,-0.017442,-0.959187,0.006864,-0.017523,-0.959187,-0.099231,-0.138140,-0.170129,-0.350944,0.382011,-9.133336
1790548213.0691,0.008799,-0.017223,-0.965108,0.008218,-0.017313,-0.965108,-0.071306,-0.094431,-0.296400,0.722239,0.976891,-10.142427
1790548213.0831,0.008720,-0.014933,-0.971206,0.008569,-0.015647,-0.971206,-0.223074,0.042767,-0.403245,0.223975,0.976891,-9.676693
1790548213.0971,0.004657,-0.017782,-0.979402,0.005831,-0.017141,-0.979402,0.142383,0.373014,-0.550156,0.032335,1.237151,-12.005364
1790548213.1110,0.000350,-0.019708,-0.987659,0.001995,-0.018938,-0.987659,0.164238,0.466503,-0.584152,-0.964192,2.166651,-8.784035
1790548213.1255,-0.004587,-0.019923,-1.002585,-0.002612,-0.019628,-1.002585,0.175165,0.465288,-0.529515,-0.619240,4.100011,-8.124245
1790548213.1402,-0.004746,-0.023743,-1.014166,-0.004106,-0.022508,-1.014166,0.385211,0.215175,-0.630289,-1.807408,3.839751,-8.861658
1790548213.1544,-0.004491,-0.025677,-1.026466,-0.004376,-0.024726,-1.026466,0.184878,0.092547,-0.731063,-0.005993,3.244871,-11.772497
1790548213.1684,-0.002920,-0.023020,-1.043608,-0.003356,-0.023532,-1.043608,-0.140512,0.082834,-1.109875,-0.465928,3.467951,-11.888930
1790548213.1825,-0.002571,-0.019371,-1.062259,-0.002807,-0.020619,-1.062259,-0.288637,0.108331,-1.233718,1.182175,1.832031,-10.957462
1790548213.1966,-0.000190,-0.010868,-1.084517,-0.000975,-0.013794,-1.084517,-0.535108,-0.022797,-1.302924,0.760567,2.278191,-6.455364
1790548213.2106,-0.004850,-0.002942,-1.104788,-0.003687,-0.006197,-1.104788,-0.474401,0.475002,-1.069809,0.607255,2.761531,-6.959909
1790548213.2245,-0.015362,-0.001015,-1.118161,-0.011860,-0.002570,-1.118161,-0.235215,0.964301,-1.016386,-0.082648,0.605091,-10.336483
1790548213.2385,-0.023059,0.001914,-1.132050,-0.019699,0.000569,-1.132050,-0.284995,0.682620,-1.040669,1.450471,0.865351,-11.267951
1790548213.2524,-0.025800,0.007002,-1.141194,-0.023970,0.005072,-1.141194,-0.514468,0.353587,-1.007887,0.990535,-0.547489,-12.238231
1790548213.2660,-0.031383,0.011524,-1.151032,-0.029159,0.009588,-1.151032,-0.469545,0.426436,-0.816053,2.485326,-0.287229,-9.327392
1790548213.2796,-0.031043,0.014959,-1.153513,-0.030478,0.013348,-1.153513,-0.378484,0.120472,-0.646073,-0.082648,0.010211,-10.181238
1790548213.2937,-0.025270,0.012052,-1.154314,-0.026832,0.012441,-1.154314,0.081676,-0.344544,-0.476093,0.530599,-0.064149,-11.850119
1790548213.3079,-0.020617,0.009223,-1.161153,-0.022481,0.010188,-1.161153,0.224945,-0.379755,-0.184699,1.373815,2.464091,-10.064805
1790548213.3218,-0.017287,0.006749,-1.174000,-0.018846,0.007781,-1.174000,0.316005,-0.410108,0.100624,2.485326,4.397451,-9.948371
1790548213.3357,-0.012796,0.001823,-1.179515,-0.014611,0.003611,-1.179515,0.492056,-0.481742,0.319170,1.450471,4.360271,-10.220049
1790548213.3497,-0.010623,-0.004156,-1.184637,-0.011820,-0.001826,-1.184637,0.619541,-0.389468,0.536501,1.718767,4.025651,-7.542077
1790548213.3636,-0.015003,-0.009864,-1.185381,-0.014048,-0.007453,-1.185381,0.586759,0.101046,0.725908,1.297159,4.285911,-8.900469
1790548213.3776,-0.019452,-0.010829,-1.177127,-0.017831,-0.009816,-1.177127,0.126599,0.155682,0.909243,-0.044320,3.876931,-14.411658
1790548213.3923,-0.013712,-0.007824,-1.155263,-0.014948,-0.008422,-1.155263,-0.206076,-0.509668,1.238276,-2.650623,2.129471,-12.509909
1790548213.4068,-0.014132,-0.007051,-1.123250,-0.014376,-0.007462,-1.123250,-0.175722,-0.219488,1.326908,-0.044320,-0.324409,-9.055714
1790548213.4208,-0.007272,-0.003142,-1.101583,-0.009404,-0.004438,-1.101583,-0.312920,-0.714858,1.156928,-0.082648,0.567911,-5.252217
1790548213.4350,-0.004978,0.001224,-1.090010,-0.006306,-0.000475,-1.090010,-0.258284,-0.402823,0.956595,0.530599,1.832031,-7.386832
1790548213.4493,-0.006185,0.006962,-1.079507,-0.006221,0.004731,-1.079507,-0.410052,-0.113857,0.648203,1.028863,1.646131,-9.948371
1790548213.4633,0.001707,0.009061,-1.060298,-0.000672,0.007762,-1.060298,-0.255856,-0.578874,0.434514,-1.960720,0.196111,-12.238231
1790548213.4772,0.006959,0.013030,-1.044781,0.004670,0.011450,-1.044781,-0.384555,-0.406466,0.355594,-1.385800,0.344831,-12.781588
1790548213.4913,0.011199,0.018268,-1.033217,0.009240,0.016223,-1.033217,-0.502326,-0.332403,0.105481,-0.274288,-0.138509,-11.656063
1790548213.5052,0.019121,0.021705,-1.023244,0.016157,0.020060,-1.023244,-0.396696,-0.542450,-0.102137,-0.504256,-0.175689,-7.348021
1790548213.5190,0.024103,0.026416,-1.027766,0.021719,0.024510,-1.027766,-0.406409,-0.412536,-0.275760,0.837223,0.865351,-7.076343
1790548213.5331,0.021733,0.025641,-1.030900,0.021729,0.025302,-1.030900,-0.078591,0.221246,-0.471236,0.492271,0.382011,-10.258860
1790548213.5471,0.017502,0.022423,-1.043624,0.018770,0.023286,-1.043624,0.275939,0.478644,-0.572010,-1.385800,3.914111,-11.306763
1790548213.5612,0.014060,0.024577,-1.064493,0.015473,0.024190,-1.064493,-0.009385,0.532066,-0.731063,-2.612295,5.178231,-9.249770
1790548213.5755,0.010328,0.022922,-1.084682,0.011872,0.023302,-1.084682,0.224945,0.472573,-0.762631,-1.117504,4.694891,-9.870749
1790548213.5895,0.006749,0.020181,-1.108237,0.008285,0.021117,-1.108237,0.369428,0.525995,-0.858548,-1.309144,4.211551,-6.882287
1790548213.6034,0.004279,0.014657,-1.128328,0.005481,0.016595,-1.128328,0.541836,0.437363,-0.852477,-1.194160,3.691031,-6.959909
1790548213.6172,0.003007,0.005197,-1.147882,0.003749,0.008616,-1.147882,0.839301,0.370585,-0.904685,-1.385800,3.728211,-6.921098
1790548213.6313,0.011014,0.001353,-1.162281,0.008835,0.003532,-1.162281,0.335432,-0.447746,-0.950823,0.760567,4.657711,-13.286133
1790548213.6460,0.017043,0.005248,-1.178148,0.014581,0.004733,-1.178148,-0.294708,-0.249841,-1.227647,1.412143,3.616671,-16.119350
1790548213.6600,0.015608,0.007482,-1.193518,0.015300,0.006657,-1.193518,-0.207290,0.258884,-1.225219,1.067191,2.017931,-9.754315
1790548213.6739,0.010392,0.012666,-1.210242,0.011864,0.010864,-1.210242,-0.396696,0.592773,-1.038241,-0.197632,1.460231,-6.183686
1790548213.6885,-0.001705,0.016601,-1.215193,0.002366,0.014880,-1.215193,-0.385769,0.908450,-0.788128,1.143847,0.456371,-7.348021
1790548213.7030,-0.009492,0.021712,-1.220880,-0.005935,0.019662,-1.220880,-0.462260,0.670478,-0.762631,0.645583,0.679451,-11.345574
1790548213.7173,-0.018311,0.025690,-1.223959,-0.014598,0.023882,-1.223959,-0.397910,0.695975,-0.684925,1.527127,0.382011,-11.384385
1790548213.7311,-0.025258,0.031050,-1.226636,-0.022060,0.028899,-1.226636,-0.481686,0.575775,-0.538014,0.952207,0.753811,-9.754315
1790548213.7449,-0.025635,0.032063,-1.218305,-0.024563,0.031114,-1.218305,-0.254641,0.088904,-0.242978,-0.044320,-0.659029,-10.375294
1790548213.7591,-0.020342,0.031239,-1.215188,-0.021608,0.031202,-1.215188,-0.000886,-0.383397,-0.111850,0.415615,1.199971,-9.405014
1790548213.7732,-0.015053,0.027640,-1.214321,-0.017019,0.028708,-1.214321,0.262583,-0.457460,0.078770,0.722239,2.017931,-8.745224
1790548213.7872,-0.011061,0.022979,-1.222459,-0.012849,0.024698,-1.222459,0.485985,-0.442890,0.338596,1.105519,4.248731,-8.822846
1790548213.8016,-0.005601,0.015341,-1.225012,-0.007776,0.018148,-1.225012,0.685105,-0.605585,0.571712,1.450471,4.360271,-9.443825
1790548213.8156,-0.001360,0.006716,-1.225599,-0.003285,0.010146,-1.225599,0.800448,-0.567947,0.780544,1.450471,4.434631,-8.745224
1790548213.8296,-0.001688,-0.004736,-1.223584,-0.002167,-0.000272,-1.223584,1.017779,-0.234057,0.962665,0.952207,4.248731,-8.589979
1790548213.8436,-0.014494,-0.010110,-1.215933,-0.010796,-0.007159,-1.215933,0.484771,0.694761,1.160570,0.262303,4.062831,-12.393476
1790548213.8576,-0.012458,-0.009390,-1.202062,-0.011960,-0.008721,-1.202062,0.019755,-0.277767,1.366975,-2.343999,3.058971,-10.918651
1790548213.8719,-0.011471,-0.009483,-1.181509,-0.011618,-0.009254,-1.181509,0.047680,-0.321476,1.580664,-0.695896,2.017931,-9.133336
1790548213.8861,-0.013799,-0.008828,-1.147952,-0.013145,-0.008956,-1.147952,-0.161152,-0.096859,1.459249,-0.197632,-0.212869,-9.055714
1790548213.9006,-0.013089,-0.006321,-1.124550,-0.013106,-0.007111,-1.124550,-0.253427,-0.122356,1.036728,-1.155832,0.196111,-5.329839
1790548213.9146,-0.002914,-0.005475,-1.111847,-0.005972,-0.005966,-1.111847,-0.042167,-0.773137,0.779330,-1.539112,1.460231,-7.464455
1790548213.9286,0.000293,-0.004743,-1.095902,-0.001586,-0.005110,-1.095902,-0.121086,-0.391896,0.617849,0.568927,0.679451,-12.703965
1790548213.9426,0.002383,-0.002756,-1.077857,0.001192,-0.003462,-1.077857,-0.281353,-0.168494,0.432085,-1.692424,-0.696209,-12.936833
1790548213.9562,0.007959,-0.000951,-1.065488,0.005929,-0.001704,-1.065488,-0.235215,-0.360328,0.249964,-2.075704,0.158931,-10.452916
1790548213.9698,0.011942,0.000611,-1.056722,0.010138,-0.000084,-1.056722,-0.261926,-0.268053,-0.019576,-0.657568,-0.398769,-9.172147
1790548213.9839,0.015605,0.001025,-1.055014,0.013965,0.000693,-1.055014,-0.128371,-0.255912,-0.208982,0.108991,0.344831,-8.434735
1790548213.9977,0.014656,-0.001465,-1.057727,0.014449,-0.000818,-1.057727,0.074391,0.128971,-0.440883,0.070663,0.567911,-11.694875
1790548214.0116,0.010743,-0.007327,-1.064495,0.011855,-0.005374,-1.064495,0.394925,0.438577,-0.541657,-1.577440,2.426911,-13.519000
1790548214.0256,0.009172,-0.007343,-1.080924,0.009977,-0.006752,-1.080924,0.131456,0.341446,-0.621790,-2.114032,4.062831,-8.667602
1790548214.0396,0.002463,-0.012174,-1.096174,0.004717,-0.010547,-1.096174,0.437420,0.652266,-0.633932,-1.155832,3.876931,-10.181238
1790548214.0535,-0.003260,-0.017731,-1.115691,-0.000867,-0.015576,-1.115691,0.538193,0.544208,-0.749275,-0.120976,3.728211,-8.046623
1790548214.0676,-0.002696,-0.024264,-1.130206,-0.002147,-0.021657,-1.130206,0.540622,0.137470,-0.755346,-1.194160,3.653851,-11.229140
1790548214.0816,0.001261,-0.026536,-1.146206,0.000238,-0.025072,-1.146206,0.218874,-0.152710,-0.959322,0.262303,4.211551,-14.062357
1790548214.0955,0.005024,-0.024469,-1.163870,0.003588,-0.024650,-1.163870,-0.178150,-0.100502,-1.310209,0.568927,2.166651,-12.354665
1790548214.1095,-0.000351,-0.020940,-1.182147,0.000831,-0.022053,-1.182147,-0.280138,0.443434,-1.366059,2.255358,1.534591,-7.969000
1790548214.1234,0.005435,-0.012981,-1.205505,0.004054,-0.015702,-1.205505,-0.468330,-0.155138,-1.200936,-0.849208,2.761531,-6.688231
1790548214.1376,-0.005643,-0.011423,-1.217076,-0.002734,-0.012707,-1.217076,-0.196363,0.907236,-0.995746,1.028863,0.902531,-10.685784
1790548214.1521,-0.012097,-0.009982,-1.229393,-0.009288,-0.010799,-1.229393,-0.155082,0.580632,-0.965392,0.645583,1.125611,-9.870749
1790548214.1664,-0.017070,-0.004609,-1.236012,-0.014735,-0.006466,-1.236012,-0.476829,0.425222,-0.863404,1.642111,0.419191,-11.423196
1790548214.1804,-0.021572,-0.000360,-1.238970,-0.019521,-0.002192,-1.238970,-0.428264,0.365729,-0.718921,1.642111,-0.064149,-10.220049
1790548214.1941,-0.023205,0.003575,-1.239405,-0.022100,0.001845,-1.239405,-0.399124,0.188464,-0.495519,0.453943,0.196111,-9.482637
1790548214.2077,-0.021622,0.005659,-1.237650,-0.021765,0.004515,-1.237650,-0.254641,-0.041009,-0.335253,-0.159304,0.344831,-9.016902
1790548214.2216,-0.018947,0.003254,-1.233596,-0.019792,0.003632,-1.233596,0.091389,-0.183063,-0.087568,0.032335,0.679451,-10.530539
1790548214.2356,-0.012377,-0.003730,-1.229514,-0.014602,-0.001521,-1.229514,0.479915,-0.553377,0.161332,0.683911,1.720491,-11.229140
1790548214.2496,-0.005454,-0.009088,-1.234258,-0.008199,-0.006818,-1.234258,0.515125,-0.634724,0.356808,0.875551,3.765391,-9.482637
1790548214.2635,0.000233,-0.015515,-1.234727,-0.002296,-0.012906,-1.234727,0.584331,-0.586159,0.541358,0.952207,3.356411,-9.288581
1790548214.2774,0.004405,-0.025655,-1.239780,0.002395,-0.021831,-1.239780,0.955858,-0.428320,0.714980,-0.197632,4.285911,-8.007811
1790548214.2914,-0.008308,-0.024677,-1.236721,-0.005097,-0.023823,-1.236721,0.090175,0.623127,0.908029,2.408670,3.988471,-9.443825
1790548214.3053,-0.006737,-0.020464,-1.220872,-0.006245,-0.021471,-1.220872,-0.292280,-0.218274,1.120504,-2.190688,2.166651,-13.674245
1790548214.3193,-0.002880,-0.018516,-1.199347,-0.003889,-0.019403,-1.199347,-0.135655,-0.452603,1.393686,-0.925864,0.939711,-6.882287
1790548214.3332,-0.000618,-0.014735,-1.175423,-0.001599,-0.016135,-1.175423,-0.287423,-0.394324,1.451965,-0.542584,0.828171,-8.007811
1790548214.3470,-0.004190,-0.012706,-1.151044,-0.003413,-0.013735,-1.151044,-0.229144,0.068264,1.227348,-0.389272,0.047391,-6.183686
1790548214.3609,-0.002227,-0.009011,-1.135389,-0.002583,-0.010428,-1.135389,-0.254641,-0.235272,1.023372,-1.385800,1.311511,-7.774944
1790548214.3748,0.001002,-0.005366,-1.120473,-0.000074,-0.006884,-1.120473,-0.300779,-0.351829,0.772045,-0.772552,1.051251,-10.763406
1790548214.3888,0.007324,-0.001962,-1.104825,0.005105,-0.003439,-1.104825,-0.346916,-0.495098,0.496435,-1.539112,-0.064149,-12.277042
1790548214.4033,0.013657,0.000602,-1.092283,0.011092,-0.000610,-1.092283,-0.280138,-0.475672,0.316742,-0.925864,-0.064149,-10.957462
1790548214.4170,0.020977,0.007581,-1.084439,0.018011,0.005124,-1.084439,-0.589745,-0.529094,0.111552,-1.079176,0.605091,-10.530539
1790548214.4306,0.026037,0.013357,-1.081660,0.023630,0.010887,-1.081660,-0.516896,-0.402823,-0.077854,0.147319,0.493551,-9.094525
1790548214.4446,0.028249,0.015370,-1.084044,0.026863,0.014025,-1.084044,-0.263140,-0.156352,-0.343752,0.607255,0.382011,-10.530539
1790548214.4585,0.027573,0.014231,-1.090733,0.027360,0.014169,-1.090733,0.063464,0.138684,-0.437240,-0.580912,2.575631,-11.927742
1790548214.4724,0.022922,0.016412,-1.109030,0.024254,0.015739,-1.109030,-0.040952,0.515068,-0.616934,-1.385800,4.955151,-10.220049
1790548214.4863,0.018873,0.016663,-1.128778,0.020487,0.016386,-1.128778,0.115672,0.572133,-0.749275,-2.305671,4.620531,-8.589979
1790548214.5001,0.015794,0.014989,-1.149825,0.017202,0.015408,-1.149825,0.285652,0.493214,-0.806340,-1.692424,4.397451,-7.309210
1790548214.5143,0.011288,0.009392,-1.168805,0.013062,0.011197,-1.168805,0.510268,0.563634,-0.846406,-1.117504,3.430771,-7.037532
1790548214.5283,0.008839,0.000810,-1.186667,0.010106,0.003926,-1.186667,0.728814,0.462860,-0.850049,-1.769080,3.356411,-7.115154
1790548214.5423,0.009398,-0.011145,-1.202526,0.009611,-0.006624,-1.202526,0.917006,0.201820,-0.898614,-1.577440,3.319231,-9.715504
1790548214.5563,0.018882,-0.015901,-1.215331,0.016101,-0.013118,-1.215331,0.350001,-0.506025,-0.936253,-1.040848,3.765391,-15.187882
1790548214.5703,0.024601,-0.012742,-1.231865,0.022051,-0.012855,-1.231865,-0.274068,-0.236486,-1.344205,1.067191,3.728211,-19.030189
1790548214.5844,0.021788,-0.008861,-1.246009,0.021867,-0.010059,-1.246009,-0.334775,0.325662,-1.143871,0.760567,1.423051,-7.891378
1790548214.5984,0.013252,-0.005018,-1.256375,0.015836,-0.006530,-1.256375,-0.408837,0.745755,-0.927754,0.300631,0.270471,-6.959909
1790548214.6123,0.002054,-0.002205,-1.264760,0.006189,-0.003503,-1.264760,-0.299565,0.880525,-0.737134,0.760567,0.567911,-7.425644
1790548214.6262,-0.007699,0.002295,-1.274270,-0.003532,0.000556,-1.274270,-0.410052,0.828317,-0.755346,0.415615,0.976891,-11.772497
1790548214.6403,-0.016357,0.006107,-1.280065,-0.012510,0.004442,-1.280065,-0.382126,0.672907,-0.637574,1.488799,0.307651,-12.277042
1790548214.6544,-0.021915,0.011104,-1.283412,-0.019094,0.009105,-1.283412,-0.451332,0.425222,-0.457881,1.220503,0.493551,-10.763406
1790548214.6684,-0.020204,0.011742,-1.280649,-0.019871,0.010951,-1.280649,-0.169651,-0.107787,-0.200483,0.338959,0.010211,-9.443825
1790548214.6824,-0.013727,0.010118,-1.279056,-0.015570,0.010368,-1.279056,0.096246,-0.508454,-0.023218,0.607255,1.720491,-10.142427
1790548214.6964,-0.007631,0.007822,-1.277249,-0.010013,0.008586,-1.277249,0.198234,-0.524237,0.177115,0.530599,2.278191,-8.978091
1790548214.7104,-0.005009,0.003531,-1.279308,-0.006510,0.005048,-1.279308,0.461702,-0.396752,0.464867,1.718767,4.285911,-9.366203
1790548214.7244,-0.004292,-0.001708,-1.279548,-0.004957,0.000319,-1.279548,0.558834,-0.272910,0.651845,1.488799,4.843611,-9.521448
1790548214.7383,-0.005956,-0.011202,-1.274285,-0.005656,-0.007746,-1.274285,0.852656,-0.122356,0.929884,1.067191,4.323091,-9.560259
1790548214.7523,-0.012221,-0.014343,-1.265737,-0.010252,-0.012364,-1.265737,0.320862,0.308664,1.092579,-1.232488,4.100011,-12.859210
1790548214.7663,-0.012242,-0.013544,-1.249990,-0.011645,-0.013190,-1.249990,-0.032453,-0.157567,1.238276,-1.500784,2.575631,-13.092077
1790548214.7802,-0.007835,-0.013757,-1.230796,-0.008978,-0.013587,-1.230796,0.029468,-0.456245,1.400971,-1.577440,1.274331,-7.464455
1790548214.7944,-0.008972,-0.013368,-1.202837,-0.008973,-0.013434,-1.202837,-0.102874,-0.243771,1.388829,0.952207,0.158931,-8.706413
1790548214.8083,-0.016380,-0.013699,-1.185359,-0.014158,-0.013620,-1.185359,-0.008171,0.354801,1.175140,-0.389272,0.902531,-8.395923
1790548214.8223,-0.015446,-0.014416,-1.169186,-0.015060,-0.014177,-1.169186,-0.002100,-0.117500,0.929884,-1.960720,0.753811,-9.676693
1790548214.8362,-0.013563,-0.015294,-1.154807,-0.014012,-0.014959,-1.154807,-0.037310,-0.237700,0.615421,-0.312616,0.047391,-12.121798
1790548214.8502,-0.009895,-0.015995,-1.144215,-0.011130,-0.015684,-1.144215,-0.057950,-0.276552,0.313099,-0.964192,-0.101329,-11.190329
1790548214.8642,-0.006659,-0.015810,-1.138003,-0.008000,-0.015773,-1.138003,-0.090732,-0.215845,0.133406,-0.887536,0.456371,-10.336483
1790548214.8778,-0.004072,-0.013930,-1.134839,-0.005250,-0.014482,-1.134839,-0.220645,-0.191562,-0.030503,-0.120976,0.456371,-10.064805
1790548214.8920,0.000412,-0.013629,-1.131951,-0.001287,-0.013885,-1.131951,-0.132013,-0.263197,-0.170129,-0.619240,-0.026969,-9.172147
1790548214.9063,0.004120,-0.011616,-1.135042,0.002498,-0.012296,-1.135042,-0.180579,-0.242556,-0.291543,0.262303,1.125611,-9.249770
1790548214.9205,0.007349,-0.008176,-1.139949,0.005893,-0.009412,-1.139949,-0.291066,-0.226773,-0.370463,0.683911,1.125611,-9.443825
1790548214.9351,0.002787,-0.009654,-1.147731,0.003719,-0.009581,-1.147731,0.020969,0.393654,-0.584152,0.338959,0.976891,-12.820399
1790548214.9508,-0.001584,-0.012400,-1.167907,0.000007,-0.011555,-1.167907,0.326933,0.437363,-0.646073,-0.964192,4.992331,-9.366203
1790548214.9658,-0.005240,-0.012642,-1.188670,-0.003666,-0.012316,-1.188670,0.217660,0.398511,-0.650929,-0.734224,4.992331,-7.891378
1790548214.9801,-0.007344,-0.014610,-1.208688,-0.006241,-0.013922,-1.208688,0.346359,0.348731,-0.803911,-1.040848,5.103871,-8.163056
1790548214.9958,-0.000587,-0.017106,-1.224651,-0.002283,-0.016151,-1.224651,0.248013,-0.220702,-0.806340,-1.539112,3.505131,-9.133336
1790548215.0098,0.003047,-0.017162,-1.238468,0.001448,-0.016858,-1.238468,-0.003314,-0.134498,-1.075879,0.913879,2.687171,-12.936833
1790548215.0238,0.007243,-0.016031,-1.252768,0.005504,-0.016279,-1.252768,-0.162367,-0.158781,-1.338134,1.297159,1.199971,-11.384385
1790548215.0378,0.010598,-0.012270,-1.268822,0.009070,-0.013473,-1.268822,-0.253427,-0.133284,-1.214291,1.220503,2.278191,-8.318301
1790548215.0518,0.002462,-0.010069,-1.281309,0.004444,-0.011090,-1.281309,-0.282567,0.756682,-1.135372,0.377287,0.382011,-9.637881
1790548215.0658,-0.005614,-0.009081,-1.292787,-0.002597,-0.009683,-1.292787,-0.167223,0.692333,-1.071023,1.220503,0.642271,-9.210958
1790548215.0797,-0.014740,-0.003421,-1.306892,-0.011097,-0.005300,-1.306892,-0.448904,0.772466,-1.071023,1.450471,1.460231,-9.715504
1790548215.0936,-0.020032,0.001596,-1.316504,-0.017351,-0.000473,-1.316504,-0.454975,0.524781,-1.001817,0.875551,0.530731,-10.336483
1790548215.1072,-0.024842,0.007253,-1.322828,-0.022595,0.004936,-1.322828,-0.502326,0.456789,-0.756560,0.798895,0.605091,-9.288581
1790548215.1210,-0.024674,0.009853,-1.324549,-0.024050,0.008378,-1.324549,-0.306850,0.127757,-0.586580,-0.312616,0.121751,-9.793126
1790548215.1350,-0.020542,0.007758,-1.326148,-0.021594,0.007944,-1.326148,0.115672,-0.287480,-0.285473,0.798895,1.608951,-10.996273
1790548215.1492,-0.014840,0.006570,-1.331060,-0.016866,0.006982,-1.331060,0.137526,-0.414965,-0.164059,0.530599,2.947431,-10.103616
1790548215.1632,-0.009168,0.000822,-1.331801,-0.011478,0.002670,-1.331801,0.482343,-0.524237,0.211111,1.143847,3.319231,-10.608161
1790548215.1772,-0.003209,-0.002738,-1.336312,-0.005689,-0.001115,-1.336312,0.426492,-0.574017,0.400518,0.837223,4.248731,-8.822846
1790548215.1921,-0.000327,-0.008181,-1.337034,-0.001936,-0.006062,-1.337034,0.553977,-0.405251,0.639704,1.297159,4.397451,-8.473546
1790548215.2059,-0.004946,-0.013588,-1.332265,-0.004043,-0.011330,-1.332265,0.529694,0.119258,0.841251,1.220503,4.546171,-11.888930
1790548215.2195,-0.008466,-0.014654,-1.318948,-0.007139,-0.013657,-1.318948,0.097460,0.130185,1.124146,-1.730752,2.464091,-13.751868
1790548215.2336,-0.003260,-0.013020,-1.301068,-0.004424,-0.013211,-1.301068,-0.072520,-0.516953,1.414326,-2.382327,2.389731,-11.423196
1790548215.2478,-0.002357,-0.013382,-1.274073,-0.002977,-0.013330,-1.274073,-0.030025,-0.261983,1.513886,-1.117504,0.270471,-7.580888
1790548215.2620,-0.000251,-0.010580,-1.247460,-0.001068,-0.011405,-1.247460,-0.259498,-0.328761,1.437395,-1.309144,0.196111,-8.124245
1790548215.2760,-0.000075,-0.008371,-1.228275,-0.000373,-0.009281,-1.228275,-0.185435,-0.168494,1.155714,-0.695896,0.567911,-5.989630
1790548215.2903,0.000352,-0.005356,-1.212828,0.000134,-0.006534,-1.212828,-0.252213,-0.181849,0.823039,-0.274288,0.865351,-10.025993
1790548215.3044,0.004205,-0.004375,-1.198341,0.002984,-0.005022,-1.198341,-0.157510,-0.343330,0.560784,-1.079176,0.196111,-11.694875
1790548215.3184,0.006881,-0.004286,-1.185608,0.005712,-0.004507,-1.185608,-0.122300,-0.264411,0.399303,-0.427600,-0.250049,-11.267951
1790548215.3321,0.011275,-0.000749,-1.178842,0.009606,-0.001876,-1.178842,-0.343274,-0.342116,0.115194,-0.465928,0.493551,-10.918651
1790548215.3458,0.015481,0.003627,-1.176765,0.013719,0.001976,-1.176765,-0.405195,-0.310548,-0.144632,0.032335,0.567911,-8.978091
1790548215.3595,0.020850,0.006756,-1.178552,0.018710,0.005322,-1.178552,-0.300779,-0.404037,-0.306113,0.492271,0.790991,-8.163056
1790548215.3735,0.023121,0.009056,-1.184555,0.021798,0.007936,-1.184555,-0.241286,-0.115072,-0.536800,0.568927,1.348691,-11.966553
1790548215.3880,0.021783,0.006025,-1.193890,0.021788,0.006598,-1.193890,0.153310,0.267383,-0.735919,-1.155832,2.166651,-13.247322
1790548215.4021,0.018389,0.007526,-1.214685,0.019409,0.007247,-1.214685,0.014898,0.413080,-0.741990,-0.887536,5.066691,-10.375294
1790548215.4163,0.015609,0.008078,-1.237426,0.016749,0.007829,-1.237426,0.097460,0.456789,-0.896186,-1.654096,4.657711,-8.667602
1790548215.4308,0.010168,0.005028,-1.259348,0.012142,0.005868,-1.259348,0.322076,0.576989,-0.922897,-0.465928,4.137191,-8.667602
1790548215.4451,0.006752,-0.000730,-1.281751,0.008369,0.001249,-1.281751,0.558834,0.489571,-0.927754,-1.040848,3.691031,-6.610609
1790548215.4594,0.005772,-0.008024,-1.301684,0.006551,-0.005242,-1.301684,0.630468,0.306236,-0.941109,-1.194160,3.988471,-8.551168
1790548215.4735,0.014234,-0.011382,-1.317918,0.011929,-0.009540,-1.317918,0.248013,-0.399181,-1.122017,-0.619240,3.244871,-12.626343
1790548215.4876,0.017172,-0.007941,-1.328395,0.015599,-0.008420,-1.328395,-0.275282,-0.151496,-1.243431,3.443526,3.058971,-14.023546
1790548215.5018,0.015264,-0.004821,-1.347275,0.015365,-0.005901,-1.347275,-0.253427,0.375442,-1.203364,-0.695896,2.389731,-11.073895
1790548215.5159,0.010007,0.000023,-1.364874,0.011614,-0.001754,-1.364874,-0.393054,0.642553,-1.060095,-0.964192,1.311511,-7.270399
1790548215.5299,-0.001121,0.002448,-1.374185,0.002700,0.001187,-1.374185,-0.292280,0.943660,-0.875546,0.262303,0.382011,-8.124245
1790548215.5441,-0.007253,0.006524,-1.384076,-0.004268,0.004923,-1.384076,-0.400338,0.624341,-0.890115,-0.274288,0.382011,-9.172147
1790548215.5582,-0.013529,0.009817,-1.390063,-0.010751,0.008349,-1.390063,-0.352987,0.557563,-0.748061,0.722239,0.270471,-10.336483
1790548215.5719,-0.017923,0.013895,-1.394911,-0.015771,0.012231,-1.394911,-0.396696,0.425222,-0.607220,0.377287,0.567911,-10.142427
1790548215.5857,-0.014915,0.012903,-1.392159,-0.015172,0.012701,-1.392159,-0.084662,-0.135712,-0.314612,-0.504256,-0.584669,-12.509909
1790548215.6001,-0.007073,0.008974,-1.388190,-0.009503,0.010092,-1.388190,0.156953,-0.490241,-0.157988,-0.695896,0.047391,-9.482637
1790548215.6143,-0.000710,0.005635,-1.389721,-0.003348,0.006972,-1.389721,0.290508,-0.510882,-0.005006,0.683911,2.761531,-9.405014
1790548215.6283,0.004125,-0.001617,-1.387989,0.001883,0.000959,-1.387989,0.602543,-0.456245,0.300958,0.492271,3.244871,-10.142427
1790548215.6424,0.007635,-0.008063,-1.388025,0.005909,-0.005356,-1.388025,0.624397,-0.404037,0.449083,0.760567,4.025651,-8.784035
1790548215.6569,0.004083,-0.015616,-1.384785,0.004631,-0.012538,-1.384785,0.708173,0.014842,0.729550,1.527127,4.546171,-9.133336
1790548215.6717,-0.004441,-0.017392,-1.376420,-0.001719,-0.015936,-1.376420,0.221302,0.422793,0.956595,-0.350944,3.876931,-12.044175
1790548215.6858,-0.001464,-0.015808,-1.360583,-0.001541,-0.015846,-1.360583,-0.087090,-0.321476,1.207922,-2.573967,2.278191,-12.898021
1790548215.6999,-0.001398,-0.017794,-1.337320,-0.001441,-0.017209,-1.337320,0.087747,-0.193991,1.394900,-1.002520,0.307651,-8.667602
1790548215.7143,0.002724,-0.016596,-1.315923,0.001474,-0.016780,-1.315923,-0.115015,-0.401609,1.302625,-1.577440,0.456371,-6.882287
1790548215.7283,-0.002155,-0.015946,-1.303850,-0.001066,-0.016196,-1.303850,0.012470,0.181179,1.005160,-0.197632,1.646131,-6.921098
1790548215.7424,0.000542,-0.013638,-1.293171,0.000059,-0.014405,-1.293171,-0.145369,-0.265625,0.764760,-1.155832,1.571771,-8.745224
1790548215.7562,0.001515,-0.012595,-1.282005,0.001078,-0.013138,-1.282005,-0.152653,-0.150282,0.566855,-0.772552,0.382011,-12.354665
1790548215.7701,0.002108,-0.013372,-1.272687,0.001799,-0.013302,-1.272687,-0.053094,-0.096859,0.362879,-0.504256,-0.175689,-11.384385
1790548215.7841,0.005191,-0.014815,-1.266219,0.004174,-0.014361,-1.266219,0.031896,-0.224344,0.239037,-1.002520,0.493551,-10.452916
1790548215.7979,0.007744,-0.013536,-1.263591,0.006673,-0.013783,-1.263591,-0.150225,-0.157567,0.027776,-0.887536,0.828171,-10.025993
1790548215.8116,0.009476,-0.010571,-1.264405,0.008635,-0.011535,-1.264405,-0.252213,-0.138140,-0.123992,0.147319,1.088431,-8.395923
1790548215.8256,0.012152,-0.007834,-1.266571,0.011097,-0.008944,-1.266571,-0.236429,-0.197633,-0.225980,0.338959,1.125611,-8.900469
1790548215.8396,0.015297,-0.003406,-1.270501,0.014037,-0.005067,-1.270501,-0.339631,-0.246199,-0.293972,0.837223,1.720491,-10.414105
1790548215.8536,0.012555,-0.003682,-1.277646,0.012999,-0.004098,-1.277646,-0.040952,0.278311,-0.539228,0.032335,1.608951,-12.936833
1790548215.8674,0.008231,-0.006681,-1.289624,0.009661,-0.005906,-1.289624,0.206733,0.488357,-0.769915,-0.925864,2.687171,-12.354665
1790548215.8813,0.005677,-0.007116,-1.305815,0.006873,-0.006753,-1.305815,0.173951,0.377870,-0.754132,-1.002520,3.951291,-7.969000
1790548215.8951,0.002251,-0.010351,-1.322034,0.003638,-0.009272,-1.322034,0.360929,0.444648,-0.819695,-0.849208,3.802571,-8.357112
1790548215.9092,0.000343,-0.012846,-1.340512,0.001331,-0.011774,-1.340512,0.363357,0.368157,-0.925326,-1.079176,4.323091,-7.270399
1790548215.9240,0.005099,-0.015158,-1.354651,0.003969,-0.014142,-1.354651,0.204304,-0.180635,-0.930182,0.070663,3.765391,-12.199420
1790548215.9383,0.013479,-0.012069,-1.372842,0.010626,-0.012691,-1.372842,-0.209718,-0.365185,-1.287140,-0.580912,3.653851,-13.945924
1790548215.9523,0.016015,-0.008159,-1.389893,0.014398,-0.009519,-1.389893,-0.231573,-0.020368,-1.258001,0.683911,3.319231,-9.405014
1790548215.9667,0.010662,-0.005978,-1.409093,0.011783,-0.007040,-1.409093,-0.208504,0.601272,-1.313851,0.032335,1.571771,-8.745224
1790548215.9808,-0.000780,0.001317,-1.425416,0.002989,-0.001190,-1.425416,-0.564248,0.978870,-1.196079,0.760567,1.385871,-7.619700
1790548215.9948,-0.013469,0.008502,-1.435447,-0.008532,0.005594,-1.435447,-0.626169,1.015295,-1.071023,1.833751,0.493551,-9.676693
1790548216.0088,-0.023477,0.016329,-1.451057,-0.018994,0.013109,-1.451057,-0.635882,0.958230,-1.142657,0.070663,0.902531,-10.142427
1790548216.0224,-0.029380,0.024928,-1.464088,-0.026264,0.021382,-1.464088,-0.680805,0.646196,-0.999388,0.262303,1.348691,-9.831937
1790548216.0360,-0.030882,0.029287,-1.471189,-0.029497,0.026915,-1.471189,-0.405195,0.279525,-0.693424,-0.159304,0.902531,-11.966553
1790548216.0497,-0.029596,0.030237,-1.476858,-0.029566,0.029240,-1.476858,-0.095589,0.008771,-0.508875,0.223975,2.017931,-11.423196
1790548216.0637,-0.025960,0.028785,-1.480349,-0.027041,0.028922,-1.480349,0.142383,-0.246199,-0.240549,0.607255,2.947431,-10.181238
1790548216.0776,-0.022442,0.024009,-1.481205,-0.023822,0.025483,-1.481205,0.451989,-0.351829,0.092125,1.182175,3.876931,-9.366203
1790548216.0914,-0.019673,0.014416,-1.478976,-0.020918,0.017736,-1.478976,0.827159,-0.351829,0.400518,0.913879,3.802571,-8.395923
1790548216.1054,-0.015714,0.003611,-1.473366,-0.017275,0.007848,-1.473366,0.941289,-0.492670,0.670057,0.990535,4.137191,-8.201867
1790548216.1196,-0.012054,-0.006740,-1.462269,-0.013621,-0.002364,-1.462269,0.881796,-0.532736,0.809683,1.910407,4.323091,-9.637881
1790548216.1338,-0.010052,-0.020383,-1.453513,-0.011123,-0.014977,-1.453513,1.140408,-0.354258,1.084080,0.262303,4.880791,-10.181238
