t,imu_roll,imu_pitch,imu_yaw,lpf_roll,lpf_pitch,lpf_yaw,gyro_x,gyro_y,gyro_z,acc_x,acc_y,acc_z
1790548843.9993,0.006867,-0.050076,0.013896,0.004807,-0.035053,0.013896,0.011484,0.002791,0.005923,0.070663,1.237151,-10.258860
1790548844.0146,-0.005890,-0.050008,0.011443,-0.002681,-0.045522,0.011443,-0.020084,-0.010564,0.002280,0.338959,1.199971,-9.870749
1790548844.0286,-0.007504,-0.046531,0.010747,-0.006057,-0.046228,0.010747,-0.005514,-0.004494,-0.000148,0.262303,1.348691,-10.181238
1790548844.0424,-0.008588,-0.046777,0.010679,-0.007829,-0.046613,0.010679,0.011484,0.005220,0.002280,0.262303,1.237151,-9.909560
1790548844.0565,-0.005630,-0.045872,0.010954,-0.006290,-0.046094,0.010954,-0.007942,0.022218,0.008351,0.070663,1.311511,-10.142427
1790548844.0708,-0.001459,-0.045707,0.011570,-0.002908,-0.045824,0.011570,-0.082005,0.039216,0.021706,-0.082648,1.237151,-10.220049
1790548844.0851,-0.001542,-0.045386,0.011715,-0.001952,-0.045517,0.011715,-0.120858,0.114492,0.032634,0.070663,1.274331,-10.802217
1790548844.0995,-0.000134,-0.047256,0.011671,-0.000680,-0.046735,0.011671,-0.124500,0.085353,0.049632,-0.044320,0.976891,-9.909560
1790548844.1135,0.000188,-0.047473,0.012109,-0.000072,-0.047251,0.012109,-0.149997,0.028288,0.090913,0.070663,1.014071,-9.599070
1790548844.1276,0.002889,-0.045060,0.016257,0.002001,-0.045717,0.016257,-0.180350,-0.055488,0.186830,-0.082648,1.199971,-9.521448
1790548844.1415,-0.002171,-0.047340,0.014008,-0.000919,-0.046853,0.014008,-0.182779,-0.029991,0.343454,0.645583,0.753811,-9.870749
1790548844.1554,-0.008078,-0.050219,0.013295,-0.005930,-0.049209,0.013295,-0.160924,-0.050631,0.503721,0.837223,0.642271,-9.793126
1790548844.1695,-0.013342,-0.051818,0.012530,-0.011118,-0.051036,0.012530,-0.103860,-0.148976,0.580212,1.067191,0.865351,-10.258860
1790548844.1847,-0.000407,-0.042615,0.042340,-0.003620,-0.045142,0.042340,-0.193706,-0.099197,0.532860,-1.424128,2.055111,-9.482637
1790548844.1994,0.017460,-0.043454,0.057673,0.011136,-0.043960,0.057673,-0.210704,-0.651631,0.385949,-1.424128,0.790991,-10.918651
1790548844.2141,0.006975,-0.043772,0.037197,0.008223,-0.043828,0.037197,-0.231344,-0.074914,0.368951,1.795423,0.753811,-10.569350
1790548844.2288,-0.002150,-0.047717,0.029112,0.000962,-0.046550,0.029112,0.001771,0.130276,0.406589,1.105519,0.567911,-9.327392
1790548844.2436,-0.010237,-0.052552,0.026092,-0.006877,-0.050751,0.026092,0.236100,0.227408,0.441800,0.875551,0.939711,-9.637881
1790548844.2573,-0.022017,-0.052639,0.017034,-0.017475,-0.052073,0.017034,0.155967,0.555226,0.320385,0.952207,1.460231,-9.288581
1790548844.2710,-0.028771,-0.051228,0.015660,-0.025382,-0.051482,0.015660,0.091617,0.488448,0.262107,0.377287,1.720491,-9.909560
1790548844.2851,-0.035981,-0.046702,0.008428,-0.032802,-0.048136,0.008428,0.016341,0.390103,0.226896,0.722239,2.055111,-9.172147
1790548844.2990,-0.042821,-0.042144,0.002201,-0.039815,-0.043941,0.002201,-0.052866,0.250476,0.229325,1.258831,2.203831,-10.297672
1790548844.3130,-0.047974,-0.035692,-0.004245,-0.045526,-0.038167,-0.004245,-0.149997,0.074426,0.147977,1.603783,2.501271,-10.569350
1790548844.3269,-0.049344,-0.027169,-0.011311,-0.048199,-0.030469,-0.011311,-0.266555,-0.153833,0.096983,1.603783,2.873071,-11.035084
1790548844.3411,-0.048238,-0.021885,0.015815,-0.048226,-0.024460,0.015815,-0.607729,-0.484080,-0.148273,2.370342,0.865351,-11.423196
1790548844.3551,-0.059859,-0.018319,0.051769,-0.056369,-0.020162,0.051769,-0.520310,0.071997,-0.368033,3.865134,0.679451,-10.258860
1790548844.3690,-0.064711,-0.023360,0.066648,-0.062208,-0.022400,0.066648,0.137755,0.155773,-0.653357,2.102047,0.679451,-11.190329
1790548844.3830,-0.045862,-0.023086,0.025449,-0.050766,-0.022881,0.025449,0.315019,-0.320170,-1.046739,-2.420655,2.055111,-8.434735
1790548844.3970,-0.032038,-0.013725,-0.040695,-0.037657,-0.016471,-0.040695,0.137755,-0.465868,-1.075878,-0.619240,2.873071,-6.144874
1790548844.4108,-0.021151,-0.013445,-0.058682,-0.026103,-0.014353,-0.058682,0.001771,-0.291031,-0.812409,-0.925864,1.274331,-8.318301
1790548844.4250,-0.009376,-0.023435,-0.065848,-0.014394,-0.020711,-0.065848,0.526280,-0.490150,-0.867046,-0.849208,0.828171,-12.975644
1790548844.4393,-0.002125,-0.024566,-0.088840,-0.005806,-0.023409,-0.088840,0.402438,-0.249750,-1.177866,-0.235960,3.133331,-11.035084
1790548844.4542,0.001670,-0.026947,-0.108394,-0.000572,-0.025886,-0.108394,0.213032,-0.076128,-1.327205,0.185647,1.608951,-9.987182
1790548844.4682,0.000609,-0.019984,-0.124598,0.000254,-0.021755,-0.124598,-0.069864,0.201911,-1.211862,0.262303,2.389731,-6.804665
1790548844.4820,-0.011170,-0.016676,-0.118040,-0.007743,-0.018199,-0.118040,-0.072292,0.674212,-0.978747,1.795423,2.315371,-9.987182
1790548844.4957,-0.024217,-0.015848,-0.109519,-0.019275,-0.016554,-0.109519,-0.111144,0.813838,-0.761415,1.565455,1.237151,-9.948371
1790548844.5098,-0.031419,-0.015849,-0.108543,-0.027776,-0.016060,-0.108543,-0.037082,0.492091,-0.557439,1.105519,1.423051,-11.151518
1790548844.5238,-0.035816,-0.014597,-0.116026,-0.033404,-0.015036,-0.116026,-0.048009,0.380390,-0.433597,0.568927,1.757671,-10.530539
1790548844.5379,-0.051801,-0.006034,-0.115208,-0.046282,-0.008735,-0.115208,-0.306621,0.825980,-0.275758,1.948735,2.352551,-7.153965
1790548844.5519,-0.047075,-0.009861,-0.133677,-0.046837,-0.009523,-0.133677,0.227601,-0.026348,-0.042643,-0.964192,1.348691,-10.258860
1790548844.5659,-0.037848,-0.015755,-0.164698,-0.040545,-0.013886,-0.164698,1.200129,-0.671058,0.069058,0.453943,3.988471,-6.028441
1790548844.5801,-0.060227,-0.007778,-0.089438,-0.054322,-0.009610,-0.089438,0.233672,0.900042,0.324028,2.791950,4.769251,-5.562707
1790548844.5949,-0.061794,-0.005521,-0.128708,-0.059552,-0.006748,-0.128708,-0.349116,0.445953,0.467297,-2.114032,0.753811,-15.265504
1790548844.6091,-0.055106,-0.003650,-0.120830,-0.056440,-0.004580,-0.120830,-0.248342,-0.550857,0.819398,0.338959,1.311511,-9.521448
1790548844.6231,-0.049438,-0.002661,-0.128629,-0.051539,-0.003237,-0.128629,-0.181565,-0.359023,1.017303,-0.389272,1.088431,-7.736133
1790548844.6373,-0.054738,-0.009231,-0.078248,-0.053778,-0.007433,-0.078248,-0.101431,0.192197,1.046442,0.338959,-0.882109,-6.494175
1790548844.6514,-0.036395,-0.014347,-0.112282,-0.041610,-0.012272,-0.112282,0.137755,-0.819183,0.838824,-2.497311,0.344831,-7.503266
1790548844.6655,-0.043165,-0.018641,-0.074078,-0.042699,-0.016730,-0.074078,-0.003086,0.176414,0.748978,1.872079,-0.175689,-11.267951
1790548844.6794,-0.045082,-0.023761,-0.066554,-0.044367,-0.021652,-0.066554,0.089189,0.200696,0.768404,-0.657568,-0.026969,-12.703965
1790548844.6935,-0.052161,-0.030043,-0.051270,-0.049823,-0.027525,-0.051270,0.253098,0.386460,0.999091,0.492271,0.530731,-9.793126
1790548844.7071,-0.059059,-0.039864,-0.038012,-0.056288,-0.036163,-0.038012,0.474072,0.471450,1.042800,0.070663,0.158931,-9.676693
1790548844.7207,-0.070480,-0.044664,-0.022861,-0.066223,-0.042114,-0.022861,0.298021,0.636573,0.965095,1.143847,1.125611,-8.163056
1790548844.7347,-0.078009,-0.043782,-0.019456,-0.074473,-0.043282,-0.019456,-0.074720,0.597721,0.767190,-0.082648,1.460231,-8.978091
1790548844.7486,-0.069561,-0.037025,-0.017577,-0.071035,-0.038902,-0.017577,-0.514240,-0.507148,0.524361,-0.389272,1.720491,-11.306763
1790548844.7625,-0.064059,-0.025365,-0.012289,-0.066152,-0.029426,-0.012289,-0.895480,-0.440371,0.331313,0.875551,1.460231,-11.500819
1790548844.7765,-0.060772,-0.017767,0.003784,-0.062386,-0.021265,0.003784,-0.792278,-0.452512,0.186830,1.987063,-0.138509,-9.560259
1790548844.7905,-0.057386,-0.010722,0.020984,-0.058886,-0.013885,0.020984,-0.697575,-0.564213,0.107911,2.561982,0.233291,-8.628791
1790548844.8044,-0.049270,0.004707,0.029747,-0.052155,-0.000870,0.029747,-1.095814,-0.997662,0.005923,2.600310,1.385871,-6.804665
1790548844.8183,-0.040602,0.019987,0.056884,-0.044068,0.013730,0.056884,-1.406634,-1.138502,-0.047500,3.405198,-0.361589,-7.115154
1790548844.8324,-0.058639,0.015741,0.042518,-0.054268,0.015137,0.042518,0.236100,0.919469,-0.540441,7.621276,1.423051,-15.653616
1790548844.8465,-0.050465,0.010364,0.009806,-0.051606,0.011796,0.009806,0.603985,-0.114980,-1.083163,-2.305671,4.397451,-14.916203
1790548844.8607,-0.038809,0.015874,-0.060463,-0.042648,0.014651,-0.060463,0.221531,-0.673486,-1.032169,0.837223,5.512851,-7.891378
1790548844.8748,-0.035396,0.014186,-0.095322,-0.037571,0.014326,-0.095322,0.402438,0.042858,-0.979961,-0.197632,2.538451,-6.765853
1790548844.8887,-0.030199,0.004230,-0.099127,-0.032411,0.007258,-0.099127,0.624626,0.078068,-0.955678,-1.539112,0.567911,-8.318301
1790548844.9029,-0.024377,0.001731,-0.108915,-0.026787,0.003389,-0.108915,0.214246,-0.299530,-0.863403,0.837223,2.241011,-12.509909
1790548844.9169,-0.025887,-0.000827,-0.123595,-0.026157,0.000438,-0.123595,0.196034,0.318468,-1.117159,0.338959,1.794851,-12.315854
1790548844.9309,-0.031744,0.006106,-0.150012,-0.030068,0.004406,-0.150012,-0.196134,0.631717,-1.035811,0.223975,3.058971,-7.580888
1790548844.9446,-0.036905,0.013852,-0.178455,-0.034854,0.011018,-0.178455,-0.321191,0.730062,-0.924110,-0.695896,2.687171,-7.542077
1790548844.9582,-0.044062,0.017361,-0.197527,-0.041300,0.015458,-0.197527,-0.231344,0.835693,-0.778413,-0.542584,1.423051,-8.473546
1790548844.9721,-0.049398,0.020627,-0.213615,-0.046968,0.019077,-0.213615,-0.057722,0.583151,-0.595078,-0.005993,2.984611,-9.443825
1790548844.9860,-0.045536,0.016030,-0.219842,-0.045965,0.016944,-0.219842,0.282238,-0.138049,-0.153130,-0.542584,2.055111,-14.799770
1790548844.9999,-0.038303,0.004257,-0.222579,-0.040602,0.008063,-0.222579,0.852884,-0.468296,0.027777,-0.044320,2.575631,-13.868301
1790548845.0138,-0.034928,-0.003399,-0.193913,-0.036630,0.000040,-0.193913,0.816460,-0.419730,0.243894,1.258831,3.505131,-7.619700
1790548845.0278,-0.026880,-0.018130,-0.177109,-0.029805,-0.012679,-0.177109,1.133351,-0.754833,0.435729,1.143847,2.241011,-8.745224
1790548845.0417,-0.028697,-0.020061,-0.162639,-0.029029,-0.017846,-0.162639,0.512925,0.065927,0.565642,0.147319,4.360271,-7.542077
1790548845.0556,-0.032579,-0.010885,-0.174542,-0.031514,-0.012973,-0.174542,-0.581017,0.384032,0.674915,-1.960720,4.100011,-15.459560
1790548845.0695,-0.021286,-0.007960,-0.178631,-0.024355,-0.009464,-0.178631,-0.349116,-0.679557,0.972380,-2.573967,0.828171,-11.073895
1790548845.0835,-0.018288,-0.009886,-0.135099,-0.020108,-0.009759,-0.135099,-0.230130,-0.446441,0.966309,0.683911,-1.439808,-9.016902
1790548845.0978,-0.022264,-0.014619,-0.120737,-0.021617,-0.013161,-0.120737,0.035767,0.282044,0.995448,-1.040848,-0.882109,-8.512357
1790548845.1125,-0.017932,-0.016291,-0.117013,-0.019038,-0.015352,-0.117013,-0.003086,-0.153833,0.840038,-2.382327,0.642271,-9.560259
1790548845.1270,-0.019400,-0.019895,-0.107591,-0.019291,-0.018532,-0.107591,-0.068649,0.271117,0.446656,-2.458983,-1.923148,-11.384385
1790548845.1413,-0.029887,-0.026885,-0.101708,-0.026708,-0.024379,-0.101708,0.239743,0.668141,0.463654,0.568927,-1.142369,-12.160609
1790548845.1553,-0.036209,-0.035301,-0.098485,-0.033359,-0.032025,-0.098485,0.444933,0.449596,0.508577,-0.120976,0.010211,-10.220049
1790548845.1691,-0.047232,-0.044487,-0.092577,-0.043070,-0.040749,-0.092577,0.546921,0.677854,0.549858,1.067191,0.307651,-9.133336
1790548845.1827,-0.056012,-0.049290,-0.084984,-0.052129,-0.046728,-0.084984,0.359943,0.713064,0.517076,-0.389272,1.125611,-7.153965
1790548845.1967,-0.054866,-0.043612,-0.069142,-0.054045,-0.044547,-0.069142,-0.310264,0.062284,0.445442,-1.232488,2.241011,-8.667602
1790548845.2107,-0.053352,-0.034831,-0.064641,-0.053560,-0.037746,-0.064641,-0.703646,-0.198756,0.368951,1.488799,1.162791,-13.519000
1790548845.2246,-0.053429,-0.029126,-0.058848,-0.053468,-0.031712,-0.058848,-0.589516,-0.184187,0.265749,2.791950,-0.324409,-12.354665
1790548845.2386,-0.049644,-0.021005,-0.047187,-0.050792,-0.024217,-0.047187,-0.763139,-0.550857,0.215969,2.945262,-0.287229,-8.900469
1790548845.2525,-0.038157,-0.007982,-0.040878,-0.041947,-0.012852,-0.040878,-1.029036,-1.025587,0.127337,1.910407,0.605091,-8.007811
1790548845.2665,-0.025581,0.007752,-0.034200,-0.030491,0.001570,-0.034200,-1.273078,-1.102078,0.104268,1.642111,0.270471,-7.464455
1790548845.2805,-0.016851,0.024410,-0.032476,-0.020943,0.017558,-0.032476,-1.348355,-0.732979,-0.211409,2.753622,0.344831,-15.459560
1790548845.2945,-0.021716,0.017570,-0.033016,-0.021484,0.017567,-0.033016,0.346587,0.597721,-0.553797,-1.692424,0.158931,-15.964105
1790548845.3084,-0.008518,0.003997,-0.029417,-0.012408,0.008068,-0.029417,1.106640,-0.465868,-1.023670,-3.608823,3.244871,-10.879840
1790548845.3222,-0.002175,0.007744,-0.024699,-0.005245,0.007841,-0.024699,0.227601,-0.231538,-0.862189,-0.657568,5.698751,-6.455364
1790548845.3363,0.005378,0.004992,-0.040761,0.002191,0.005847,-0.040761,0.265240,0.019789,-0.790555,-2.995575,1.460231,-5.717951
1790548845.3504,0.010910,-0.005229,-0.056582,0.008294,-0.001907,-0.056582,0.593058,-0.164760,-0.562296,-1.347472,0.158931,-9.172147
1790548845.3647,0.015650,-0.007911,-0.061375,0.013443,-0.006110,-0.061375,0.257955,-0.249750,-0.686138,0.377287,2.947431,-11.966553
1790548845.3787,0.006475,-0.003400,-0.065189,0.008566,-0.004213,-0.065189,-0.174280,0.658428,-0.813623,1.833751,3.579491,-10.414105
1790548845.3926,-0.002294,0.006752,-0.070918,0.000964,0.003462,-0.070918,-0.527595,0.839335,-0.823336,-0.389272,3.207691,-7.774944
1790548845.4062,-0.012434,0.012318,-0.088656,-0.008415,0.009662,-0.088656,-0.379470,1.070022,-0.773557,-1.232488,1.497411,-7.580888
1790548845.4198,-0.017795,0.016068,-0.104423,-0.014981,0.014146,-0.104423,-0.214346,0.749489,-0.717706,-1.922392,2.092291,-8.978091
1790548845.4347,-0.031644,0.023443,-0.110954,-0.026645,0.020654,-0.110954,-0.381898,1.135586,-0.516159,-0.542584,2.687171,-8.784035
1790548845.4487,-0.024021,0.012707,-0.123974,-0.024808,0.015091,-0.123974,0.665907,-0.410017,-0.123991,-1.577440,1.199971,-16.235784
1790548845.4630,-0.020441,0.006421,-0.096789,-0.021751,0.009022,-0.096789,0.742398,-0.248536,-0.046286,0.262303,5.178231,-8.939280
1790548845.4771,-0.018398,0.000647,-0.066970,-0.019404,0.003159,-0.066970,0.775179,-0.295888,0.241466,1.067191,4.434631,-6.261308
1790548845.4911,-0.006035,-0.013775,-0.048041,-0.010046,-0.008695,-0.048041,1.172204,-0.997662,0.456369,0.453943,3.170511,-8.861658
1790548845.5048,-0.016691,-0.021540,-0.028735,-0.014697,-0.017687,-0.028735,0.686547,0.611076,0.739264,1.105519,3.505131,-11.229140
1790548845.5194,-0.024294,-0.012687,-0.020014,-0.021415,-0.014187,-0.020014,-0.516668,0.464165,0.826683,-0.542584,4.285911,-13.557812
1790548845.5335,-0.012263,-0.014215,-0.040905,-0.015008,-0.014206,-0.040905,0.012698,-0.782759,1.125362,-2.535639,1.162791,-9.599070
1790548845.5476,-0.022664,-0.013680,-0.005313,-0.020367,-0.013838,-0.005313,-0.033439,0.317254,1.116863,2.446998,1.385871,-7.153965
1790548845.5616,-0.025382,-0.020962,-0.002726,-0.023877,-0.018824,-0.002726,0.244599,-0.089483,1.149644,1.373815,-1.030829,-7.658511
1790548845.5756,-0.022301,-0.026701,-0.024196,-0.022774,-0.024338,-0.024196,0.215460,-0.119837,0.843681,-2.114032,-0.324409,-9.405014
1790548845.5895,-0.027413,-0.030518,-0.040872,-0.026021,-0.028664,-0.040872,0.044266,0.421670,0.553501,-1.232488,-1.179549,-11.539630
1790548845.6038,-0.034197,-0.036794,-0.046792,-0.031744,-0.034355,-0.046792,0.284666,0.469022,0.542573,-0.350944,-0.250049,-11.500819
1790548845.6180,-0.042890,-0.046414,-0.042471,-0.039546,-0.042797,-0.042471,0.551777,0.492091,0.741693,0.990535,0.158931,-10.491728
1790548845.6317,-0.057573,-0.055182,-0.035733,-0.052165,-0.051466,-0.035733,0.544492,0.929182,0.683414,1.412143,0.382011,-8.939280
1790548845.6454,-0.061331,-0.056440,-0.027586,-0.058581,-0.054948,-0.027586,0.094046,0.347608,0.582640,-0.887536,1.571771,-9.366203
1790548845.6595,-0.059224,-0.049557,-0.020473,-0.059032,-0.051174,-0.020473,-0.493599,-0.136835,0.452727,-0.120976,1.720491,-10.724595
1790548845.6734,-0.062066,-0.042209,-0.023229,-0.061156,-0.044899,-0.023229,-0.639296,0.154559,0.262107,1.258831,0.196111,-12.509909
1790548845.6873,-0.058734,-0.036578,-0.019672,-0.059461,-0.039074,-0.019672,-0.539737,-0.414874,0.196543,2.600310,-0.175689,-9.870749
1790548845.7014,-0.047986,-0.025821,-0.010323,-0.051429,-0.029797,-0.010323,-0.800777,-0.938169,0.147977,2.102047,0.976891,-8.240679
1790548845.7154,-0.040392,-0.012086,0.001598,-0.043703,-0.017399,0.001598,-1.056961,-0.794900,0.113981,2.676966,0.530731,-7.425644
1790548845.7293,-0.030887,0.003328,0.007128,-0.034732,-0.002890,0.007128,-1.248796,-0.889603,0.027777,2.638638,-0.026969,-8.900469
1790548845.7433,-0.016603,0.023687,0.016693,-0.022042,0.015714,0.016693,-1.572971,-1.297555,-0.039001,2.830278,0.307651,-7.231588
1790548845.7573,-0.026979,0.026867,0.011941,-0.025498,0.023521,0.011941,-0.302979,0.639002,-0.410528,4.440053,1.014071,-14.528091
1790548845.7713,-0.023197,0.022664,0.004285,-0.023887,0.022921,0.004285,0.378155,0.135133,-0.817266,-4.183743,3.579491,-13.829490
1790548845.7853,-0.007689,0.021425,-0.000483,-0.012548,0.021874,-0.000483,0.380583,-0.842252,-1.079520,-0.657568,4.211551,-6.959909
1790548845.7994,0.004581,0.017429,-0.013904,-0.000558,0.018762,-0.013904,0.436434,-0.384520,-0.949607,-2.114032,1.794851,-4.398371
1790548845.8134,0.013758,0.009245,-0.029376,0.009463,0.012100,-0.029376,0.577274,-0.304387,-0.754130,-2.037376,1.162791,-6.804665
1790548845.8273,0.021838,0.000053,-0.041679,0.018126,0.003667,-0.041679,0.633125,-0.434300,-0.856118,-0.159304,1.869211,-13.402567
1790548845.8413,0.024635,-0.003913,-0.053792,0.022683,-0.001639,-0.053792,0.323518,-0.032419,-1.166939,0.300631,2.612811,-11.073895
1790548845.8551,0.016966,-0.000314,-0.056957,0.018681,-0.000711,-0.056957,-0.095361,0.683925,-1.039454,0.607255,3.505131,-8.434735
1790548845.8691,0.006158,0.006538,-0.062854,0.009915,0.004363,-0.062854,-0.281124,0.978962,-0.958106,-0.235960,3.058971,-6.338930
1790548845.8827,0.002857,0.005974,-0.085659,0.004974,0.005491,-0.085659,-0.016441,0.521230,-0.738347,-1.577440,0.902531,-9.366203
1790548845.8967,-0.003854,0.007121,-0.089700,-0.001206,0.006632,-0.089700,0.044266,0.639002,-0.553797,-0.504256,2.947431,-8.551168
1790548845.9107,-0.007656,0.011848,-0.078660,-0.005721,0.010283,-0.078660,-0.126928,0.273545,-0.314611,0.875551,4.248731,-8.745224
1790548845.9246,0.000013,-0.000068,-0.087441,-0.001707,0.003038,-0.087441,0.844385,-0.442799,-0.127633,-1.615768,2.241011,-14.566903
1790548845.9385,0.006956,-0.008590,-0.071654,0.004357,-0.005102,-0.071654,0.866240,-0.503506,0.096983,-0.235960,4.323091,-7.736133
1790548845.9524,0.008956,-0.019269,-0.041523,0.007576,-0.015019,-0.041523,0.999796,-0.414874,0.401733,2.102047,3.579491,-6.998721
1790548845.9663,-0.002287,-0.023156,-0.033297,0.000672,-0.020715,-0.033297,0.400009,0.747060,0.634848,-0.235960,4.100011,-12.354665
1790548845.9802,-0.004925,-0.013088,-0.037409,-0.003246,-0.015376,-0.037409,-0.736428,0.187341,0.897103,-2.305671,2.687171,-15.498371
1790548845.9942,0.006844,-0.012193,-0.040172,0.003817,-0.013148,-0.040172,-0.168209,-0.913886,1.281986,-2.229015,0.753811,-12.820399
1790548846.0082,-0.002224,-0.012289,-0.010205,-0.000412,-0.012547,-0.010205,-0.105074,0.224979,1.297770,1.795423,0.047391,-5.562707
1790548846.0220,0.001296,-0.014960,-0.046776,0.000784,-0.014236,-0.046776,-0.022512,-0.099197,1.199424,-2.612295,-0.547489,-5.601518
1790548846.0361,-0.001823,-0.019418,-0.055633,-0.001041,-0.017863,-0.055633,0.111044,0.229836,0.829111,-1.309144,-0.882109,-8.124245
1790548846.0499,-0.006048,-0.021238,-0.060664,-0.004546,-0.020225,-0.060664,-0.003086,0.363392,0.696769,-2.229015,-0.101329,-11.267951
1790548846.0639,-0.015151,-0.025231,-0.057982,-0.011969,-0.023729,-0.057982,0.162038,0.534586,0.789044,0.492271,0.047391,-12.005364
1790548846.0779,-0.019526,-0.032707,-0.056781,-0.017259,-0.030014,-0.056781,0.395153,0.254119,0.789044,-0.350944,-0.138509,-9.948371
1790548846.0916,-0.031270,-0.039195,-0.046687,-0.027067,-0.036440,-0.046687,0.400009,0.681497,0.769618,1.067191,0.456371,-6.921098
1790548846.1054,-0.037392,-0.040858,-0.037986,-0.034294,-0.039533,-0.037986,0.097688,0.357321,0.629992,0.530599,1.199971,-8.667602
1790548846.1200,-0.035200,-0.033979,-0.034088,-0.034929,-0.035645,-0.034088,-0.514240,-0.162332,0.439371,-0.235960,1.311511,-11.811308
1790548846.1342,-0.034025,-0.025584,-0.028093,-0.034296,-0.028602,-0.028093,-0.721858,-0.240037,0.305816,2.600310,-0.212869,-12.393476
1790548846.1481,-0.031245,-0.018390,-0.019356,-0.032160,-0.021454,-0.019356,-0.670864,-0.386948,0.259678,2.561982,-0.584669,-9.987182
1790548846.1621,-0.027393,-0.009051,-0.003378,-0.028823,-0.012772,-0.003378,-0.794706,-0.529003,0.180759,3.175230,-0.175689,-8.551168
1790548846.1760,-0.018830,0.006558,0.005581,-0.021828,0.000759,0.005581,-1.213585,-0.820397,0.161333,2.293686,0.530731,-8.395923
1790548846.1899,-0.008723,0.025757,0.021366,-0.012654,0.018258,0.021366,-1.478268,-1.013446,0.167403,3.136902,0.456371,-8.085434
1790548846.2037,-0.009111,0.035391,0.024466,-0.010174,0.030251,0.024466,-0.840844,-0.088269,0.111553,2.638638,0.047391,-16.973196
1790548846.2177,-0.019223,0.026687,0.020851,-0.016508,0.027756,0.020851,0.605199,0.976533,-0.386245,-2.573967,1.943571,-13.402567
1790548846.2316,-0.000239,0.023997,0.026016,-0.005120,0.025125,0.026016,0.419436,-1.003732,-1.028526,-3.532167,6.851330,-12.587532
1790548846.2456,0.011743,0.024317,0.042366,0.006684,0.024560,0.042366,0.391510,-0.640704,-0.891328,-0.772552,6.219270,-5.873196
1790548846.2600,0.012007,0.018474,0.028668,0.010410,0.020300,0.028668,0.435220,0.248048,-0.632716,-1.845736,2.017931,-8.551168
1790548846.2752,0.023007,0.011696,0.016796,0.019228,0.014277,0.016796,0.483785,-0.469510,-0.709207,-1.807408,2.092291,-8.163056
1790548846.2902,0.026965,0.006501,0.005825,0.024644,0.008834,0.005825,0.367228,-0.124694,-0.978747,0.415615,2.389731,-10.569350
1790548846.3045,0.021994,0.007674,-0.002839,0.022789,0.008022,-0.002839,0.006627,0.510303,-0.964177,0.147319,3.393591,-10.142427
1790548846.3196,0.016198,0.013262,-0.013374,0.018175,0.011690,-0.013374,-0.254413,0.602578,-0.892543,-0.619240,2.835891,-7.270399
1790548846.3334,0.000448,0.017404,-0.021591,0.005766,0.015689,-0.021591,-0.180350,1.299495,-0.835478,0.262303,3.021791,-8.357112
1790548846.3474,-0.004537,0.019987,-0.039899,-0.001446,0.018698,-0.039899,-0.182779,0.603792,-0.670355,-1.385800,1.794851,-9.870749
1790548846.3617,-0.004814,0.019923,-0.052241,-0.003804,0.019556,-0.052241,-0.012799,0.172771,-0.478520,-0.887536,2.055111,-13.208511
1790548846.3759,0.003524,0.006686,-0.057244,0.001326,0.010547,-0.057244,0.928161,-0.492579,-0.116706,-1.309144,2.092291,-11.850119
1790548846.3899,0.003897,0.000880,-0.028500,0.003126,0.003780,-0.028500,0.749682,-0.130764,0.154048,0.722239,4.471811,-5.640329
1790548846.4039,0.007132,-0.012769,-0.013531,0.005930,-0.007804,-0.013531,1.030149,-0.389377,0.326456,1.488799,2.389731,-9.831937
1790548846.4178,0.011254,-0.024511,0.000742,0.009657,-0.019499,0.000742,0.899022,-0.424587,0.574141,0.530599,2.315371,-9.870749
1790548846.4319,-0.001106,-0.016757,0.015289,0.002123,-0.017579,0.015289,-0.432892,0.750703,0.753834,0.568927,4.769251,-13.751868
1790548846.4459,0.006151,-0.015293,-0.000266,0.004943,-0.015979,-0.000266,-0.191278,-0.461011,1.022160,-3.570495,0.790991,-11.656063
1790548846.4599,0.004568,-0.017679,0.010436,0.004680,-0.017169,0.010436,0.029696,-0.118623,1.131432,0.798895,-0.324409,-8.318301
1790548846.4739,-0.005018,-0.018752,0.031395,-0.002108,-0.018277,0.031395,-0.031011,0.323325,1.091366,1.872079,0.010211,-5.756762
1790548846.4878,0.000134,-0.024569,0.016434,-0.000539,-0.022682,0.016434,0.240957,-0.280104,0.859464,-3.110559,-0.844929,-9.909560
1790548846.5019,-0.005459,-0.027506,0.006286,-0.003983,-0.026059,0.006286,0.024840,0.450810,0.530432,-1.807408,-1.253909,-11.035084
1790548846.5159,-0.013816,-0.032598,0.001620,-0.010866,-0.030636,0.001620,0.230030,0.611076,0.477010,-1.002520,-0.435949,-11.462007
1790548846.5299,-0.019897,-0.041041,0.002252,-0.017188,-0.037920,0.002252,0.476500,0.379175,0.631206,-0.005993,-0.287229,-9.715504
1790548846.5435,-0.032114,-0.051494,0.004411,-0.027636,-0.047421,0.004411,0.620983,0.762844,0.571713,1.373815,-0.621849,-9.094525
1790548846.5571,-0.042046,-0.057118,0.009440,-0.037723,-0.054209,0.009440,0.363585,0.642644,0.513434,0.837223,0.642271,-8.357112
1790548846.5707,-0.041576,-0.054321,0.018445,-0.040420,-0.054287,0.018445,-0.175494,0.033145,0.390806,-1.155832,1.980751,-10.258860
1790548846.5846,-0.038822,-0.046636,0.020003,-0.039301,-0.048931,0.020003,-0.596801,-0.189043,0.264535,-0.120976,1.014071,-11.617252
1790548846.5985,-0.041300,-0.041533,0.021689,-0.040700,-0.043752,0.021689,-0.458389,0.047715,0.214755,2.217030,0.047391,-10.336483
1790548846.6126,-0.035346,-0.033994,0.026784,-0.036952,-0.036921,0.026784,-0.653866,-0.611565,0.152834,3.136902,-0.361589,-10.103616
1790548846.6271,-0.023382,-0.022015,0.031380,-0.027453,-0.026487,0.031380,-0.918549,-0.997662,0.064201,2.523654,0.158931,-8.978091
1790548846.6411,-0.012778,-0.006694,0.038128,-0.017181,-0.012632,0.038128,-1.183232,-0.972165,0.039919,2.523654,0.196111,-7.309210
1790548846.6551,-0.000332,0.010867,0.045039,-0.005387,0.003818,0.045039,-1.345927,-1.117862,0.039919,2.485326,0.344831,-7.309210
1790548846.6691,0.005199,0.027082,0.046758,0.002023,0.020102,0.046758,-1.175947,-0.561785,-0.173770,1.910407,1.051251,-6.067252
1790548846.6830,-0.012450,0.021629,0.033869,-0.008108,0.021171,0.033869,0.339302,1.492544,-0.739561,-0.849208,1.423051,-16.895574
1790548846.6969,0.000838,0.013566,0.025234,-0.001846,0.015847,0.025234,0.687761,-0.627348,-1.123230,-3.263871,5.475671,-16.662707
1790548846.7109,0.014559,0.018235,0.020009,0.009637,0.017519,0.020009,-0.086862,-0.677128,-1.247072,-1.347472,5.475671,-8.667602
1790548846.7248,0.013198,0.013085,0.008477,0.012130,0.014415,0.008477,0.393939,0.384032,-0.799054,-1.769080,1.906391,-8.473546
1790548846.7387,0.021215,0.005365,-0.002361,0.018489,0.008080,-0.002361,0.560276,-0.259463,-0.848833,-2.267343,1.497411,-8.085434
1790548846.7526,0.024613,0.000269,-0.015727,0.022776,0.002612,-0.015727,0.332017,-0.118623,-0.945965,0.607255,1.720491,-12.936833
1790548846.7666,0.020575,0.001994,-0.025246,0.021235,0.002180,-0.025246,0.009056,0.426527,-1.129300,0.990535,4.285911,-10.375294
1790548846.7802,0.009771,0.009877,-0.034402,0.013211,0.007568,-0.034402,-0.398896,0.985032,-1.007886,0.032335,3.691031,-7.580888
1790548846.7936,0.003496,0.013903,-0.048474,0.006410,0.012003,-0.048474,-0.256841,0.731277,-0.794197,-1.232488,1.906391,-7.891378
1790548846.8075,-0.005212,0.015904,-0.059343,-0.001726,0.014733,-0.059343,-0.060150,0.850262,-0.692209,-1.040848,3.021791,-9.909560
1790548846.8214,-0.007175,0.016550,-0.064488,-0.005540,0.016005,-0.064488,0.004199,0.262618,-0.335251,-0.465928,1.832031,-7.076343
1790548846.8354,-0.001958,0.002957,-0.068543,-0.003033,0.006872,-0.068543,0.967014,-0.282532,-0.143417,-1.194160,2.166651,-13.053266
1790548846.8494,0.001691,-0.003782,-0.052925,0.000274,-0.000586,-0.052925,0.722971,-0.289817,0.062987,0.223975,4.434631,-7.309210
1790548846.8634,0.007166,-0.016763,-0.038830,0.005098,-0.011910,-0.038830,1.021650,-0.530217,0.294888,1.297159,2.873071,-9.016902
1790548846.8778,0.001341,-0.022300,-0.032949,0.002468,-0.019183,-0.032949,0.461931,0.387674,0.474581,-0.657568,2.724351,-9.482637
1790548846.8920,-0.002663,-0.013673,-0.030614,-0.001124,-0.015326,-0.030614,-0.589516,0.290543,0.626349,-1.960720,2.947431,-14.023546
1790548846.9059,0.008160,-0.012976,-0.025964,0.005375,-0.013681,-0.025964,-0.109930,-0.824039,1.033087,-2.190688,1.125611,-11.772497
1790548846.9199,-0.001757,-0.012269,-0.002036,0.000383,-0.012693,-0.002036,-0.049223,0.405886,1.256489,1.028863,0.976891,-5.485084
1790548846.9337,-0.009492,-0.014828,-0.003630,-0.006529,-0.014187,-0.003630,0.068549,0.552798,1.268630,-1.730752,0.158931,-6.571797
1790548846.9477,-0.004876,-0.018750,-0.008548,-0.005372,-0.017381,-0.008548,0.171751,-0.210898,0.905602,-3.302199,0.196111,-8.046623
1790548846.9618,-0.010934,-0.019069,-0.015320,-0.009265,-0.018563,-0.015320,-0.139070,0.455666,0.588711,-1.769080,-0.919289,-12.742777
1790548846.9756,-0.017160,-0.023085,-0.018246,-0.014792,-0.021729,-0.018246,0.142611,0.411957,0.587497,-0.465928,-0.584669,-12.393476
1790548846.9896,-0.023177,-0.027430,-0.010456,-0.020661,-0.025719,-0.010456,0.251884,0.292971,0.708911,0.913879,0.865351,-9.599070
1790548847.0033,-0.032983,-0.036807,-0.005444,-0.029287,-0.033480,-0.005444,0.557848,0.551584,0.682200,1.412143,-0.175689,-8.628791
1790548847.0169,-0.036961,-0.043850,-0.000752,-0.034659,-0.040739,-0.000752,0.453432,0.248048,0.614208,0.032335,0.605091,-8.473546
1790548847.0305,-0.034955,-0.041281,0.006241,-0.034866,-0.041119,0.006241,-0.188849,-0.134407,0.406589,-0.580912,1.794851,-11.112707
1790548847.0446,-0.029183,-0.031737,0.010179,-0.030888,-0.034552,0.010179,-0.702432,-0.397876,0.298531,-0.542584,1.534591,-11.578441
1790548847.0585,-0.026909,-0.024100,0.014064,-0.028103,-0.027235,0.014064,-0.650223,-0.327455,0.174688,2.523654,-0.064149,-9.637881
1790548847.0726,-0.019804,-0.017160,0.020766,-0.022294,-0.020183,0.020766,-0.599230,-0.700197,0.190472,2.906934,-0.026969,-9.948371
1790548847.0866,-0.015459,-0.006096,0.028119,-0.017509,-0.010322,0.028119,-0.874840,-0.515647,0.059345,3.136902,0.233291,-9.055714
1790548847.1006,-0.005539,0.008567,0.032077,-0.009130,0.002900,0.032077,-1.115240,-0.865320,-0.018360,2.446998,0.642271,-9.288581
1790548847.1148,0.006067,0.026605,0.041003,0.001508,0.019493,0.041003,-1.343499,-1.046227,-0.014718,2.830278,0.567911,-7.580888
1790548847.1292,-0.004388,0.029681,0.037852,-0.002619,0.026625,0.037852,-0.411037,0.766487,-0.157987,0.568927,-2.518028,-18.874945
1790548847.1432,-0.003264,0.022593,0.043268,-0.003071,0.023802,0.043268,0.568775,0.324539,-0.710421,-5.295254,3.319231,-11.966553
1790548847.1573,0.018347,0.023344,0.047655,0.011922,0.023481,0.047655,0.157181,-1.194353,-1.084377,-3.072231,5.735931,-9.909560
1790548847.1712,0.015855,0.020615,0.039405,0.014675,0.021475,0.039405,0.294379,0.224979,-0.952036,1.603783,2.464091,-6.688231
1790548847.1851,0.022057,0.014482,0.035495,0.019843,0.016580,0.035495,0.578488,-0.089483,-0.612076,-3.187215,3.096151,-6.843476
1790548847.1989,0.037965,0.006555,0.023104,0.032528,0.009563,0.023104,0.551777,-0.794900,-0.640001,-3.992103,1.348691,-8.551168
1790548847.2127,0.045573,-0.002951,0.019070,0.041660,0.000803,0.019070,0.732684,-0.433086,-0.695852,-0.504256,3.467951,-12.936833
1790548847.2267,0.038711,0.000021,0.017475,0.039595,0.000256,0.017475,-0.080791,0.607434,-0.859761,0.453943,5.364131,-12.160609
1790548847.2402,0.028617,0.007027,0.014358,0.031911,0.004996,0.014358,-0.394039,0.846620,-0.792983,0.607255,4.025651,-9.793126
1790548847.2538,0.024488,0.010271,-0.001237,0.026715,0.008689,-0.001237,-0.192492,0.605006,-0.687353,-2.343999,2.241011,-8.007811
1790548847.2678,0.016224,0.012567,-0.009625,0.019371,0.011403,-0.009625,-0.073506,0.822337,-0.567152,-1.462456,2.575631,-7.386832
1790548847.2817,0.007860,0.014596,-0.017347,0.011314,0.013638,-0.017347,-0.136641,0.727634,-0.264831,-0.772552,1.608951,-7.891378
1790548847.2957,0.009329,0.007026,-0.026202,0.009924,0.009009,-0.026202,0.453432,-0.068843,0.092127,-1.232488,0.753811,-15.964105
1790548847.3096,0.010584,-0.003014,-0.012850,0.010386,0.000593,-0.012850,0.824959,-0.163546,0.206256,0.645583,3.728211,-10.918651
1790548847.3237,0.011267,-0.007860,0.015103,0.011003,-0.005324,0.015103,0.614913,-0.235181,0.422373,1.488799,4.843611,-7.115154
1790548847.3376,0.001443,-0.011938,0.025109,0.004311,-0.009954,0.025109,0.319876,0.609862,0.725909,-0.159304,3.058971,-14.334035
1790548847.3516,-0.004707,-0.007413,0.039187,-0.002001,-0.008175,0.039187,-0.272625,0.324539,0.909244,-0.389272,3.765391,-13.907112
1790548847.3656,0.000723,-0.007098,0.048039,-0.000094,-0.007421,0.048039,0.005413,-0.451298,1.161786,-1.539112,1.980751,-7.658511
1790548847.3800,-0.007864,-0.008140,0.063649,-0.005533,-0.007924,0.063649,-0.026154,0.305113,1.286842,1.258831,0.270471,-7.503266
1790548847.3938,-0.011342,-0.011184,0.054740,-0.009599,-0.010206,0.054740,0.058836,0.229836,1.178784,-1.654096,-0.212869,-7.270399
1790548847.4078,-0.009145,-0.017412,0.043620,-0.009281,-0.015250,0.043620,0.281024,-0.102839,0.943240,-3.647151,-0.621849,-12.044175
1790548847.4218,-0.013755,-0.019538,0.035215,-0.012413,-0.018251,0.035215,-0.015227,0.335466,0.673701,-1.654096,-0.882109,-12.315854
1790548847.4358,-0.018961,-0.024285,0.032880,-0.016997,-0.022475,0.032880,0.211817,0.324539,0.656703,-0.504256,-0.138509,-11.966553
1790548847.4497,-0.024599,-0.030853,0.032930,-0.022319,-0.028340,0.032930,0.350230,0.311183,0.666416,0.453943,-0.101329,-9.793126
1790548847.4634,-0.034422,-0.039297,0.035214,-0.030791,-0.036010,0.035214,0.508068,0.586794,0.644561,1.067191,0.047391,-8.473546
1790548847.4770,-0.038157,-0.046467,0.038236,-0.035947,-0.043330,0.038236,0.440076,0.181270,0.560786,0.798895,0.344831,-9.055714
1790548847.4907,-0.036035,-0.046074,0.045567,-0.036008,-0.045251,0.045567,-0.052866,-0.105267,0.461226,-1.347472,1.385871,-11.035084
1790548847.5047,-0.033300,-0.040059,0.047456,-0.034113,-0.041616,0.047456,-0.502098,-0.249750,0.416303,0.530599,0.642271,-11.384385
1790548847.5186,-0.030476,-0.032721,0.051970,-0.031567,-0.035389,0.051970,-0.608943,-0.369950,0.288818,2.600310,0.307651,-10.375294
1790548847.5326,-0.025218,-0.024893,0.059161,-0.027123,-0.028042,0.059161,-0.628369,-0.567855,0.254822,2.868606,0.530731,-9.909560
1790548847.5465,-0.017506,-0.012175,0.065281,-0.020391,-0.016935,0.065281,-0.969543,-0.730551,0.149191,2.561982,0.642271,-9.133336
1790548847.5605,-0.008179,0.003998,0.070829,-0.011843,-0.002282,0.070829,-1.240297,-0.855607,0.110339,2.446998,0.419191,-8.589979
1790548847.5745,0.003702,0.024108,0.081955,-0.000962,0.016191,0.081955,-1.484339,-1.091151,0.092127,2.715294,0.828171,-7.309210
1790548847.5885,-0.002726,0.033050,0.082559,-0.002197,0.027992,0.082559,-0.729143,0.323325,0.135836,2.715294,0.790991,-12.936833
1790548847.6025,-0.009830,0.021733,0.074851,-0.007540,0.023611,0.074851,0.699903,0.647501,-0.365605,-1.232488,0.010211,-18.874945
1790548847.6166,0.007028,0.022930,0.109750,0.002657,0.023134,0.109750,0.290737,-0.858035,-1.028526,-2.267343,6.144910,-5.873196
1790548847.6309,0.009050,0.019630,0.099581,0.007132,0.020681,0.099581,0.232458,-0.051845,-0.757773,0.607255,1.162791,-6.106063
1790548847.6450,0.015153,0.018807,0.097018,0.012747,0.019369,0.097018,0.226387,0.012504,-0.669140,-3.187215,2.501271,-4.553616
1790548847.6588,0.024636,0.010170,0.089287,0.021070,0.012930,0.089287,0.612484,-0.547215,-0.578080,-0.849208,1.906391,-11.229140
1790548847.6728,0.031335,0.005283,0.080103,0.028256,0.007577,0.080103,0.369656,-0.306815,-0.835478,-0.810880,2.798711,-12.315854
1790548847.6868,0.026840,0.004672,0.072611,0.027264,0.005543,0.072611,0.100116,0.421670,-0.879187,1.028863,3.467951,-11.811308
1790548847.7005,0.021871,0.011065,0.069722,0.023489,0.009409,0.069722,-0.287195,0.584365,-0.784484,-1.040848,3.802571,-7.309210
1790548847.7141,0.013521,0.017417,0.062138,0.016512,0.015015,0.062138,-0.347902,0.839335,-0.723777,-1.040848,2.984611,-7.542077
1790548847.7281,0.004557,0.020197,0.049710,0.008143,0.018642,0.049710,-0.162138,0.859976,-0.615718,-1.347472,2.426911,-9.715504
1790548847.7421,0.004177,0.019239,0.040251,0.005367,0.019060,0.040251,0.040623,0.154559,-0.244191,-1.347472,1.720491,-11.656063
1790548847.7560,0.011665,0.006834,0.038723,0.009775,0.010502,0.038723,0.872311,-0.520504,-0.032930,-0.427600,2.055111,-13.829490
1790548847.7700,0.010830,0.002676,0.062547,0.010514,0.005024,0.062547,0.559062,-0.084627,0.181973,1.450471,4.732071,-6.959909
1790548847.7840,0.013461,-0.009747,0.073660,0.012577,-0.005316,0.073660,0.909949,-0.332312,0.412660,1.220503,2.092291,-10.491728
1790548847.7980,0.010182,-0.016664,0.082531,0.010901,-0.013259,0.082531,0.595486,0.214052,0.600852,-1.117504,3.133331,-9.327392
1790548847.8118,-0.004729,-0.007061,0.099398,-0.000040,-0.008921,0.099398,-0.576161,0.929182,0.772046,0.952207,4.769251,-12.781588
1790548847.8258,0.008768,-0.005974,0.089927,0.006126,-0.006858,0.089927,-0.136641,-0.913886,1.029444,-4.030431,1.311511,-10.724595
1790548847.8399,-0.001887,-0.004423,0.115026,0.000517,-0.005154,0.115026,-0.118429,0.358535,1.142360,2.523654,1.051251,-6.455364
1790548847.8538,-0.011540,-0.009520,0.123090,-0.007923,-0.008210,0.123090,0.216674,0.455666,1.130218,1.067191,-0.361589,-8.434735
1790548847.8679,-0.009130,-0.016631,0.117979,-0.008768,-0.014105,0.117979,0.391510,-0.141692,0.980879,-2.650623,0.233291,-9.482637
1790548847.8821,-0.015481,-0.018382,0.108548,-0.013467,-0.017099,0.108548,-0.043152,0.466594,0.585068,-1.769080,-1.105189,-12.859210
1790548847.8961,-0.018488,-0.021400,0.101246,-0.016982,-0.020110,0.101246,0.073405,0.261404,0.462440,-1.845736,-0.584669,-12.277042
1790548847.9102,-0.021620,-0.027735,0.101536,-0.020229,-0.025448,0.101536,0.349015,0.153345,0.503721,0.377287,0.121751,-11.112707
1790548847.9238,-0.034036,-0.036166,0.105960,-0.029894,-0.032951,0.105960,0.503212,0.716707,0.553501,2.140375,-0.212869,-8.318301
1790548847.9376,-0.041063,-0.042680,0.114082,-0.037713,-0.039761,0.114082,0.453432,0.393745,0.503721,1.143847,1.162791,-8.318301
1790548847.9514,-0.043227,-0.043622,0.118261,-0.041573,-0.042464,0.118261,0.038195,0.148488,0.419945,-0.120976,1.162791,-9.909560
1790548847.9654,-0.041563,-0.039156,0.121478,-0.041566,-0.040148,0.121478,-0.345474,-0.093126,0.327670,-0.619240,1.348691,-10.918651
1790548847.9793,-0.036331,-0.032372,0.121278,-0.037901,-0.034705,0.121278,-0.559163,-0.408803,0.211113,0.607255,0.530731,-11.229140
1790548847.9933,-0.032208,-0.027809,0.126153,-0.033916,-0.029878,0.126153,-0.402538,-0.479223,0.138264,3.098574,0.270471,-9.676693
1790548848.0073,-0.024923,-0.018194,0.129599,-0.027621,-0.021699,0.129599,-0.744927,-0.671058,0.052060,2.676966,0.642271,-9.948371
1790548848.0213,-0.011505,-0.003182,0.131636,-0.016340,-0.008737,0.131636,-1.139523,-1.089937,-0.058427,1.910407,0.493551,-8.007811
1790548848.0352,0.001488,0.014054,0.135820,-0.003860,0.007217,0.135820,-1.325286,-1.127575,-0.096065,2.370342,0.344831,-7.076343
1790548848.0492,0.011932,0.033604,0.141276,0.007194,0.025688,0.141276,-1.480697,-0.967308,-0.074211,2.408670,0.344831,-6.261308
1790548848.0632,-0.000819,0.030828,0.130736,0.001585,0.029286,0.130736,0.081904,1.106446,-0.485805,-2.229015,-0.026969,-20.660259
1790548848.0770,0.010882,0.028110,0.122871,0.008093,0.028463,0.122871,0.222745,-0.456154,-1.067379,-5.333582,3.802571,-16.740329
1790548848.0910,0.017756,0.029253,0.129153,0.014857,0.029016,0.129153,0.226387,-0.229110,-1.016385,-0.887536,5.103871,-5.834385
1790548848.1051,0.025922,0.026005,0.116183,0.022602,0.026908,0.116183,0.304092,-0.049417,-0.965391,-3.378855,1.683311,-4.553616
1790548848.1192,0.035875,0.014933,0.098995,0.031893,0.018525,0.098995,0.721757,-0.380878,-0.937466,-2.229015,0.790991,-7.774944
1790548848.1336,0.041348,0.010186,0.088884,0.038512,0.012688,0.088884,0.341731,-0.244894,-0.964177,0.377287,2.389731,-9.831937
1790548848.1475,0.036141,0.014545,0.083251,0.036852,0.013987,0.083251,-0.197348,0.460523,-1.169367,1.833751,3.802571,-8.473546
1790548848.1612,0.024295,0.020714,0.074202,0.028062,0.018696,0.074202,-0.386755,0.987461,-0.919254,1.067191,3.244871,-9.715504
1790548848.1748,0.019918,0.024685,0.062660,0.022361,0.022888,0.062660,-0.260484,0.554012,-0.729848,-1.270816,2.315371,-8.900469
1790548848.1888,0.018016,0.027392,0.054021,0.019319,0.026041,0.054021,-0.075934,0.424099,-0.644858,-2.152360,3.170511,-7.464455
1790548848.2028,0.007739,0.032477,0.053822,0.011213,0.030546,0.053822,-0.199777,0.873331,-0.426312,-0.542584,3.914111,-7.813756
1790548848.2167,0.015412,0.021635,0.045200,0.014153,0.024308,0.045200,0.742398,-0.420944,-0.109421,-2.650623,1.906391,-13.674245
1790548848.2307,0.016795,0.012303,0.065236,0.016003,0.015905,0.065236,0.897808,-0.231538,0.132193,1.565455,5.252591,-8.395923
1790548848.2448,0.014970,0.005549,0.082611,0.015280,0.008656,0.082611,0.705973,-0.014207,0.330099,1.105519,4.434631,-7.309210
1790548848.2587,0.004603,0.001129,0.092717,0.007806,0.003387,0.092717,0.401224,0.657214,0.572927,0.070663,4.397451,-13.790679
1790548848.2727,0.000167,0.005945,0.093648,0.002459,0.005177,0.093648,-0.270197,0.331824,0.683414,-2.497311,4.137191,-12.393476
1790548848.2866,0.007614,0.010400,0.095655,0.006067,0.008834,0.095655,-0.294480,-0.547215,0.840038,-2.305671,2.575631,-9.948371
1790548848.3005,0.000174,0.010210,0.110638,0.001942,0.009797,0.110638,-0.077148,0.217694,0.988164,1.833751,0.307651,-7.348021
1790548848.3144,-0.005389,0.004775,0.115924,-0.003190,0.006282,0.115924,0.253098,0.210410,0.966309,0.453943,-0.138509,-7.580888
1790548848.3284,-0.004383,-0.003616,0.110548,-0.004025,-0.000646,0.110548,0.454646,-0.095554,0.965095,-1.692424,-0.212869,-8.201867
1790548848.3426,-0.007121,-0.005480,0.098880,-0.006193,-0.004030,0.098880,-0.044367,0.235907,0.587497,-2.343999,-1.105189,-11.694875
1790548848.3577,-0.015217,-0.011237,0.091606,-0.012510,-0.009075,0.091606,0.219102,0.504232,0.423587,-0.274288,-1.291089,-12.936833
1790548848.3726,-0.021268,-0.020275,0.088072,-0.018640,-0.016915,0.088072,0.465573,0.374319,0.494008,-0.312616,-0.621849,-10.103616
1790548848.3871,-0.034146,-0.030249,0.093068,-0.029494,-0.026249,0.093068,0.588201,0.727634,0.621493,1.680439,0.084571,-9.249770
1790548848.4018,-0.037717,-0.038146,0.098966,-0.035250,-0.034577,0.098966,0.484999,0.158201,0.538931,0.722239,0.828171,-9.521448
1790548848.4158,-0.033504,-0.034630,0.105951,-0.034028,-0.034614,0.105951,-0.242272,-0.242465,0.370165,-1.270816,1.720491,-9.327392
1790548848.4296,-0.030130,-0.026100,0.106652,-0.031299,-0.028654,0.106652,-0.679363,-0.281318,0.241466,0.492271,0.828171,-11.112707
1790548848.4435,-0.029734,-0.020724,0.105678,-0.030203,-0.023103,0.105678,-0.505741,-0.144120,0.162547,2.293686,-0.361589,-11.850119
1790548848.4576,-0.022760,-0.013546,0.107929,-0.024993,-0.016413,0.107929,-0.596801,-0.644346,0.044775,2.676966,0.158931,-9.948371
1790548848.4714,-0.010137,-0.001898,0.110311,-0.014594,-0.006252,0.110311,-0.890624,-1.025587,-0.006219,1.795423,0.865351,-9.210958
1790548848.4855,-0.000688,0.013793,0.114650,-0.004859,0.007779,0.114650,-1.185660,-0.848322,-0.045071,2.370342,0.530731,-7.697322
1790548848.4996,0.013851,0.032760,0.121264,0.008238,0.025266,0.121264,-1.388422,-1.223492,-0.008647,2.140375,0.939711,-7.192776
1790548848.5136,0.005987,0.036118,0.117149,0.006662,0.032863,0.117149,-0.312692,0.477521,-0.363177,4.401726,1.162791,-14.838581
1790548848.5276,0.006006,0.031687,0.105298,0.006203,0.032040,0.105298,0.282238,0.301470,-0.890114,-2.382327,1.683311,-12.975644
1790548848.5416,0.018038,0.032093,0.105849,0.014488,0.032077,0.105849,0.197248,-0.595781,-1.068593,-0.810880,4.434631,-6.843476
1790548848.5556,0.022500,0.028517,0.091721,0.020097,0.029585,0.091721,0.277381,0.062284,-1.137799,-1.615768,1.460231,-5.873196
1790548848.5696,0.033631,0.020364,0.087071,0.029570,0.023130,0.087071,0.607628,-0.339597,-0.814837,-4.145415,1.683311,-6.649420
1790548848.5834,0.043920,0.008426,0.076868,0.039615,0.012838,0.076868,0.828602,-0.595781,-0.774771,-0.657568,1.832031,-12.082986
1790548848.5974,0.050182,0.003329,0.065005,0.047012,0.006182,0.065005,0.370870,-0.271605,-1.096518,-0.159304,2.798711,-11.462007
1790548848.6114,0.040997,0.006520,0.058675,0.042801,0.006418,0.058675,-0.123286,0.765273,-1.049167,1.143847,3.988471,-9.288581
1790548848.6253,0.032350,0.011857,0.048158,0.035486,0.010225,0.048158,-0.273839,0.896400,-1.054023,-1.155832,3.244871,-7.619700
1790548848.6395,0.027040,0.012114,0.031391,0.029574,0.011547,0.031391,-0.031011,0.676640,-0.841549,-2.114032,1.608951,-8.473546
1790548848.6536,0.020321,0.009901,0.018387,0.023097,0.010395,0.018387,0.175393,0.743418,-0.721349,-2.075704,2.129471,-9.249770
1790548848.6675,0.010711,0.009880,0.019728,0.014427,0.010035,0.019728,0.098902,0.743418,-0.275758,0.147319,3.021791,-8.706413
1790548848.6815,0.017124,-0.000596,0.015047,0.016315,0.002593,0.015047,0.703545,-0.402732,-0.064498,-1.500784,1.683311,-17.283686
1790548848.6954,0.017668,-0.012791,0.037105,0.017262,-0.008176,0.037105,1.138208,-0.110124,0.230539,0.377287,5.326951,-8.163056
1790548848.7095,0.001910,-0.010955,0.046601,0.006516,-0.010121,0.046601,-0.077148,1.028741,0.537717,0.645583,3.579491,-14.178791
1790548848.7233,0.006024,-0.012042,0.049497,0.006171,-0.011466,0.049497,0.009056,-0.322599,0.923814,-2.842263,1.088431,-14.683336
1790548848.7372,0.002015,-0.010069,0.062668,0.003262,-0.010488,0.062668,-0.197348,0.097494,1.193354,0.147319,0.753811,-7.891378
1790548848.7511,-0.004069,-0.012326,0.066668,-0.001870,-0.011775,0.066668,-0.029797,0.217694,1.194568,0.415615,-0.659029,-5.562707
1790548848.7650,-0.004267,-0.018169,0.073844,-0.003548,-0.016250,0.073844,0.266454,-0.147762,1.176356,-0.120976,-0.361589,-6.998721
1790548848.7789,-0.005870,-0.020146,0.080448,-0.005173,-0.018977,0.080448,0.010270,-0.014207,1.040372,-0.274288,-0.250049,-10.569350
1790548848.7931,-0.008749,-0.022462,0.080533,-0.007676,-0.021417,0.080533,-0.004300,0.203125,0.773260,-2.075704,-1.179549,-12.160609
1790548848.8072,-0.013487,-0.027085,0.080822,-0.011744,-0.025385,0.080822,0.179036,0.312398,0.676129,-1.155832,-0.882109,-12.781588
1790548848.8212,-0.021472,-0.032821,0.081709,-0.018553,-0.030590,0.081709,0.283452,0.445953,0.611779,0.990535,-0.324409,-9.599070
1790548848.8352,-0.028341,-0.041785,0.083789,-0.025404,-0.038426,0.083789,0.535993,0.380390,0.574141,0.913879,-0.026969,-8.978091
1790548848.8489,-0.035811,-0.049817,0.085104,-0.032689,-0.046400,0.085104,0.493498,0.461737,0.486723,0.837223,0.047391,-8.900469
1790548848.8625,-0.040258,-0.051198,0.090020,-0.037987,-0.049759,0.090020,0.080690,0.305113,0.385949,0.185647,1.162791,-9.987182
1790548848.8765,-0.039112,-0.048544,0.092199,-0.038775,-0.048909,0.092199,-0.255627,-0.123479,0.347097,0.568927,0.530731,-11.112707
1790548848.8907,-0.036774,-0.042498,0.093000,-0.037374,-0.044421,0.093000,-0.482672,-0.219397,0.231753,0.952207,0.642271,-10.569350
1790548848.9049,-0.032895,-0.037399,0.092505,-0.034239,-0.039506,0.092505,-0.502098,-0.439156,0.202614,2.945262,-0.919289,-10.608161
1790548848.9187,-0.023702,-0.027707,0.091972,-0.026863,-0.031247,0.091972,-0.777708,-0.779116,0.107911,1.833751,0.270471,-9.443825
1790548848.9327,-0.016182,-0.012673,0.092343,-0.019387,-0.018245,0.092343,-1.169876,-0.711124,0.053274,2.561982,0.121751,-8.706413
1790548848.9466,-0.005533,0.005496,0.094392,-0.009689,-0.001626,0.094392,-1.392064,-0.952739,0.065416,2.638638,0.270471,-8.706413
1790548848.9605,0.004579,0.024700,0.098420,0.000298,0.016802,0.098420,-1.495266,-0.952739,0.062987,2.791950,0.121751,-8.124245
1790548848.9744,-0.001990,0.032662,0.099896,-0.001303,0.027904,0.099896,-0.763139,0.392531,0.025349,2.446998,-1.997508,-16.002917
1790548848.9884,-0.003458,0.023903,0.107519,-0.002812,0.025103,0.107519,0.618555,0.441097,-0.632716,-4.260399,2.017931,-13.324944
1790548849.0023,0.016859,0.018875,0.110371,0.010957,0.020744,0.110371,0.424292,-1.086294,-1.122015,-4.567022,4.137191,-14.722147
1790548849.0163,0.020394,0.017066,0.112056,0.017563,0.018169,0.112056,0.209389,0.052571,-0.809981,-1.807408,2.203831,-6.688231
1790548849.0303,0.032071,0.012850,0.125999,0.027718,0.014446,0.125999,0.378155,-0.450084,-0.574437,-4.643678,2.649991,-8.163056
1790548849.0443,0.048494,-0.001563,0.124505,0.042261,0.003239,0.124505,0.968228,-0.865320,-0.592649,-3.378855,0.605091,-8.085434
1790548849.0583,0.059392,-0.009393,0.128132,0.054253,-0.005603,0.128132,0.687761,-0.613993,-0.720134,-1.270816,3.876931,-9.094525
1790548849.0723,0.049602,-0.004367,0.124647,0.050997,-0.004738,0.124647,-0.188849,0.716707,-0.720134,1.642111,5.215411,-9.443825
1790548849.0858,0.036963,0.004291,0.120608,0.041173,0.001582,0.120608,-0.511811,1.034812,-0.671569,0.262303,4.211551,-9.599070
1790548849.0996,0.029138,0.006129,0.107015,0.032749,0.004765,0.107015,-0.187635,0.827194,-0.637573,-2.573967,1.162791,-10.414105
1790548849.1139,0.026688,0.006178,0.105941,0.028506,0.005754,0.105941,0.075833,0.387674,-0.406886,-2.152360,2.687171,-8.163056
1790548849.1282,0.012334,0.011872,0.111169,0.017185,0.010037,0.111169,-0.165781,1.150156,-0.259975,-0.887536,3.542311,-5.446273
1790548849.1425,0.012663,0.009968,0.092529,0.014020,0.009988,0.092529,-0.028583,0.096280,0.020492,-3.033903,-1.068009,-14.450469
1790548849.1565,0.020731,-0.005852,0.099867,0.018718,-0.001100,0.099867,1.172204,-0.622492,0.158904,0.185647,3.021791,-12.432287
1790548849.1706,0.012221,-0.016327,0.119955,0.014170,-0.011759,0.119955,1.042291,0.418028,0.528004,1.565455,5.141051,-6.727042
1790548849.1845,-0.002216,-0.016862,0.128648,0.002700,-0.015331,0.128648,0.070977,0.968034,0.608137,-0.044320,3.282051,-15.265504
1790548849.1984,-0.001323,-0.016441,0.138907,-0.000116,-0.016108,0.138907,-0.050437,-0.127122,0.895889,-1.539112,2.092291,-13.868301
1790548849.2122,-0.000773,-0.017203,0.158503,-0.000576,-0.016875,0.158503,0.085547,-0.195114,1.189711,-0.274288,1.869211,-7.930189
1790548849.2261,-0.009796,-0.020719,0.165251,-0.007030,-0.019566,0.165251,0.137755,0.470236,1.156929,0.300631,0.047391,-7.503266
1790548849.2401,-0.006921,-0.025863,0.167729,-0.006954,-0.023974,0.167729,0.250670,-0.206041,1.115648,-1.845736,0.084571,-7.076343
1790548849.2541,-0.008943,-0.030119,0.162877,-0.008346,-0.028276,0.162877,0.157181,0.186127,0.774475,-2.727279,-0.659029,-11.772497
1790548849.2680,-0.015650,-0.033243,0.160011,-0.013459,-0.031753,0.160011,0.077048,0.448381,0.744121,-0.887536,-0.659029,-11.578441
1790548849.2819,-0.024094,-0.039298,0.163198,-0.020904,-0.037035,0.163198,0.324733,0.520016,0.832753,-0.005993,0.084571,-11.617252
1790548849.2959,-0.030179,-0.046647,0.170381,-0.027397,-0.043763,0.170381,0.454646,0.384032,0.802400,-0.312616,0.567911,-8.822846
1790548849.3095,-0.037853,-0.052446,0.177091,-0.034716,-0.049841,0.177091,0.366013,0.489662,0.740479,0.300631,0.642271,-8.357112
1790548849.3231,-0.042078,-0.054563,0.178971,-0.039869,-0.053146,0.178971,0.050337,0.268688,0.617850,0.070663,0.084571,-9.521448
1790548849.3371,-0.042279,-0.050563,0.183128,-0.041556,-0.051338,0.183128,-0.330904,-0.006922,0.413874,0.108991,0.902531,-10.220049
1790548849.3510,-0.039915,-0.044049,0.181191,-0.040407,-0.046236,0.181191,-0.560377,-0.271605,0.315529,1.757095,0.196111,-11.500819
1790548849.3650,-0.037413,-0.034580,0.180432,-0.038312,-0.038077,0.180432,-0.731571,-0.360237,0.168618,3.481854,0.753811,-10.841028
1790548849.3789,-0.026681,-0.025260,0.179774,-0.030170,-0.029105,0.179774,-0.743712,-0.928456,0.189258,2.370342,0.493551,-9.637881
1790548849.3934,-0.016330,-0.009245,0.180307,-0.020482,-0.015203,0.180307,-1.172305,-0.938169,0.134622,2.906934,0.419191,-7.542077
1790548849.4076,-0.005754,0.008753,0.180741,-0.010172,0.001566,0.180741,-1.371424,-0.992805,0.166189,2.945262,0.121751,-7.697322
1790548849.4217,0.007998,0.027487,0.181921,0.002547,0.019711,0.181921,-1.457628,-1.228349,0.168618,2.370342,-0.138509,-6.649420
1790548849.4358,0.003537,0.028774,0.172317,0.003240,0.026055,0.172317,-0.296908,0.320897,-0.323110,1.987063,-2.629568,-16.740329
1790548849.4498,0.006857,0.021009,0.167660,0.005772,0.022523,0.167660,0.512925,-0.011778,-0.646072,-2.573967,1.794851,-16.468651
1790548849.4644,0.019243,0.020223,0.182012,0.015201,0.020913,0.182012,0.352658,-0.723266,-0.964177,0.683911,5.438491,-6.338930
1790548849.4784,0.027660,0.019848,0.193941,0.023923,0.020167,0.193941,0.238529,-0.230324,-0.795411,-2.267343,2.984611,-4.708860
1790548849.4923,0.036128,0.011564,0.190039,0.032466,0.014145,0.190039,0.605199,-0.417302,-0.551369,-1.692424,1.906391,-9.055714
1790548849.5063,0.050923,0.001181,0.185536,0.045386,0.005070,0.185536,0.760610,-0.904173,-0.687353,-1.270816,2.687171,-11.539630
1790548849.5203,0.054617,-0.004544,0.176300,0.051848,-0.001660,0.176300,0.453432,-0.136835,-0.987246,0.223975,3.207691,-10.608161
1790548849.5340,0.043688,-0.000686,0.169394,0.046136,-0.000978,0.169394,-0.125714,0.830836,-0.942322,1.987063,4.732071,-8.900469
1790548849.5475,0.033693,0.007255,0.160880,0.037426,0.004785,0.160880,-0.442605,0.975319,-0.988460,-0.887536,3.802571,-7.852567
1790548849.5612,0.027962,0.008310,0.144443,0.030801,0.007252,0.144443,-0.103860,0.733705,-0.888900,-2.343999,1.497411,-9.094525
1790548849.5753,0.024199,0.006180,0.130697,0.026180,0.006502,0.130697,0.137755,0.567367,-0.689781,-2.803935,1.571771,-9.055714
1790548849.5893,0.012743,0.008454,0.128531,0.016774,0.007868,0.128531,-0.086862,0.889115,-0.344964,0.108991,3.207691,-10.258860
1790548849.6032,0.017349,0.003988,0.126718,0.017177,0.005152,0.126718,0.333232,-0.236395,-0.182269,-1.807408,3.170511,-15.925294
1790548849.6174,0.026774,-0.011294,0.133065,0.023895,-0.006360,0.133065,1.160062,-0.589710,0.096983,-1.692424,2.687171,-8.900469
1790548849.6314,0.008527,-0.008936,0.146812,0.013137,-0.008163,0.146812,-0.006728,1.178081,0.468511,1.373815,4.806431,-10.724595
1790548849.6458,0.006907,-0.009366,0.149686,0.008776,-0.009005,0.149686,-0.001872,0.138775,0.713767,-3.417183,1.794851,-14.295224
1790548849.6599,0.008266,-0.011544,0.168423,0.008419,-0.010782,0.168423,0.222745,-0.212112,1.050085,-0.580912,1.869211,-6.455364
1790548849.6740,-0.001719,-0.016118,0.173105,0.001323,-0.014517,0.173105,0.175393,0.433812,1.161786,1.297159,-0.473129,-6.921098
1790548849.6880,-0.006359,-0.019052,0.181899,-0.004054,-0.017692,0.181899,0.112258,0.216480,1.163000,-0.619240,0.270471,-7.891378
1790548849.7019,-0.006731,-0.024593,0.183576,-0.005928,-0.022522,0.183576,0.274953,0.024646,0.855822,-2.075704,-0.138509,-10.996273
1790548849.7159,-0.011596,-0.026580,0.185460,-0.009896,-0.025362,0.185460,0.023625,0.282044,0.767190,-0.504256,-0.138509,-11.423196
1790548849.7299,-0.019923,-0.033503,0.185416,-0.016915,-0.031061,0.185416,0.345373,0.511517,0.770832,-0.005993,-0.733389,-11.811308
1790548849.7438,-0.025558,-0.041120,0.189411,-0.022965,-0.038102,0.189411,0.431577,0.292971,0.796329,0.492271,-0.064149,-9.327392
1790548849.7577,-0.031667,-0.049063,0.193686,-0.029056,-0.045775,0.193686,0.458288,0.324539,0.781759,0.722239,-0.064149,-9.249770
1790548849.7713,-0.039579,-0.055233,0.198114,-0.036422,-0.052395,0.198114,0.346587,0.459309,0.755048,1.028863,0.047391,-9.249770
1790548849.7849,-0.040864,-0.056447,0.204507,-0.039531,-0.055231,0.204507,0.026054,0.045286,0.606923,0.223975,0.716631,-10.414105
1790548849.7989,-0.040307,-0.052701,0.208756,-0.040074,-0.053460,0.208756,-0.335761,-0.127122,0.501293,1.067191,0.605091,-10.608161
1790548849.8128,-0.040539,-0.045011,0.211138,-0.040400,-0.047545,0.211138,-0.604086,-0.093126,0.347097,1.680439,0.753811,-10.103616
1790548849.8268,-0.031344,-0.036158,0.212531,-0.034061,-0.039574,0.212531,-0.735213,-0.803399,0.351953,2.102047,0.084571,-10.569350
1790548849.8408,-0.025372,-0.023850,0.215280,-0.027979,-0.028567,0.215280,-0.947688,-0.628563,0.294888,2.830278,0.567911,-9.288581
1790548849.8546,-0.016972,-0.009026,0.220073,-0.020274,-0.014888,0.220073,-1.167448,-0.881104,0.322814,3.520182,0.196111,-8.667602
1790548849.8685,-0.007299,0.009419,0.226007,-0.011192,0.002127,0.226007,-1.401777,-0.984306,0.268177,3.136902,0.493551,-7.309210
1790548849.8825,0.003894,0.030520,0.229449,-0.000632,0.022002,0.229449,-1.591184,-1.029229,0.185616,2.293686,0.493551,-7.309210
1790548849.8974,-0.002941,0.034418,0.222927,-0.002248,0.030693,0.222927,-0.353973,0.438668,-0.199267,2.715294,0.642271,-19.806413
1790548849.9114,0.000145,0.029718,0.221952,-0.000573,0.030010,0.221952,0.339302,0.044072,-0.607219,-3.033903,2.538451,-13.557812
1790548849.9254,0.018610,0.028151,0.235773,0.012855,0.028709,0.235773,0.352658,-0.946668,-0.988460,-3.302199,5.438491,-7.891378
1790548849.9394,0.026461,0.022605,0.243043,0.022379,0.024436,0.243043,0.574846,-0.195114,-0.703136,-1.539112,1.794851,-3.156413
1790548849.9534,0.041774,0.012678,0.238966,0.035956,0.016206,0.238966,0.684119,-0.726908,-0.642429,-3.493839,1.051251,-6.843476
1790548849.9673,0.060102,0.001803,0.233995,0.052858,0.006124,0.233995,0.799462,-1.166428,-0.766272,-1.117504,2.612811,-10.996273
1790548849.9812,0.063641,-0.004321,0.228016,0.060406,-0.001188,0.228016,0.542064,-0.065201,-1.086805,-0.619240,4.100011,-9.482637
1790548849.9949,0.052693,0.000163,0.222272,0.055007,-0.000242,0.222272,-0.168209,0.835693,-0.960535,1.872079,4.769251,-8.473546
1790548850.0085,0.044587,0.005874,0.214857,0.047713,0.004039,0.214857,-0.295694,0.762844,-0.916825,-0.235960,3.691031,-8.046623
1790548850.0221,0.040108,0.004923,0.199117,0.042389,0.004658,0.199117,0.046694,0.646287,-0.727419,-2.842263,1.534591,-8.473546
1790548850.0361,0.033779,0.007544,0.197033,0.036362,0.006678,0.197033,-0.010371,0.668141,-0.530728,-1.692424,3.876931,-7.115154
1790548850.0500,0.019690,0.010779,0.192025,0.024692,0.009549,0.192025,-0.143926,1.169582,-0.425098,-1.079176,3.170511,-9.055714
1790548850.0639,0.016701,0.004528,0.183056,0.019098,0.006034,0.183056,0.378155,0.275973,-0.206552,-0.580912,1.162791,-17.477742
1790548850.0779,0.015909,-0.007763,0.186939,0.016866,-0.003624,0.186939,0.929375,0.071997,0.134622,-0.964192,3.653851,-14.838581
1790548850.0918,0.003013,-0.001235,0.202392,0.007169,-0.001951,0.202392,-0.261698,0.849048,0.526790,0.070663,5.587211,-10.025993
1790548850.1058,0.001981,-0.000702,0.195656,0.003537,-0.001077,0.195656,-0.166995,0.103565,0.706483,-2.420655,-0.138509,-10.375294
1790548850.1198,0.000392,-0.006225,0.205590,0.001336,-0.004680,0.205590,0.339302,-0.046989,0.935955,0.147319,0.679451,-6.959909
1790548850.1340,-0.011071,-0.011243,0.217937,-0.007349,-0.009274,0.217937,0.306520,0.533371,0.966309,1.642111,0.753811,-6.882287
1790548850.1486,-0.009893,-0.017860,0.221477,-0.009130,-0.015285,0.221477,0.366013,-0.050631,1.023374,-2.650623,0.493551,-8.357112
1790548850.1627,-0.002510,-0.020630,0.223410,-0.004496,-0.019026,0.223410,0.137755,-0.407589,0.761119,-3.762135,0.865351,-9.249770
1790548850.1767,-0.012082,-0.024024,0.220754,-0.009807,-0.022524,0.220754,0.103759,0.571010,0.593567,0.875551,-0.584669,-11.345574
1790548850.1907,-0.020221,-0.033271,0.221987,-0.017097,-0.030047,0.221987,0.557848,0.467808,0.620278,0.990535,-0.026969,-10.879840
1790548850.2046,-0.028164,-0.042737,0.229375,-0.024844,-0.038930,0.229375,0.630696,0.433812,0.690699,1.067191,0.753811,-8.551168
1790548850.2186,-0.037177,-0.054094,0.233226,-0.033477,-0.049545,0.233226,0.709616,0.541870,0.690699,0.837223,0.047391,-9.754315
1790548850.2323,-0.043042,-0.060789,0.239319,-0.040173,-0.057416,0.239319,0.407294,0.356107,0.711339,0.492271,0.456371,-10.685784
1790548850.2461,-0.046346,-0.060871,0.246215,-0.044494,-0.059835,0.246215,-0.026154,0.201911,0.537717,0.300631,1.162791,-10.724595
1790548850.2601,-0.046485,-0.056357,0.252269,-0.045888,-0.057400,0.252269,-0.345474,-0.039704,0.416303,0.683911,1.237151,-10.375294
1790548850.2739,-0.042391,-0.049965,0.252695,-0.043440,-0.052195,0.252695,-0.549450,-0.416088,0.248751,2.370342,0.084571,-11.578441
1790548850.2879,-0.035078,-0.039170,0.257238,-0.037587,-0.043077,0.257238,-0.805634,-0.694126,0.185616,3.060246,1.051251,-10.414105
1790548850.3019,-0.027363,-0.027245,0.260576,-0.030430,-0.031995,0.260576,-0.927048,-0.762118,0.177117,3.443526,0.344831,-9.676693
1790548850.3159,-0.019889,-0.013762,0.264187,-0.023051,-0.019232,0.264187,-1.058175,-0.764546,0.217183,3.021918,0.047391,-8.124245
1790548850.3299,-0.008980,0.002122,0.268510,-0.013201,-0.004284,0.268510,-1.247581,-1.017088,0.248751,2.485326,0.010211,-7.348021
1790548850.3437,0.007972,0.023368,0.272783,0.001620,0.015072,0.272783,-1.632464,-1.432325,0.174688,1.603783,0.307651,-6.300119
1790548850.3576,0.019552,0.044139,0.274579,0.014172,0.035419,0.274579,-1.572971,-0.997662,0.042347,2.025391,0.753811,-9.094525
1790548850.3715,0.002033,0.033823,0.263718,0.005675,0.034302,0.263718,0.569989,1.356560,-0.439668,1.105519,-1.811608,-21.281238
1790548850.3855,0.011799,0.025682,0.274255,0.009962,0.028268,0.274255,0.812818,-0.220611,-1.038240,-5.870174,6.553890,-9.599070
1790548850.3999,0.018218,0.028809,0.272547,0.015741,0.028646,0.272547,0.002985,-0.422158,-0.748060,1.373815,3.876931,-5.795574
1790548850.4140,0.027415,0.026616,0.267370,0.023913,0.027225,0.267370,0.264026,-0.128336,-0.809981,-3.378855,1.794851,-3.855014
1790548850.4291,0.040759,0.013133,0.258396,0.035705,0.017361,0.258396,0.873525,-0.779116,-0.724991,0.032335,1.757671,-10.530539
1790548850.4444,0.049192,0.007533,0.246642,0.045146,0.010481,0.246642,0.408508,-0.282532,-1.044310,-1.922392,3.133331,-9.754315
1790548850.4588,0.043083,0.006688,0.236411,0.043702,0.007826,0.236411,0.151110,0.528515,-1.054023,1.258831,3.876931,-9.288581
1790548850.4730,0.041053,0.008510,0.222591,0.041848,0.008305,0.222591,-0.085647,0.415600,-1.052809,-1.615768,2.984611,-9.599070
1790548850.4879,0.037693,0.007026,0.209681,0.038940,0.007410,0.209681,0.114686,0.470236,-0.795411,-1.730752,2.129471,-8.589979
1790548850.5020,0.034157,0.007630,0.202733,0.035592,0.007564,0.202733,0.067334,0.488448,-0.678854,-1.922392,3.542311,-8.628791
1790548850.5160,0.020150,0.012572,0.198336,0.024782,0.011069,0.198336,-0.214346,1.187794,-0.453023,-1.654096,4.471811,-9.870749
1790548850.5304,0.021875,0.012043,0.195921,0.022747,0.011751,0.195921,0.074619,0.001577,-0.068140,-3.800463,4.843611,-18.913756
1790548850.5446,0.021251,0.006016,0.200426,0.021700,0.007736,0.200426,0.483785,0.085353,0.330099,-2.803935,4.360271,-15.420749
1790548850.5585,0.019985,0.012690,0.211233,0.020500,0.011204,0.211233,-0.321191,0.132705,0.592353,-2.305671,3.914111,-8.201867
1790548850.5726,0.017986,0.007203,0.210309,0.018740,0.008403,0.210309,0.221531,-0.029991,0.883747,0.185647,-0.770569,-8.124245
1790548850.5872,0.006378,-0.000573,0.223722,0.010087,0.002120,0.223722,0.504426,0.540656,0.971166,1.143847,0.865351,-6.804665
1790548850.6014,-0.002528,-0.005633,0.238826,0.001256,-0.003307,0.238826,0.338088,0.441097,1.193354,0.070663,1.274331,-8.046623
1790548850.6157,-0.002573,-0.010715,0.244621,-0.001424,-0.008493,0.244621,0.277381,-0.017849,1.025802,-2.842263,0.865351,-12.238231
1790548850.6297,-0.006422,-0.015852,0.245117,-0.004923,-0.013644,0.245117,0.230030,0.222551,0.814541,-1.194160,-0.435949,-12.509909
1790548850.6440,-0.014448,-0.023812,0.247312,-0.011590,-0.020762,0.247312,0.401224,0.430169,0.869178,0.338959,-0.621849,-8.745224
1790548850.6585,-0.023754,-0.034672,0.255394,-0.020105,-0.030499,0.255394,0.620983,0.459309,1.022160,0.875551,-0.175689,-7.891378
1790548850.6726,-0.033532,-0.049322,0.261946,-0.029504,-0.043675,0.261946,0.883238,0.561297,1.010018,0.453943,-0.473129,-8.628791
1790548850.6863,-0.042094,-0.055913,0.273407,-0.038317,-0.052242,0.273407,0.440076,0.512731,0.898317,0.875551,1.311511,-11.306763
1790548850.7001,-0.043116,-0.055673,0.281423,-0.041677,-0.054643,0.281423,-0.068649,0.074426,0.661559,-0.772552,1.088431,-11.500819
1790548850.7141,-0.043460,-0.049514,0.288947,-0.042925,-0.051053,0.288947,-0.453532,-0.037275,0.467297,0.683911,1.423051,-9.909560
1790548850.7281,-0.041099,-0.045248,0.291075,-0.041647,-0.046989,0.291075,-0.419536,-0.291031,0.424802,1.795423,-0.175689,-10.724595
1790548850.7419,-0.035094,-0.036707,0.295703,-0.037060,-0.039792,0.295703,-0.676935,-0.606708,0.274248,2.791950,0.642271,-10.181238
1790548850.7558,-0.026464,-0.025770,0.299841,-0.029643,-0.029977,0.299841,-0.863912,-0.809470,0.226896,3.060246,0.456371,-10.491728
1790548850.7697,-0.018005,-0.012226,0.305391,-0.021497,-0.017552,0.305391,-1.076387,-0.868963,0.157690,3.596838,-0.101329,-8.163056
1790548850.7836,-0.007987,0.002359,0.309612,-0.012040,-0.003614,0.309612,-1.169876,-0.947882,0.203828,2.523654,-0.101329,-7.697322
1790548850.7975,0.004831,0.021996,0.316250,-0.000230,0.014313,0.316250,-1.500123,-1.184640,0.240252,2.332014,0.382011,-6.649420
1790548850.8114,0.019910,0.044597,0.320465,0.013868,0.035512,0.320465,-1.730810,-1.280557,0.103054,2.102047,0.307651,-8.551168
1790548850.8254,0.015015,0.045660,0.314510,0.014671,0.042616,0.314510,-0.292052,0.384032,-0.411742,1.910407,-2.666748,-17.982287
1790548850.8394,0.022510,0.044288,0.322182,0.020159,0.043786,0.322182,0.113472,-0.056702,-0.771128,-7.863229,3.058971,-12.626343
1790548850.8534,0.032440,0.045971,0.328457,0.028756,0.045316,0.328457,0.216674,-0.413659,-0.928967,-1.500784,5.698751,-5.252217
1790548850.8673,0.037649,0.042573,0.323498,0.034981,0.043396,0.323498,0.346587,0.068355,-0.751702,-1.922392,1.460231,-3.195224
1790548850.8813,0.051188,0.031731,0.314106,0.046326,0.035230,0.314106,0.726614,-0.578783,-0.648500,-3.455511,0.865351,-6.300119
1790548850.8952,0.060492,0.021762,0.306570,0.056242,0.025803,0.306570,0.739969,-0.586068,-0.842763,0.760567,2.910251,-10.181238
1790548850.9096,0.056427,0.018474,0.297227,0.056372,0.020673,0.297227,0.323518,0.432598,-1.060094,0.453943,3.319231,-7.192776
1790548850.9233,0.049722,0.019547,0.288856,0.051717,0.019885,0.288856,0.012698,0.631717,-0.908326,0.223975,3.170511,-7.542077
1790548850.9370,0.046351,0.019868,0.277427,0.047961,0.019873,0.277427,0.013912,0.529729,-0.850048,-1.922392,2.649991,-8.512357
1790548850.9509,0.041291,0.019164,0.268153,0.043292,0.019377,0.268153,0.102545,0.586794,-0.748060,-1.462456,3.133331,-9.637881
1790548850.9648,0.034578,0.019172,0.259541,0.037192,0.019234,0.259541,0.063692,0.697281,-0.684924,-1.615768,3.579491,-10.608161
1790548850.9788,0.032346,0.018339,0.254301,0.033800,0.018608,0.254301,0.087975,0.303899,-0.348607,-1.577440,2.798711,-11.035084
1790548850.9927,0.030788,0.010680,0.250560,0.031692,0.013058,0.250560,0.518995,0.152131,-0.088780,-0.887536,2.389731,-17.438931
1790548851.0065,0.017460,0.011883,0.255739,0.021729,0.012236,0.255739,-0.018870,0.964392,0.373808,-1.424128,4.471811,-15.032637
1790548851.0206,0.016004,0.013954,0.260871,0.017722,0.013438,0.260871,-0.221631,-0.022706,0.734408,-0.159304,0.716631,-10.918651
1790548851.0346,0.009407,0.009055,0.272809,0.011901,0.010370,0.272809,0.298021,0.164272,1.041586,1.297159,0.605091,-6.222497
1790548851.0484,-0.000245,0.004866,0.283364,0.003399,0.006517,0.283364,0.239743,0.527301,1.103507,-0.120976,0.790991,-8.434735
1790548851.0624,-0.002955,0.000020,0.294267,-0.001049,0.001969,0.294267,0.279809,0.120563,1.189711,-1.807408,0.865351,-9.016902
1790548851.0762,-0.002893,-0.004599,0.300210,-0.002340,-0.002629,0.300210,0.232458,-0.042132,0.929885,-2.190688,0.419191,-12.121798
1790548851.0902,-0.004922,-0.008649,0.303970,-0.004147,-0.006843,0.303970,0.159609,0.090210,0.872820,-1.539112,-0.212869,-12.199420
1790548851.1041,-0.010347,-0.015668,0.309430,-0.008487,-0.013020,0.309430,0.387868,0.267474,0.893460,-0.044320,0.047391,-9.676693
1790548851.1182,-0.020550,-0.024298,0.317824,-0.016931,-0.020914,0.317824,0.532351,0.520016,0.944454,1.182175,0.419191,-7.697322
1790548851.1321,-0.031243,-0.035846,0.322569,-0.026949,-0.031366,0.322569,0.675620,0.612291,0.937170,0.913879,-0.547489,-9.870749
1790548851.1459,-0.041149,-0.043054,0.331985,-0.036889,-0.039548,0.331985,0.481357,0.578295,0.793901,1.182175,1.199971,-9.793126
1790548851.1601,-0.044972,-0.044028,0.341795,-0.042547,-0.042684,0.341795,0.047908,0.233478,0.636062,-0.159304,1.757671,-11.656063
1790548851.1743,-0.048417,-0.040841,0.349490,-0.046656,-0.041394,0.349490,-0.248342,0.166700,0.536503,0.722239,1.311511,-9.055714
1790548851.1884,-0.050470,-0.039434,0.354027,-0.049326,-0.040022,0.354027,-0.192492,-0.038490,0.541359,2.561982,0.344831,-9.909560
1790548851.2023,-0.047467,-0.033131,0.361549,-0.048025,-0.035198,0.361549,-0.449890,-0.363880,0.382307,2.332014,1.980751,-10.452916
1790548851.2163,-0.038759,-0.023045,0.363968,-0.041539,-0.026691,0.363968,-0.823846,-0.808256,0.292460,3.175230,0.121751,-11.035084
1790548851.2303,-0.027994,-0.009000,0.366530,-0.032058,-0.014307,0.366530,-1.106741,-0.991591,0.219612,3.366870,0.121751,-9.599070
1790548851.2443,-0.014832,0.007764,0.370627,-0.020000,0.001143,0.370627,-1.297361,-1.172498,0.263321,2.561982,0.233291,-7.813756
1790548851.2583,-0.002363,0.026110,0.376277,-0.007654,0.018620,0.376277,-1.417561,-1.156714,0.333741,2.332014,0.196111,-6.921098
1790548851.2722,0.011995,0.045989,0.381693,0.006100,0.037778,0.381693,-1.549903,-1.270844,0.282747,1.757095,0.196111,-6.921098
1790548851.2861,-0.001556,0.043684,0.372312,0.000741,0.041912,0.372312,0.040623,0.968034,-0.364391,3.060246,-0.064149,-15.692427
1790548851.3001,0.001139,0.046832,0.364311,0.001019,0.045356,0.364311,-0.151211,0.096280,-0.891328,-3.225543,7.000050,-21.281238
1790548851.3140,0.013307,0.046585,0.356956,0.009621,0.046216,0.356956,0.163252,-0.607922,-1.028526,-1.309144,6.256450,-13.014455
1790548851.3279,0.017883,0.039486,0.350302,0.015404,0.041505,0.350302,0.529923,-0.025134,-0.807553,-1.577440,1.683311,-6.804665
1790548851.3419,0.030020,0.027855,0.342451,0.025635,0.031950,0.342451,0.783678,-0.706268,-0.716492,-0.580912,1.162791,-8.939280
1790548851.3559,0.046739,0.020918,0.334096,0.040408,0.024228,0.334096,0.492284,-1.040157,-0.850048,-0.542584,2.241011,-10.530539
1790548851.3698,0.042473,0.018821,0.318454,0.041853,0.020443,0.318454,0.217888,0.452024,-1.154797,1.105519,3.579491,-9.482637
1790548851.3834,0.037717,0.019127,0.306530,0.038958,0.019522,0.306530,0.026054,0.588008,-0.953250,-0.925864,2.761531,-8.589979
1790548851.3971,0.034962,0.020911,0.297206,0.036161,0.020494,0.297206,-0.058936,0.501804,-0.910755,-1.807408,2.835891,-7.930189
1790548851.4115,0.028906,0.021634,0.287234,0.031083,0.021292,0.287234,0.034553,0.647501,-0.822122,-0.964192,3.021791,-7.930189
1790548851.4254,0.023373,0.021923,0.277844,0.025686,0.021734,0.277844,0.070977,0.664499,-0.817266,-1.500784,3.021791,-7.969000
1790548851.4396,0.025541,0.016526,0.274582,0.025584,0.018088,0.274582,0.520209,0.080496,-0.576866,-1.539112,2.910251,-6.261308
1790548851.4535,0.032538,-0.000280,0.272876,0.030452,0.005231,0.272876,1.201343,-0.440371,-0.168914,-1.155832,2.166651,-13.519000
1790548851.4675,0.013175,0.005056,0.278269,0.018358,0.005108,0.278269,-0.187635,1.380843,0.117624,-0.044320,6.628250,-12.199420
1790548851.4815,0.012040,0.009558,0.282240,0.013935,0.008223,0.282240,-0.315120,0.165486,0.513434,-3.877119,2.575631,-12.898021
1790548851.4956,0.013765,0.009689,0.297755,0.013816,0.009249,0.297755,0.098902,-0.199970,0.841252,-0.772552,2.129471,-5.601518
1790548851.5096,0.001113,0.008258,0.306754,0.004924,0.008555,0.306754,0.013912,0.629289,0.888604,1.143847,0.196111,-5.058161
1790548851.5236,-0.004763,0.001893,0.315761,-0.001857,0.003891,0.315761,0.319876,0.240763,1.051299,0.108991,-0.138509,-6.688231
1790548851.5374,-0.004463,-0.004311,0.320155,-0.003681,-0.001850,0.320155,0.311377,0.000363,0.796329,-2.842263,-0.361589,-11.539630
1790548851.5513,-0.010270,-0.008199,0.321890,-0.008293,-0.006295,0.321890,0.112258,0.371891,0.687056,-1.002520,-1.068009,-12.393476
1790548851.5653,-0.016312,-0.015109,0.327041,-0.013906,-0.012465,0.327041,0.362371,0.347608,0.787830,-0.312616,-0.324409,-11.617252
1790548851.5791,-0.020230,-0.023207,0.334381,-0.018333,-0.019984,0.334381,0.457074,0.249262,0.832753,-1.040848,-0.138509,-9.016902
1790548851.5932,-0.031793,-0.033387,0.340770,-0.027755,-0.029366,0.340770,0.585773,0.602578,0.912887,1.412143,-0.250049,-6.882287
1790548851.6068,-0.041698,-0.041840,0.348633,-0.037515,-0.038098,0.348633,0.540850,0.605006,0.808471,0.798895,0.605091,-9.405014
1790548851.6205,-0.045051,-0.043653,0.359722,-0.042790,-0.041987,0.359722,0.108615,0.204339,0.727123,-0.235960,1.757671,-11.462007
1790548851.6346,-0.045244,-0.039963,0.368231,-0.044508,-0.040570,0.368231,-0.306621,-0.027562,0.595996,-0.005993,1.237151,-10.802217
1790548851.6488,-0.044224,-0.034058,0.373409,-0.044309,-0.036011,0.373409,-0.502098,-0.213326,0.546216,1.757095,0.530731,-10.297672
1790548851.6633,-0.043394,-0.027430,0.377250,-0.043668,-0.030004,0.377250,-0.536094,-0.255821,0.419945,3.290214,0.567911,-10.879840
1790548851.6773,-0.031755,-0.017172,0.380891,-0.035329,-0.021022,0.380891,-0.811704,-1.026801,0.293674,3.098574,0.605091,-10.685784
1790548851.6914,-0.023365,-0.001118,0.384905,-0.026954,-0.007089,0.384905,-1.188088,-0.830110,0.237824,3.175230,0.939711,-8.589979
1790548851.7055,-0.011958,0.015705,0.389456,-0.016457,0.008867,0.389456,-1.294933,-1.058369,0.254822,2.715294,0.270471,-7.697322
1790548851.7195,-0.000014,0.035273,0.396978,-0.004947,0.027351,0.396978,-1.490410,-1.177355,0.314315,3.328542,0.382011,-7.348021
1790548851.7335,0.005549,0.050913,0.398932,0.002400,0.043844,0.398932,-1.234226,-0.515647,0.094555,2.332014,0.567911,-15.575993
1790548851.7474,-0.010651,0.044260,0.392251,-0.006735,0.044135,0.392251,0.403652,1.289782,-0.318253,-0.350944,1.534591,-20.039280
1790548851.7614,0.006204,0.038083,0.387787,0.002322,0.039898,0.387787,0.520209,-0.894460,-0.979961,-3.838791,6.182090,-18.719700
1790548851.7754,0.015977,0.041791,0.389509,0.011881,0.041223,0.389509,0.041838,-0.543573,-0.768700,-0.082648,6.442350,-7.076343
1790548851.7894,0.019121,0.035786,0.383386,0.016949,0.037417,0.383386,0.429149,0.028288,-0.650928,-1.692424,1.757671,-8.279490
1790548851.8032,0.033780,0.024212,0.380901,0.028730,0.028173,0.380901,0.759395,-0.791258,-0.601148,-2.420655,0.567911,-8.124245
1790548851.8172,0.042371,0.019405,0.371136,0.038279,0.022035,0.371136,0.378155,-0.470724,-0.868260,-0.082648,3.393591,-12.005364
1790548851.8312,0.037291,0.018648,0.357672,0.037587,0.019664,0.357672,0.162038,0.452024,-1.007886,1.718767,4.360271,-9.793126
1790548851.8449,0.029723,0.022241,0.344474,0.032082,0.021468,0.344474,-0.162138,0.750703,-0.988460,-0.082648,3.505131,-8.512357
1790548851.8585,0.024457,0.021951,0.331858,0.026745,0.021806,0.331858,-0.000657,0.649929,-0.865831,-1.347472,1.571771,-8.822846
1790548851.8725,0.020117,0.021146,0.323241,0.022105,0.021344,0.323241,0.125613,0.571010,-0.709207,-1.730752,2.724351,-8.357112
1790548851.8863,0.008958,0.023514,0.314682,0.012902,0.022863,0.314682,-0.071078,1.023885,-0.635144,-1.232488,3.579491,-9.560259
1790548851.9004,0.005409,0.018584,0.307705,0.007657,0.019868,0.307705,0.316234,0.307541,-0.377746,0.722239,2.055111,-15.731238
1790548851.9148,0.013515,0.000792,0.306932,0.011758,0.006515,0.306932,1.258408,-0.513219,-0.189554,-0.580912,2.910251,-13.868301
1790548851.9289,0.001084,-0.003618,0.314899,0.004286,-0.000578,0.314899,0.623412,0.793198,0.095769,1.488799,6.256450,-7.270399
1790548851.9429,-0.011821,-0.004132,0.315842,-0.006989,-0.003066,0.315842,-0.021298,0.993531,0.455155,-3.187215,1.274331,-15.770049
1790548851.9568,-0.006674,-0.006839,0.326465,-0.006769,-0.005707,0.326465,0.154753,-0.382092,0.852180,-2.420655,1.608951,-11.772497
1790548851.9708,-0.011099,-0.004748,0.339880,-0.009800,-0.005036,0.339880,-0.171851,0.175199,1.016089,-0.120976,1.385871,-8.201867
1790548851.9848,-0.015729,-0.006533,0.350019,-0.013950,-0.006084,0.350019,-0.035868,0.190983,1.104721,-0.274288,-0.398769,-7.270399
1790548851.9987,-0.010715,-0.012854,0.359003,-0.011686,-0.010823,0.359003,0.323518,-0.263106,0.877677,-3.417183,-0.212869,-8.395923
1790548852.0125,-0.017746,-0.017908,0.364651,-0.015928,-0.015782,0.364651,0.231244,0.411957,0.808471,-0.120976,-0.287229,-10.608161
1790548852.0266,-0.023682,-0.022181,0.371316,-0.021356,-0.020262,0.371316,0.171751,0.328181,0.829111,-0.082648,-0.250049,-10.879840
1790548852.0407,-0.030431,-0.028879,0.379096,-0.027709,-0.026294,0.379096,0.350230,0.391317,0.852180,-0.159304,-0.064149,-11.306763
1790548852.0548,-0.036400,-0.036687,0.387775,-0.033793,-0.033569,0.387775,0.457074,0.369462,0.804828,-0.350944,0.307651,-9.133336
1790548852.0684,-0.042587,-0.042470,0.394634,-0.039949,-0.039800,0.394634,0.347801,0.380390,0.691913,0.338959,0.530731,-8.939280
1790548852.0820,-0.047178,-0.046202,0.400189,-0.045009,-0.044281,0.400189,0.160823,0.284472,0.644561,0.147319,0.047391,-10.336483
1790548852.0961,-0.047387,-0.043661,0.407735,-0.046673,-0.043847,0.407735,-0.214346,-0.032419,0.515862,0.338959,1.311511,-10.452916
1790548852.1100,-0.047251,-0.036633,0.410738,-0.047078,-0.038797,0.410738,-0.588302,-0.165974,0.447870,2.408670,0.530731,-10.841028
1790548852.1238,-0.043244,-0.026487,0.412777,-0.044394,-0.030180,0.412777,-0.810490,-0.502292,0.325242,3.481854,0.493551,-10.220049
1790548852.1378,-0.033323,-0.016193,0.415562,-0.036644,-0.020389,0.415562,-0.845700,-0.939383,0.327670,3.060246,0.084571,-8.978091
1790548852.1521,-0.024379,-0.001754,0.418941,-0.028059,-0.007344,0.418941,-1.101884,-0.878676,0.291246,3.060246,0.307651,-7.891378
1790548852.1665,-0.010765,0.015129,0.424244,-0.015953,0.008387,0.424244,-1.260937,-1.211351,0.320385,2.715294,0.382011,-7.309210
1790548852.1796,0.002755,0.032131,0.429461,-0.002857,0.025008,0.429461,-1.376280,-1.295127,0.333741,2.025391,0.605091,-6.843476
1790548852.1927,0.009483,0.047768,0.432076,0.005781,0.040940,0.432076,-1.313145,-0.723266,0.175902,2.830278,0.456371,-11.345574
1790548852.2057,-0.007523,0.040109,0.426557,-0.003532,0.040359,0.426557,0.458288,1.414839,-0.317039,0.300631,-0.101329,-21.281238
1790548852.2196,0.004562,0.032700,0.424883,0.002134,0.034998,0.424883,0.543278,-0.532645,-0.911969,-3.685479,2.984611,-14.566903
1790548852.2336,0.015486,0.029090,0.424708,0.011480,0.030862,0.424708,0.407294,-0.431872,-0.971462,-1.539112,2.426911,-5.058161
1790548852.2475,0.022952,0.025395,0.444134,0.019510,0.027035,0.444134,0.494713,-0.014207,-0.726205,-2.458983,1.943571,-2.419000
1790548852.2615,0.036861,0.012843,0.440437,0.031655,0.017101,0.440437,0.840743,-0.757262,-0.548940,-1.960720,0.716631,-7.231588
1790548852.2755,0.048595,0.007776,0.434317,0.043513,0.010574,0.434317,0.469216,-0.725694,-0.828193,0.032335,4.062831,-10.025993
1790548852.2894,0.045044,0.006646,0.419957,0.044584,0.007824,0.419957,0.152324,0.347608,-1.038240,1.450471,3.876931,-10.414105
1790548852.3030,0.035545,0.010692,0.406801,0.038257,0.009832,0.406801,-0.190064,0.857547,-1.018813,0.377287,4.100011,-9.599070
1790548852.3166,0.032214,0.012228,0.394646,0.034027,0.011509,0.394646,-0.095361,0.586794,-0.941108,-2.458983,2.055111,-8.279490
1790548852.3307,0.026556,0.012034,0.385627,0.028797,0.011876,0.385627,0.073405,0.664499,-0.735918,-1.845736,2.612811,-8.357112
1790548852.3445,0.016405,0.013411,0.379203,0.020123,0.012951,0.379203,0.019983,0.949822,-0.604791,-1.462456,3.728211,-9.094525
1790548852.3584,0.017359,0.015296,0.373824,0.018188,0.014592,0.373824,-0.077148,0.195840,-0.389888,-3.915447,3.356411,-11.306763
1790548852.3724,0.026663,-0.001482,0.370918,0.024121,0.003340,0.370918,1.160062,-0.577569,-0.150702,-2.267343,1.869211,-17.438931
1790548852.3864,0.011229,-0.002478,0.378171,0.015097,-0.000733,0.378171,0.223959,1.031170,0.249965,0.990535,5.066691,-11.384385
1790548852.4003,0.005157,-0.003684,0.382078,0.008139,-0.002799,0.382078,0.030910,0.428955,0.631206,-1.922392,1.125611,-13.247322
1790548852.4145,0.006753,-0.008008,0.396230,0.007169,-0.006445,0.396230,0.293165,-0.263106,0.980879,-0.159304,1.534591,-9.560259
1790548852.4286,-0.002462,-0.009515,0.412518,0.000427,-0.008594,0.412518,0.120757,0.419242,1.136289,0.875551,1.646131,-7.891378
1790548852.4427,-0.005047,-0.013049,0.423953,-0.003404,-0.011713,0.423953,0.170537,0.124206,1.198210,-1.539112,0.493551,-7.542077
1790548852.4566,-0.003636,-0.017283,0.431720,-0.003566,-0.015612,0.431720,0.205747,-0.129550,0.979665,-1.999048,0.270471,-10.297672
1790548852.4705,-0.008894,-0.018955,0.437497,-0.007296,-0.017952,0.437497,0.006627,0.292971,0.900745,-0.695896,0.010211,-11.850119
1790548852.4845,-0.017556,-0.026008,0.438915,-0.014478,-0.023591,0.438915,0.334446,0.487234,0.847323,0.530599,-1.030829,-11.112707
1790548852.4985,-0.025658,-0.033958,0.444677,-0.022304,-0.030848,0.444677,0.457074,0.459309,0.831539,0.453943,0.047391,-9.366203
1790548852.5132,-0.033997,-0.044742,0.450684,-0.030489,-0.040574,0.450684,0.630696,0.467808,0.772046,0.492271,0.047391,-9.637881
1790548852.5287,-0.043491,-0.052745,0.458114,-0.039590,-0.049094,0.458114,0.447361,0.544299,0.673701,0.338959,0.567911,-9.948371
1790548852.5434,-0.045648,-0.054097,0.466952,-0.043831,-0.052596,0.466952,0.057621,0.086567,0.602066,0.453943,1.237151,-10.452916
1790548852.5579,-0.045570,-0.050305,0.473935,-0.045048,-0.050992,0.473935,-0.301765,-0.072485,0.517076,0.683911,1.051251,-9.870749
1790548852.5726,-0.043793,-0.044239,0.476087,-0.044170,-0.046265,0.476087,-0.503312,-0.246108,0.421159,1.872079,0.233291,-10.375294
1790548852.5869,-0.038879,-0.035384,0.477536,-0.040466,-0.038649,0.477536,-0.698789,-0.530217,0.343454,3.251886,0.456371,-11.151518
1790548852.6007,-0.028902,-0.024087,0.477778,-0.032371,-0.028455,0.477778,-0.894266,-0.888389,0.198971,2.561982,0.456371,-9.831937
1790548852.6147,-0.019023,-0.008550,0.477812,-0.023028,-0.014521,0.477812,-1.189303,-0.919957,0.171046,2.906934,0.344831,-8.434735
1790548852.6287,-0.005591,0.007494,0.479600,-0.010822,0.000890,0.479600,-1.240297,-1.205280,0.213541,2.561982,0.270471,-7.309210
1790548852.6427,0.006071,0.023790,0.481776,0.001003,0.016920,0.481776,-1.268222,-1.094793,0.205042,2.638638,0.121751,-7.153965
1790548852.6570,0.004406,0.027458,0.475819,0.003385,0.024296,0.475819,-0.346688,0.080496,-0.221122,2.715294,0.828171,-18.525644
1790548852.6713,0.006661,0.026658,0.473284,0.005678,0.025950,0.473284,0.157181,0.030717,-0.565938,-1.385800,4.137191,-10.957462
1790548852.6853,0.017628,0.028637,0.472020,0.014043,0.027831,0.472020,0.077048,-0.499864,-1.015171,-1.539112,5.178231,-8.201867
1790548852.6993,0.027409,0.026863,0.471865,0.023399,0.027153,0.471865,0.273739,-0.312886,-0.915611,-2.152360,2.538451,-5.058161
1790548852.7133,0.039360,0.017030,0.469047,0.034572,0.020067,0.469047,0.724185,-0.599423,-0.596292,-2.229015,1.832031,-7.619700
1790548852.7274,0.055837,0.003920,0.463320,0.049457,0.008764,0.463320,0.922091,-0.915100,-0.760201,-2.305671,1.608951,-8.395923
1790548852.7416,0.061903,-0.001991,0.454207,0.058169,0.001235,0.454207,0.481357,-0.342025,-0.961749,0.875551,3.728211,-10.375294
1790548852.7553,0.057044,-0.003829,0.445521,0.057382,-0.002310,0.445521,0.259169,0.443525,-0.984817,0.952207,4.434631,-9.288581
1790548852.7689,0.052750,-0.001103,0.435644,0.054139,-0.001465,0.435644,-0.075934,0.592864,-1.026098,-1.807408,3.914111,-8.201867
1790548852.7825,0.042087,-0.000904,0.422401,0.045703,-0.001073,0.422401,-0.005514,1.025099,-0.896185,-1.385800,2.278191,-9.327392
1790548852.7964,0.032604,0.000002,0.412554,0.036534,-0.000320,0.412554,-0.034653,0.858761,-0.672783,-1.002520,2.315371,-9.055714
1790548852.8104,0.021944,0.002266,0.407336,0.026321,0.001490,0.407336,-0.074720,0.903685,-0.454237,-0.849208,3.058971,-8.978091
1790548852.8244,0.011343,0.008324,0.397380,0.015836,0.006274,0.397380,-0.448676,1.006887,-0.251476,-5.103614,2.501271,-15.653616
1790548852.8384,0.015143,0.004049,0.390940,0.015351,0.004716,0.390940,0.233672,-0.083413,-0.012290,-6.100142,1.125611,-18.758511
1790548852.8523,0.013299,0.008658,0.397286,0.013915,0.007475,0.397286,-0.289623,0.177628,0.389591,-2.305671,3.096151,-12.160609
1790548852.8663,0.010232,0.010032,0.396836,0.011337,0.009265,0.396836,-0.243486,0.062284,0.597210,0.645583,-0.361589,-7.348021
1790548852.8804,-0.001433,0.002318,0.404780,0.002398,0.004402,0.404780,0.455860,0.397387,0.881319,3.443526,0.084571,-6.261308
1790548852.8942,-0.007666,-0.008729,0.413399,-0.004647,-0.004790,0.413399,0.693832,0.291757,0.957810,0.147319,0.158931,-6.261308
1790548852.9083,-0.010668,-0.011571,0.426693,-0.008861,-0.009537,0.426693,0.188749,0.125420,0.935955,-0.810880,1.869211,-10.724595
1790548852.9228,-0.006226,-0.014150,0.434727,-0.007017,-0.012766,0.434727,0.111044,-0.278890,0.638491,-2.458983,0.828171,-11.694875
1790548852.9368,-0.010710,-0.021245,0.440507,-0.009602,-0.018702,0.440507,0.404866,0.223765,0.751406,-0.044320,0.158931,-10.452916
1790548852.9508,-0.022150,-0.027085,0.448117,-0.018386,-0.024570,0.448117,0.352658,0.631717,0.824254,1.220503,0.567911,-7.658511
1790548852.9648,-0.033468,-0.038235,0.454947,-0.028943,-0.034135,0.454947,0.665907,0.653571,0.920172,0.875551,-0.212869,-8.279490
1790548852.9786,-0.039581,-0.050431,0.463657,-0.036390,-0.045542,0.463657,0.772751,0.337895,0.883747,0.492271,0.158931,-11.035084
1790548852.9922,-0.044508,-0.056556,0.474877,-0.042073,-0.053252,0.474877,0.379369,0.307541,0.887390,-0.197632,0.902531,-11.578441
1790548853.0058,-0.044931,-0.055763,0.487573,-0.044073,-0.055010,0.487573,-0.090504,0.022218,0.782974,-0.734224,1.423051,-10.375294
1790548853.0197,-0.045404,-0.050006,0.495594,-0.045005,-0.051507,0.495594,-0.460817,-0.048203,0.619064,0.722239,1.014071,-9.676693
1790548853.0335,-0.039098,-0.043828,0.501681,-0.040870,-0.046132,0.501681,-0.513025,-0.628563,0.526790,2.408670,0.790991,-10.646972
1790548853.0476,-0.041412,-0.034186,0.504679,-0.041249,-0.037770,0.504679,-0.763139,-0.079770,0.378664,4.095102,0.419191,-10.181238
1790548853.0616,-0.033432,-0.023623,0.506862,-0.035777,-0.027867,0.506862,-0.860270,-0.768189,0.294888,3.175230,0.010211,-10.452916
1790548853.0756,-0.025674,-0.009031,0.511199,-0.028705,-0.014682,0.511199,-1.121311,-0.833753,0.299745,3.481854,0.419191,-7.852567
1790548853.0894,-0.012243,0.007138,0.515870,-0.017181,0.000592,0.515870,-1.291290,-1.154286,0.339812,1.373815,0.010211,-6.610609
1790548853.1034,0.001369,0.026404,0.520542,-0.004196,0.018661,0.520542,-1.502551,-1.168856,0.300959,1.488799,0.084571,-7.270399
1790548853.1173,0.013856,0.047540,0.522040,0.008441,0.038876,0.522040,-1.621537,-1.076581,0.055702,2.408670,0.307651,-9.521448
1790548853.1312,0.005008,0.038829,0.518083,0.006038,0.038843,0.518083,0.425506,0.658428,-0.270902,1.987063,-2.741108,-20.466203
1790548853.1452,0.012326,0.034938,0.532573,0.010440,0.036110,0.532573,0.538422,-0.065201,-0.908326,-4.720334,6.144910,-7.619700
1790548853.1594,0.024785,0.037520,0.534132,0.020482,0.037097,0.534132,0.123185,-0.680771,-0.758987,-0.734224,4.880791,-5.252217
1790548853.1737,0.032540,0.030880,0.530909,0.028922,0.032745,0.530909,0.602771,-0.140477,-0.805124,-2.343999,2.315371,-4.475993
1790548853.1878,0.049629,0.015020,0.525824,0.043417,0.020338,0.525824,1.127281,-1.038943,-0.652142,-1.347472,1.980751,-9.172147
1790548853.2017,0.064950,0.007205,0.518805,0.058490,0.011145,0.518805,0.646480,-0.871391,-0.971462,-1.654096,3.691031,-9.405014
1790548853.2154,0.058900,0.005511,0.505273,0.058777,0.007201,0.505273,0.193605,0.510303,-1.100161,1.680439,3.579491,-8.861658
1790548853.2290,0.051860,0.004748,0.491720,0.053935,0.005484,0.491720,0.032124,0.772557,-0.894971,-1.730752,1.943571,-9.405014
1790548853.2427,0.052023,0.004106,0.480973,0.052597,0.004519,0.480973,0.080690,0.290543,-0.837906,-2.650623,2.538451,-8.667602
1790548853.2567,0.045880,0.003858,0.473036,0.047895,0.004057,0.473036,0.104973,0.631717,-0.721349,-1.194160,3.319231,-8.667602
1790548853.2707,0.032365,0.005286,0.467392,0.037024,0.004917,0.467392,0.066120,1.082164,-0.640001,0.032335,4.917971,-9.249770
1790548853.2846,0.009606,0.019868,0.460518,0.017832,0.015383,0.460518,-0.877268,1.807006,-0.444524,-1.270816,6.330810,-12.044175
1790548853.2985,0.014494,0.012205,0.453350,0.015495,0.013158,0.453350,0.449789,-0.227896,0.083628,-5.103614,0.419191,-21.281238
1790548853.3125,0.010482,0.016368,0.460366,0.011986,0.015405,0.460366,-0.107502,0.384032,0.356810,-2.343999,4.360271,-7.658511
1790548853.3263,0.000523,0.022476,0.467517,0.003962,0.020355,0.467517,-0.447462,0.538228,0.508577,0.415615,0.456371,-2.419000
1790548853.3403,-0.003345,0.010715,0.453999,-0.001153,0.013607,0.453999,0.466787,0.030717,0.668844,1.105519,-2.220588,-4.475993
1790548853.3541,-0.010436,0.002626,0.473935,-0.007651,0.005920,0.473935,0.703545,0.120563,0.925028,3.635166,3.356411,-7.658511
1790548853.3680,-0.024692,-0.002280,0.490880,-0.019580,0.000180,0.490880,0.323518,0.761630,1.292913,1.488799,2.129471,-11.617252
1790548853.3820,-0.019837,-0.007253,0.500690,-0.019760,-0.005023,0.500690,0.250670,-0.368736,1.010018,-3.033903,0.753811,-13.596623
1790548853.3958,-0.024786,-0.011199,0.509276,-0.023278,-0.009346,0.509276,0.148682,0.172771,0.882533,1.182175,-0.138509,-10.452916
1790548853.4096,-0.040809,-0.018173,0.517042,-0.035549,-0.015525,0.517042,0.374512,0.932824,0.867963,1.833751,-0.064149,-8.163056
1790548853.4241,-0.052622,-0.031224,0.529307,-0.047500,-0.026514,0.529307,0.793391,0.642644,1.029444,1.143847,0.567911,-10.025993
1790548853.4381,-0.061785,-0.049234,0.538971,-0.057499,-0.042418,0.538971,1.130923,0.516373,0.934741,1.182175,-0.435949,-10.452916
1790548853.4518,-0.069045,-0.055340,0.550789,-0.065581,-0.051464,0.550789,0.401224,0.509089,0.880105,-0.504256,1.571771,-10.297672
1790548853.4655,-0.070149,-0.054265,0.560225,-0.068779,-0.053425,0.560225,-0.136641,0.131490,0.704054,-1.462456,1.311511,-11.112707
1790548853.4794,-0.072390,-0.052011,0.567147,-0.071307,-0.052435,0.567147,-0.281124,-0.037275,0.617850,3.098574,0.047391,-10.258860
1790548853.4933,-0.071267,-0.049662,0.574139,-0.071279,-0.050494,0.574139,-0.231344,-0.204827,0.512220,1.948735,0.976891,-10.297672
1790548853.5074,-0.061864,-0.042161,0.580399,-0.064689,-0.044661,0.580399,-0.621084,-0.785187,0.426016,1.948735,0.642271,-11.500819
1790548853.5214,-0.054378,-0.029560,0.584463,-0.057471,-0.034090,0.584463,-1.007181,-0.706268,0.316743,2.906934,0.084571,-10.414105
1790548853.5353,-0.044188,-0.015016,0.588915,-0.048173,-0.020738,0.588915,-1.185660,-0.951524,0.321600,3.098574,-0.435949,-8.978091
1790548853.5492,-0.031767,0.001406,0.595138,-0.036689,-0.005237,0.595138,-1.345927,-1.166428,0.392020,2.638638,-0.361589,-7.115154
1790548853.5631,-0.016012,0.021118,0.602904,-0.022215,0.013211,0.602904,-1.560830,-1.406828,0.416303,2.408670,-0.175689,-7.076343
1790548853.5770,0.006181,0.045657,0.608386,-0.002338,0.035923,0.608386,-1.810943,-1.771070,0.152834,1.067191,0.865351,-5.601518
1790548853.5909,-0.011639,0.041767,0.600008,-0.008849,0.040014,0.600008,0.126827,1.304352,-0.404457,4.018446,-1.402628,-21.281238
1790548853.6049,0.005674,0.026996,0.605716,0.001317,0.030901,0.605716,1.095713,-0.802185,-0.683710,-9.051396,3.951291,-15.071448
1790548853.6189,0.017878,0.029856,0.598606,0.012910,0.030169,0.598606,0.091617,-0.600637,-0.897399,-1.539112,5.661571,-6.494175
1790548853.6328,0.018270,0.019844,0.585467,0.016662,0.022941,0.585467,0.697474,0.183698,-0.947179,-0.350944,1.311511,-8.124245
1790548853.6468,0.033092,0.012095,0.576470,0.028163,0.015349,0.576470,0.509282,-0.909029,-0.835478,-0.312616,0.790991,-6.765853
1790548853.6610,0.041302,0.008331,0.563441,0.037360,0.010437,0.563441,0.289523,-0.423373,-0.996959,0.070663,2.203831,-8.357112
1790548853.6752,0.034391,0.006213,0.544149,0.035282,0.007480,0.544149,0.216674,0.617147,-1.196078,1.258831,3.096151,-8.667602
1790548853.6890,0.030482,0.007657,0.526813,0.031922,0.007604,0.526813,-0.057722,0.535800,-1.204577,-0.657568,2.835891,-9.405014
1790548853.7026,0.030987,0.007447,0.512421,0.031267,0.007494,0.512421,0.070977,0.275973,-1.094090,-1.845736,2.649991,-8.589979
1790548853.7166,0.027793,0.006882,0.499878,0.028835,0.007066,0.499878,0.181464,0.515159,-0.919254,-1.884064,3.839751,-8.085434
1790548853.7305,0.021371,0.008615,0.489467,0.023610,0.008150,0.489467,0.002985,0.676640,-0.728633,-1.155832,3.579491,-8.318301
1790548853.7445,0.014862,0.009210,0.486583,0.017487,0.008892,0.486583,0.169322,0.578295,-0.247833,-1.002520,5.066691,-8.395923
1790548853.7584,0.014316,0.003994,0.485537,0.015267,0.005463,0.485537,0.398795,0.172771,0.129765,-4.452038,3.653851,-16.779140
1790548853.7724,0.012193,0.013146,0.491505,0.013115,0.010841,0.491505,-0.539737,0.218909,0.498864,-2.842263,4.062831,-10.142427
1790548853.7865,0.010596,0.017279,0.499522,0.011352,0.015347,0.499522,-0.307835,0.030717,0.676129,-0.465928,1.199971,-6.998721
1790548853.8005,0.004483,0.013646,0.514163,0.006544,0.014156,0.514163,0.277381,0.114492,0.768404,1.603783,1.088431,-4.825294
1790548853.8145,-0.009700,0.009083,0.532090,-0.004827,0.010605,0.532090,0.346587,0.617147,1.069511,2.945262,1.757671,-7.115154
1790548853.8284,-0.014568,0.003435,0.545139,-0.011646,0.005586,0.545139,0.372084,0.212838,1.088937,-0.580912,1.683311,-9.987182
1790548853.8424,-0.014728,0.000666,0.554839,-0.013803,0.002142,0.554839,0.078262,-0.080984,0.911673,-1.002520,0.233291,-12.432287
1790548853.8564,-0.019668,-0.004243,0.563317,-0.017909,-0.002328,0.563317,0.197248,0.254119,0.888604,-0.542584,-0.510309,-11.811308
1790548853.8703,-0.028101,-0.011138,0.574122,-0.025043,-0.008495,0.574122,0.367228,0.431383,0.957810,0.607255,0.010211,-7.153965
1790548853.8842,-0.039527,-0.022200,0.586399,-0.035182,-0.018089,0.586399,0.634339,0.594079,1.062226,1.373815,-0.324409,-8.279490
1790548853.8981,-0.049908,-0.034005,0.598417,-0.045490,-0.029230,0.598417,0.695046,0.600149,1.045228,0.722239,-0.250049,-10.569350
1790548853.9118,-0.058342,-0.040254,0.609759,-0.054486,-0.036947,0.609759,0.346587,0.470236,0.939598,1.258831,0.530731,-11.035084
1790548853.9259,-0.058331,-0.037562,0.620809,-0.057177,-0.037378,0.620809,-0.222845,-0.039704,0.762333,-0.312616,1.757671,-10.025993
1790548853.9400,-0.060027,-0.031499,0.629834,-0.059172,-0.033263,0.629834,-0.445033,0.008862,0.614208,1.067191,1.646131,-8.628791
1790548853.9540,-0.057496,-0.025892,0.638026,-0.057999,-0.028103,0.638026,-0.454747,-0.338383,0.537717,2.293686,1.423051,-11.190329
1790548853.9680,-0.053078,-0.019775,0.644017,-0.054554,-0.022274,0.644017,-0.520310,-0.476795,0.378664,2.753622,0.753811,-11.656063
1790548853.9818,-0.043818,-0.009319,0.647721,-0.047039,-0.013205,0.647721,-0.872411,-0.826468,0.169832,2.983590,-0.101329,-11.229140
1790548853.9959,-0.030200,0.005479,0.650890,-0.035251,-0.000127,0.650890,-1.163806,-1.161571,0.069058,2.676966,0.047391,-8.085434
1790548854.0098,-0.016724,0.024232,0.654226,-0.022282,0.016924,0.654226,-1.449129,-1.212565,0.078771,2.446998,0.270471,-6.222497
1790548854.0237,-0.006166,0.044623,0.658071,-0.011001,0.036314,0.658071,-1.589969,-1.024373,0.094555,2.868606,0.010211,-6.765853
1790548854.0376,-0.016288,0.050050,0.656789,-0.014702,0.045929,0.656789,-0.576161,0.717921,-0.221122,3.060246,-2.034688,-19.069001
1790548854.0515,-0.010075,0.049263,0.649673,-0.011463,0.048263,0.649673,0.112258,0.002791,-0.903470,-5.716862,3.691031,-13.053266
1790548854.0655,0.010743,0.048725,0.635320,0.004081,0.048586,0.635320,0.254312,-1.123933,-1.207005,-2.765607,6.739790,-10.569350
1790548854.0793,0.022481,0.046846,0.624512,0.016961,0.047368,0.624512,0.317448,-0.203613,-0.922896,-3.110559,1.757671,-2.186133
1790548854.0934,0.029787,0.039334,0.616409,0.025939,0.041744,0.616409,0.557848,-0.178116,-0.697066,-2.229015,1.571771,-5.873196
1790548854.1074,0.044329,0.032795,0.608672,0.038812,0.035480,0.608672,0.452218,-0.849536,-0.756559,-1.347472,2.389731,-11.694875
1790548854.1213,0.042939,0.030074,0.594624,0.041701,0.031696,0.594624,0.265240,0.220123,-1.052809,1.258831,3.505131,-8.978091
1790548854.1349,0.033451,0.034503,0.580481,0.035926,0.033661,0.580481,-0.200991,0.895186,-0.995745,0.185647,4.471811,-9.172147
1790548854.1486,0.023996,0.038624,0.568464,0.027575,0.037135,0.568464,-0.182779,0.874545,-0.807553,-0.044320,3.653851,-8.046623
1790548854.1624,0.022149,0.040171,0.555793,0.023777,0.039260,0.555793,-0.024940,0.482377,-0.677639,-3.110559,3.244871,-8.279490
1790548854.1770,0.014970,0.041367,0.545127,0.017612,0.040735,0.545127,0.016341,0.756774,-0.557439,-2.152360,3.505131,-8.473546
1790548854.1911,0.011306,0.037764,0.542749,0.013198,0.038655,0.542749,0.410937,0.347608,-0.346179,-0.082648,3.653851,-7.270399
1790548854.2051,0.018114,0.023635,0.543872,0.016639,0.028141,0.543872,1.088428,-0.440371,-0.091209,-0.810880,4.397451,-12.587532
1790548854.2192,0.016767,0.017963,0.551590,0.016728,0.021017,0.551590,0.755753,0.038001,0.107911,0.492271,6.367990,-6.028441
1790548854.2331,0.010159,0.010304,0.560278,0.012130,0.013518,0.560278,0.805533,0.369462,0.338598,0.722239,5.326951,-7.464455
1790548854.2473,0.001994,0.009683,0.566166,0.005035,0.010833,0.566166,0.102545,0.521230,0.629992,-0.964192,4.062831,-13.713056
1790548854.2613,0.000474,0.011848,0.572264,0.001842,0.011544,0.572264,-0.135427,0.058642,0.830325,-1.769080,2.835891,-11.733686
1790548854.2753,-0.004122,0.008225,0.579463,-0.002332,0.009221,0.579463,0.165680,0.215266,0.951739,-0.542584,0.419191,-7.930189
1790548854.2893,-0.007485,0.001887,0.579246,-0.005939,0.004087,0.579246,0.277381,0.217694,0.922600,-1.079176,-0.473129,-5.446273
1790548854.3032,-0.007091,-0.006624,0.577034,-0.006745,-0.003410,0.577034,0.465573,0.030717,0.719838,-2.343999,-0.398769,-8.434735
1790548854.3172,-0.011987,-0.012264,0.574893,-0.010414,-0.009608,0.574893,0.288308,0.402244,0.509792,-2.229015,-0.101329,-11.927742
1790548854.3312,-0.021754,-0.018406,0.575770,-0.018352,-0.015767,0.575770,0.318662,0.642644,0.501293,0.147319,-0.250049,-11.539630
1790548854.3450,-0.025968,-0.025984,0.579343,-0.023684,-0.022919,0.579343,0.438862,0.241977,0.591139,0.070663,0.047391,-12.199420
1790548854.3589,-0.035363,-0.036135,0.585093,-0.031859,-0.032170,0.585093,0.618555,0.551584,0.649418,0.990535,-0.064149,-8.551168
1790548854.3725,-0.043542,-0.043170,0.591835,-0.040037,-0.039870,0.591835,0.461931,0.494519,0.578998,0.990535,0.716631,-8.589979
1790548854.3861,-0.045310,-0.045054,0.595843,-0.043728,-0.043499,0.595843,0.098902,0.141204,0.436943,-0.427600,0.976891,-9.366203
1790548854.4001,-0.043783,-0.039896,0.598976,-0.043766,-0.040977,0.598976,-0.394039,-0.108910,0.283961,-0.044320,1.385871,-11.500819
1790548854.4140,-0.043377,-0.033430,0.601401,-0.043494,-0.035694,0.601401,-0.565234,-0.156261,0.158904,2.791950,-0.212869,-11.888930
1790548854.4286,-0.038388,-0.026450,0.604421,-0.039920,-0.029223,0.604421,-0.582232,-0.479223,0.106696,2.600310,-0.212869,-10.025993
1790548854.4427,-0.028103,-0.017467,0.608010,-0.031648,-0.020994,0.608010,-0.712145,-0.879890,-0.003791,2.638638,0.307651,-9.210958
1790548854.4565,-0.018087,-0.003763,0.612991,-0.022156,-0.008933,0.612991,-1.054533,-0.913886,-0.042643,2.676966,0.419191,-7.464455
1790548854.4707,-0.007987,0.014300,0.620209,-0.012237,0.007330,0.620209,-1.337428,-0.947882,-0.001362,3.098574,0.530731,-7.231588
1790548854.4849,0.006578,0.033423,0.626829,0.000933,0.025595,0.626829,-1.455200,-1.245347,-0.001362,2.332014,0.158931,-6.649420
1790548854.5063,-0.005956,0.033785,0.609847,-0.003889,0.031328,0.609847,-0.108716,0.756774,-0.699494,-0.197632,-1.179549,-20.272147
1790548854.5204,0.003977,0.022515,0.598293,0.001617,0.025159,0.598293,0.829816,-0.318956,-1.086805,-4.873646,3.542311,-16.196973
1790548854.5345,0.014201,0.020718,0.596199,0.010426,0.022050,0.596199,0.526280,-0.369950,-1.202149,-1.730752,5.884650,-4.553616
1790548854.5484,0.029281,0.022545,0.585822,0.023624,0.022397,0.585822,0.128042,-0.434300,-1.060094,-3.877119,2.649991,-2.069699
1790548854.5623,0.039321,0.011362,0.572719,0.034612,0.014672,0.572719,0.722971,-0.493793,-0.732276,-1.500784,0.605091,-8.085434
1790548854.5763,0.052002,-0.000041,0.557746,0.046785,0.004373,0.557746,0.738755,-0.656488,-0.947179,-2.075704,0.939711,-10.724595
1790548854.5903,0.051911,-0.002466,0.550779,0.050373,-0.000414,0.550779,0.273739,0.076854,-1.114731,1.488799,3.728211,-8.784035
1790548854.6049,0.041617,0.002454,0.544123,0.044244,0.001594,0.544123,-0.192492,0.798054,-0.921682,0.952207,4.583351,-8.822846
1790548854.6193,0.038541,0.004429,0.525573,0.040252,0.003579,0.525573,-0.130571,0.557654,-0.880401,-3.608823,2.426911,-10.181238
1790548854.6340,0.039635,0.001205,0.511861,0.039820,0.001917,0.511861,0.215460,0.189769,-0.629074,-3.110559,2.055111,-10.297672
1790548854.6482,0.026841,0.002164,0.513740,0.030735,0.002090,0.513740,0.119543,0.999602,-0.296399,-0.619240,3.839751,-7.076343
1790548854.6629,0.036521,-0.010782,0.508333,0.034785,-0.006920,0.508333,0.790963,-0.590924,0.105482,-3.148887,0.121751,-17.555364
1790548854.6773,0.026154,-0.015398,0.519705,0.028743,-0.012855,0.519705,0.432791,0.623218,0.413874,0.722239,4.843611,-14.101168
1790548854.6913,0.018756,-0.010286,0.522405,0.021752,-0.011056,0.522405,-0.411037,0.513945,0.699198,-1.922392,1.051251,-12.703965
1790548854.7055,0.017127,-0.011971,0.534369,0.018515,-0.011696,0.534369,0.069763,-0.026348,1.150859,-0.734224,0.790991,-10.336483
1790548854.7195,0.009581,-0.013853,0.547091,0.012261,-0.013206,0.547091,0.109829,0.384032,1.101079,-0.082648,0.642271,-5.291028
1790548854.7335,0.002086,-0.018630,0.557962,0.005139,-0.017003,0.557962,0.240957,0.359749,1.171499,0.070663,0.084571,-7.969000
1790548854.7475,0.003526,-0.019890,0.567621,0.004010,-0.019024,0.567621,0.079476,-0.083413,0.980879,-2.190688,1.274331,-7.930189
1790548854.7613,0.004849,-0.020608,0.571628,0.004598,-0.020133,0.571628,-0.020084,-0.072485,0.773260,-2.420655,0.605091,-10.996273
1790548854.7753,0.001372,-0.022747,0.575006,0.002340,-0.021963,0.575006,0.027268,0.155773,0.776903,-0.235960,-0.435949,-12.471098
1790548854.7893,-0.007839,-0.028377,0.578051,-0.004786,-0.026452,0.578051,0.281024,0.540656,0.693127,0.607255,-0.324409,-10.258860
1790548854.8032,-0.018414,-0.036600,0.585197,-0.014325,-0.033556,0.585197,0.508068,0.594079,0.739264,1.220503,0.270471,-8.473546
1790548854.8171,-0.028351,-0.047924,0.593150,-0.024143,-0.043613,0.593150,0.739969,0.545513,0.702840,1.718767,0.382011,-9.521448
1790548854.8307,-0.035809,-0.054547,0.602030,-0.032309,-0.051267,0.602030,0.475286,0.478735,0.657917,0.415615,1.423051,-9.987182
1790548854.8444,-0.038342,-0.055443,0.610887,-0.036532,-0.054190,0.610887,0.056407,0.156987,0.620278,-0.159304,1.534591,-10.142427
1790548854.8584,-0.039639,-0.051443,0.619089,-0.038707,-0.052268,0.619089,-0.316334,-0.022706,0.518291,1.335487,1.051251,-9.210958
1790548854.8724,-0.037274,-0.048606,0.624760,-0.037704,-0.049705,0.624760,-0.282338,-0.311671,0.401733,2.217030,0.307651,-10.802217
1790548854.8864,-0.033358,-0.042630,0.633533,-0.034662,-0.044753,0.633533,-0.451104,-0.484080,0.260892,3.865134,1.274331,-11.423196
1790548854.9005,-0.021836,-0.031530,0.638109,-0.025684,-0.035497,0.638109,-0.842058,-0.980664,0.052060,2.945262,0.530731,-9.987182
1790548854.9145,-0.007806,-0.017828,0.642187,-0.013169,-0.023129,0.642187,-1.038749,-1.173712,-0.034144,2.561982,0.493551,-8.512357
1790548854.9287,0.005857,-0.004493,0.647608,0.000149,-0.010084,0.647608,-1.007181,-1.172498,-0.031716,2.715294,0.344831,-7.425644
1790548854.9430,0.020157,0.012255,0.653220,0.014155,0.005553,0.653220,-1.206301,-1.214993,-0.063284,2.600310,0.902531,-7.192776
1790548854.9569,0.012452,0.019479,0.652334,0.012963,0.015301,0.652334,-0.608943,0.396173,-0.171342,4.363398,0.456371,-12.820399
1790548854.9708,0.012782,0.014999,0.640463,0.012836,0.015090,0.640463,0.384226,0.135133,-0.868260,0.147319,3.691031,-12.703965
1790548854.9848,0.031220,0.017187,0.624943,0.025705,0.016558,0.624943,0.047908,-0.929670,-1.472902,-2.420655,5.587211,-9.016902
1790548854.9989,0.036883,0.017400,0.613401,0.033530,0.017147,0.613401,0.186320,-0.162332,-1.079520,-0.619240,3.616671,-5.717951
1790548855.0129,0.043262,0.012527,0.598512,0.040342,0.013913,0.598512,0.335660,-0.113766,-0.881615,-2.957247,1.720491,-8.512357
1790548855.0269,0.060290,0.001946,0.585414,0.054306,0.005536,0.585414,0.710830,-0.918743,-0.905898,-3.455511,1.571771,-11.112707
1790548855.0409,0.071439,-0.006751,0.571704,0.066299,-0.003065,0.571704,0.640410,-0.541144,-1.126872,-2.075704,3.170511,-10.957462
1790548855.0545,0.070858,-0.007211,0.564864,0.069490,-0.005967,0.564864,0.186320,0.183698,-1.092876,0.032335,4.806431,-8.551168
1790548855.0681,0.074991,-0.007171,0.549332,0.073341,-0.006810,0.549332,0.041838,0.019789,-1.058880,-2.880591,3.096151,-8.706413
1790548855.0818,0.078254,-0.010105,0.534233,0.076780,-0.009116,0.534233,0.203318,0.029502,-0.978747,-2.497311,2.464091,-9.948371
1790548855.0958,0.071286,-0.014804,0.521204,0.072934,-0.013097,0.521204,0.262811,0.666927,-0.598720,-1.960720,1.274331,-11.888930
1790548855.1098,0.062164,-0.010425,0.510202,0.065395,-0.011227,0.510202,-0.355187,0.862404,-0.292756,-5.103614,2.129471,-16.313406
1790548855.1238,0.054856,0.004660,0.501020,0.058018,-0.000106,0.501020,-1.110383,0.777414,-0.155558,-6.636734,2.426911,-15.575993
1790548855.1376,0.047855,0.018194,0.490488,0.050904,0.012704,0.490488,-1.107955,0.659642,-0.022003,-2.190688,-0.101329,-8.357112
1790548855.1515,0.035359,0.028718,0.482594,0.040023,0.023913,0.482594,-0.867555,0.968034,0.088484,-0.542584,0.121751,-4.165504
