t,imu_roll,imu_pitch,imu_yaw,lpf_roll,lpf_pitch,lpf_yaw,gyro_x,gyro_y,gyro_z,acc_x,acc_y,acc_z
1790548001.5570,-0.050892,-0.043027,0.005960,-0.035625,-0.030119,0.005960,0.019787,0.007201,0.003514,0.338959,1.311511,-10.064805
1790548001.5722,-0.033394,-0.044799,0.005572,-0.034063,-0.040395,0.005572,-0.006924,-0.000084,0.004728,-0.044320,1.274331,-10.103616
1790548001.5861,-0.041017,-0.043221,0.005804,-0.038931,-0.042374,0.005804,-0.023922,-0.011011,-0.000129,0.377287,1.311511,-9.909560
1790548001.5998,-0.042772,-0.044961,0.006278,-0.041620,-0.044185,0.006278,-0.025136,-0.009797,-0.006199,0.300631,1.237151,-10.181238
1790548001.6139,-0.042533,-0.041469,0.005334,-0.042259,-0.042283,0.005334,-0.000853,-0.007369,-0.000129,0.223975,1.423051,-9.754315
1790548001.6279,-0.039302,-0.042002,0.005209,-0.040189,-0.042087,0.005209,-0.019065,0.007201,0.010799,0.032335,1.311511,-10.336483
1790548001.6421,-0.037979,-0.039715,0.005557,-0.038642,-0.040426,0.005557,-0.094342,-0.041365,0.030225,0.147319,1.460231,-10.491728
1790548001.6569,-0.038873,-0.034617,0.006855,-0.038803,-0.036360,0.006855,-0.162334,-0.069290,0.065435,0.338959,1.646131,-10.414105
1790548001.6710,-0.043505,-0.028789,0.009967,-0.042095,-0.031060,0.009967,-0.157477,-0.014653,0.147997,0.568927,1.608951,-9.210958
1790548001.6851,-0.044831,-0.019559,0.011247,-0.044010,-0.023009,0.011247,-0.184188,-0.049864,0.276696,0.377287,2.055111,-9.482637
1790548001.6995,-0.045842,-0.016506,0.018527,-0.045292,-0.018457,0.018527,-0.153835,-0.077789,0.449104,0.377287,1.646131,-9.831937
1790548001.7134,-0.045059,-0.022284,0.030171,-0.045129,-0.021136,0.030171,-0.006924,-0.080217,0.597229,0.147319,0.865351,-9.831937
1790548001.7274,-0.055831,-0.033829,0.052157,-0.052620,-0.030021,0.052157,0.133917,0.080050,0.706502,1.258831,0.233291,-9.249770
1790548001.7415,-0.055835,-0.029657,0.051693,-0.054871,-0.029766,0.051693,0.085351,0.049696,0.626369,0.108991,1.943571,-8.861658
1790548001.7554,-0.046113,-0.038064,0.067484,-0.048741,-0.035574,0.067484,-0.016637,-0.187062,0.472173,-1.040848,0.196111,-12.044175
1790548001.7693,-0.040228,-0.044320,0.076734,-0.042782,-0.041696,0.076734,-0.034849,-0.138496,0.294908,-0.504256,0.307651,-10.841028
1790548001.7833,-0.037459,-0.048267,0.081514,-0.039056,-0.046296,0.081514,0.018573,-0.112999,0.239057,-0.082648,0.716631,-10.802217
1790548001.7972,-0.033242,-0.049446,0.087047,-0.034986,-0.048501,0.087047,0.038000,-0.252625,0.217203,-0.044320,1.125611,-9.948371
1790548001.8108,-0.035074,-0.043725,0.086558,-0.035047,-0.045157,0.086558,-0.105269,-0.060791,0.166209,0.530599,1.869211,-8.939280
1790548001.8245,-0.031836,-0.038328,0.091338,-0.032800,-0.040377,0.091338,-0.153835,-0.188276,0.139498,-0.044320,1.720491,-8.628791
1790548001.8383,-0.032719,-0.035957,0.090008,-0.032743,-0.037283,0.090008,-0.130766,-0.214987,0.150425,0.875551,1.534591,-10.297672
1790548001.8522,-0.032208,-0.030591,0.089657,-0.032368,-0.032599,0.089657,-0.197544,-0.255054,0.167423,0.722239,2.055111,-10.297672
1790548001.8662,-0.031007,-0.024817,0.090064,-0.031415,-0.027152,0.090064,-0.303174,-0.309690,0.155281,0.760567,1.906391,-10.375294
1790548001.8801,-0.025777,-0.012021,0.086892,-0.027469,-0.016560,0.086892,-0.569071,-0.684860,0.152853,0.952207,2.687171,-9.637881
1790548001.8942,-0.035958,-0.011279,0.095344,-0.033411,-0.012863,0.095344,-0.147764,0.270670,0.031439,2.332014,1.794851,-13.713056
1790548001.9085,-0.043270,-0.022527,0.087101,-0.040313,-0.019628,0.087101,0.885471,0.536567,-0.191963,0.377287,2.426911,-13.208511
1790548001.9225,-0.036244,-0.009722,0.002082,-0.037464,-0.012694,0.002082,0.456879,0.231817,-0.667907,-1.539112,4.955151,-6.183686
1790548001.9366,-0.031884,-0.016964,-0.012443,-0.033558,-0.015683,-0.012443,0.299040,-0.053506,-0.888881,-0.312616,0.716631,-10.375294
1790548001.9506,-0.015985,-0.014345,-0.045411,-0.021257,-0.014746,-0.045411,-0.044562,-0.542805,-1.187560,-1.654096,2.166651,-10.103616
1790548001.9645,-0.027044,-0.009054,0.022693,-0.025308,-0.010762,0.022693,-0.204829,0.188108,-1.183917,3.021918,2.389731,-9.482637
1790548001.9789,-0.032595,-0.005933,0.014043,-0.030409,-0.007382,0.014043,-0.182974,0.446721,-1.273764,0.683911,1.608951,-9.016902
1790548001.9931,-0.021865,-0.006313,-0.046987,-0.024428,-0.006634,-0.046987,-0.119839,0.070336,-1.333257,-2.343999,0.865351,-9.249770
1790548002.0072,-0.026999,-0.005410,-0.071987,-0.026227,-0.005777,-0.071987,-0.037277,0.668909,-1.407319,-0.197632,1.869211,-10.569350
1790548002.0210,-0.027804,-0.000513,-0.097509,-0.027331,-0.002092,-0.097509,-0.317744,0.387228,-1.494738,-0.235960,1.943571,-10.530539
1790548002.0346,-0.034528,0.011126,-0.109173,-0.032369,0.007161,-0.109173,-0.660132,0.662838,-1.470455,0.492271,2.241011,-8.279490
1790548002.0482,-0.038569,0.014924,-0.140792,-0.036709,0.012595,-0.140792,-0.437944,0.722331,-1.366039,-0.580912,1.125611,-11.112707
1790548002.0623,-0.036259,0.013471,-0.171109,-0.036394,0.013208,-0.171109,-0.216970,0.270670,-1.165705,-0.772552,0.158931,-9.133336
1790548002.0763,-0.034844,0.011839,-0.191973,-0.035309,0.012250,-0.191973,-0.036063,0.169896,-0.978727,-0.274288,1.014071,-10.103616
1790548002.0902,-0.039115,0.015815,-0.200691,-0.037973,0.014745,-0.200691,-0.242467,0.399369,-0.822103,0.568927,2.129471,-10.375294
1790548002.1042,-0.025800,0.011476,-0.213382,-0.029452,0.012457,-0.213382,0.319681,-0.681217,-0.785679,-0.964192,2.761531,-14.760958
1790548002.1182,-0.031519,0.002099,-0.124664,-0.030899,0.005207,-0.124664,1.032382,-0.398322,-0.165252,4.555037,3.653851,-8.706413
1790548002.1320,-0.031414,-0.009762,-0.116357,-0.031259,-0.005271,-0.116357,1.204790,-0.400751,0.265768,1.948735,3.393591,-9.055714
1790548002.1461,-0.032728,-0.021168,-0.105305,-0.032287,-0.016399,-0.105305,1.043309,-0.234413,0.390825,1.450471,2.538451,-8.512357
1790548002.1609,-0.040405,-0.017042,-0.103059,-0.037970,-0.016849,-0.103059,-0.223041,0.456434,0.524381,0.223975,2.724351,-13.945924
1790548002.1751,-0.044453,-0.019226,-0.085303,-0.042508,-0.018513,-0.085303,0.021002,0.139543,0.956615,0.262303,1.014071,-11.539630
1790548002.1892,-0.040980,-0.031096,-0.079229,-0.041438,-0.027321,-0.079229,0.529727,-0.201631,1.268650,-0.772552,-0.212869,-6.532986
1790548002.2032,-0.041825,-0.036100,-0.086454,-0.041709,-0.033466,-0.086454,0.105992,0.275526,1.227369,-1.270816,-0.026969,-5.950818
1790548002.2172,-0.027669,-0.042321,-0.109637,-0.031881,-0.039664,-0.109637,0.010074,-0.415320,0.884981,-4.183743,-1.328269,-8.434735
1790548002.2311,-0.036051,-0.050171,-0.102111,-0.034800,-0.047019,-0.102111,0.244404,0.379943,0.820631,1.028863,-0.844929,-11.151518
1790548002.2459,-0.038889,-0.056340,-0.092401,-0.037662,-0.053543,-0.092401,0.296612,0.194179,0.816989,-0.580912,0.530731,-12.044175
1790548002.2608,-0.032608,-0.053571,-0.069613,-0.034125,-0.053563,-0.069613,-0.068845,-0.269623,0.778136,-1.615768,2.092291,-9.831937
1790548002.2747,-0.027597,-0.046005,-0.056579,-0.029555,-0.048273,-0.056579,-0.492580,-0.350971,0.683433,-0.504256,1.497411,-8.978091
1790548002.2886,-0.021557,-0.041914,-0.050827,-0.023956,-0.043821,-0.050827,-0.354168,-0.469957,0.600872,-0.274288,0.902531,-9.676693
1790548002.3051,-0.020131,-0.038811,-0.039898,-0.021279,-0.040314,-0.039898,-0.182974,-0.297549,0.477029,1.220503,1.385871,-10.025993
1790548002.3188,-0.019331,-0.036007,-0.031218,-0.019915,-0.037299,-0.031218,-0.131980,-0.080217,0.381112,-0.197632,1.757671,-9.366203
1790548002.3324,-0.014480,-0.030488,-0.021601,-0.016111,-0.032531,-0.021601,-0.286176,-0.337615,0.263340,-0.465928,2.241011,-9.870749
1790548002.3464,-0.009324,-0.020167,-0.004328,-0.011360,-0.023876,-0.004328,-0.561787,-0.537949,0.265768,0.798895,2.798711,-9.831937
1790548002.3604,-0.000630,-0.012497,0.003187,-0.003849,-0.015911,0.003187,-0.471940,-0.692145,0.093360,0.223975,2.761531,-12.820399
1790548002.3745,-0.006165,-0.014104,0.009455,-0.005470,-0.014646,0.009455,0.062282,0.126187,-0.092403,2.561982,1.497411,-12.509909
1790548002.3885,-0.003376,-0.016873,0.001391,-0.004004,-0.016205,0.001391,0.481161,-0.008583,-0.437220,-1.155832,3.876931,-9.793126
1790548002.4027,-0.002554,-0.012400,0.001617,-0.002989,-0.013542,0.001617,-0.038491,-0.042579,-0.837887,0.492271,2.724351,-6.649420
1790548002.4170,-0.003228,-0.018247,-0.013912,-0.003156,-0.016836,-0.013912,0.215264,0.149256,-1.096499,0.377287,0.121751,-8.978091
1790548002.4309,-0.005018,-0.018838,-0.018785,-0.004460,-0.018237,-0.018785,0.058640,0.076407,-1.259194,1.680439,1.720491,-9.249770
1790548002.4449,-0.010338,-0.016612,-0.019147,-0.008574,-0.017100,-0.019147,-0.190259,0.106761,-0.925305,2.868606,1.199971,-8.318301
1790548002.4588,0.002058,-0.020306,-0.062876,-0.001132,-0.019344,-0.062876,0.181268,-0.401965,-1.023650,-3.340527,1.014071,-11.267951
1790548002.4728,0.000137,-0.020083,-0.079988,-0.000244,-0.019862,-0.079988,0.189767,0.246387,-1.221556,0.377287,2.873071,-8.007811
1790548002.4868,0.006507,-0.019829,-0.110255,0.004482,-0.019839,-0.110255,0.050141,-0.122712,-1.397606,-1.232488,2.315371,-9.676693
1790548002.5004,0.003902,-0.017539,-0.129274,0.004076,-0.018229,-0.129274,-0.090699,0.399369,-1.410962,-0.120976,2.166651,-8.551168
1790548002.5140,0.007567,-0.022768,-0.153283,0.006520,-0.021406,-0.153283,0.238333,-0.000084,-1.197273,-0.772552,0.419191,-8.046623
1790548002.5280,0.011231,-0.026544,-0.168517,0.009818,-0.025003,-0.168517,0.257759,-0.096001,-1.069788,-0.350944,1.460231,-8.978091
1790548002.5418,0.011304,-0.028330,-0.179433,0.010858,-0.027332,-0.179433,0.216478,0.118902,-1.000582,-0.120976,2.092291,-8.357112
1790548002.5557,0.010906,-0.023505,-0.198045,0.010892,-0.024653,-0.198045,0.038000,0.267027,-1.063717,-0.849208,4.285911,-7.348021
1790548002.5696,-0.004289,-0.016644,-0.203636,0.000265,-0.019047,-0.203636,-0.405162,1.187347,-0.956873,0.530599,3.579491,-13.557812
1790548002.5836,-0.007930,-0.006259,-0.257523,-0.005472,-0.010096,-0.257523,-0.788831,0.705333,-0.737113,-3.263871,1.571771,-11.423196
1790548002.5976,-0.009407,0.002819,-0.297509,-0.008226,-0.001056,-0.297509,-0.836183,0.486787,-0.302450,-3.033903,0.158931,-10.297672
1790548002.6115,-0.004720,0.004124,-0.317900,-0.005772,0.002570,-0.317900,-0.274035,0.123759,-0.249028,-3.800463,0.084571,-9.055714
1790548002.6255,0.002243,0.002370,-0.311963,-0.000162,0.002430,-0.311963,0.211622,-0.417749,0.064221,-1.117504,2.426911,-9.443825
1790548002.6394,-0.007535,-0.008117,-0.276218,-0.005323,-0.004953,-0.276218,0.659640,0.319236,0.831559,2.485326,0.567911,-11.694875
1790548002.6535,-0.012800,-0.018543,-0.277300,-0.010557,-0.014466,-0.277300,0.628073,0.310737,1.018537,-0.772552,0.382011,-8.434735
1790548002.6680,-0.008676,-0.026462,-0.276900,-0.009240,-0.022863,-0.276900,0.421669,-0.082645,0.810918,-3.378855,0.158931,-9.676693
1790548002.6822,-0.015178,-0.030680,-0.272795,-0.013397,-0.028335,-0.272795,0.218907,0.321664,0.687076,0.415615,0.679451,-10.841028
1790548002.6965,-0.033441,-0.041468,-0.244532,-0.027427,-0.037528,-0.244532,0.626859,0.921450,0.826702,2.638638,-0.064149,-9.987182
1790548002.7106,-0.045025,-0.048307,-0.208541,-0.039746,-0.045073,-0.208541,0.626859,0.606987,1.058603,0.760567,1.980751,-7.037532
1790548002.7244,-0.058808,-0.055079,-0.183470,-0.053090,-0.052077,-0.183470,0.588006,0.853458,1.022179,0.607255,2.203831,-9.172147
1790548002.7382,-0.064213,-0.059258,-0.166597,-0.060876,-0.057104,-0.166597,0.387673,0.369015,0.971185,-0.389272,2.203831,-9.288581
1790548002.7522,-0.064435,-0.061616,-0.153377,-0.063367,-0.060262,-0.153377,0.190982,-0.049864,0.722286,0.338959,1.980751,-11.850119
1790548002.7664,-0.057501,-0.067050,-0.154605,-0.059261,-0.065014,-0.154605,0.238333,-0.512452,0.721072,-0.197632,-0.064149,-12.665154
1790548002.7803,-0.048397,-0.068687,-0.157679,-0.051656,-0.067585,-0.157679,-0.074916,-0.690931,0.613013,0.032335,-0.659029,-10.142427
1790548002.7942,-0.042909,-0.064887,-0.136325,-0.045533,-0.065696,-0.136325,-0.536290,-0.711571,0.634868,2.561982,-1.476988,-9.016902
1790548002.8081,-0.037491,-0.059653,-0.117246,-0.039904,-0.061466,-0.117246,-0.626136,-0.717642,0.625154,2.446998,-1.253909,-8.240679
1790548002.8220,-0.028013,-0.050094,-0.107474,-0.031580,-0.053506,-0.107474,-0.836183,-0.907048,0.450318,1.948735,-0.324409,-10.452916
1790548002.8359,-0.013609,-0.036142,-0.098202,-0.019000,-0.041351,-0.098202,-1.099652,-1.289503,0.203847,2.676966,0.344831,-11.578441
1790548002.8498,-0.000953,-0.019489,-0.086009,-0.006367,-0.026047,-0.086009,-1.295128,-1.295573,0.082433,3.980118,0.382011,-10.064805
1790548002.8636,0.008059,-0.001181,-0.079256,0.003731,-0.008641,-0.079256,-1.429898,-1.064886,-0.042624,4.056774,0.456371,-9.094525
1790548002.8776,-0.007682,-0.008960,-0.077892,-0.004258,-0.008864,-0.077892,0.394957,1.086573,-0.292737,1.565455,-0.026969,-14.644525
1790548002.8916,0.000211,-0.016434,-0.088019,-0.001130,-0.014163,-0.088019,0.546725,-0.165207,-0.958087,-4.068759,2.538451,-13.208511
1790548002.9060,0.019033,-0.020164,-0.101798,0.012984,-0.018364,-0.101798,0.324537,-0.802632,-1.015151,-4.796990,2.538451,-9.366203
1790548002.9204,0.018089,-0.025379,-0.116285,0.016558,-0.023274,-0.116285,0.394957,0.053338,-0.775965,1.028863,2.017931,-9.133336
1790548002.9345,0.027812,-0.030726,-0.128290,0.024436,-0.028490,-0.128290,0.382816,-0.465100,-0.893737,-1.769080,2.017931,-10.763406
1790548002.9485,0.041104,-0.041221,-0.142104,0.036103,-0.037402,-0.142104,0.772556,-0.726141,-1.020008,-1.424128,1.794851,-8.357112
1790548002.9621,0.048367,-0.049551,-0.158981,0.044688,-0.045907,-0.158981,0.721562,-0.410464,-1.169348,-0.312616,2.315371,-6.882287
1790548002.9757,0.056409,-0.052994,-0.175549,0.052893,-0.050868,-0.175549,0.483590,-0.484526,-1.077073,-0.389272,3.170511,-6.416553
1790548002.9897,0.063078,-0.064221,-0.188588,0.060023,-0.060215,-0.188588,0.761628,-0.408036,-1.141422,-0.159304,1.534591,-9.482637
1790548003.0037,0.045972,-0.071692,-0.191821,0.050187,-0.068249,-0.191821,0.469020,1.059862,-1.064931,3.098574,1.608951,-11.811308
1790548003.0176,0.033610,-0.059600,-0.217637,0.038583,-0.062195,-0.217637,-0.957597,1.200703,-0.871883,-4.873646,1.199971,-15.964105
1790548003.0316,0.029820,-0.046355,-0.234492,0.032449,-0.051107,-0.234492,-1.170072,0.546280,-0.718901,-3.072231,-1.105189,-11.306763
1790548003.0456,0.025256,-0.030881,-0.250583,0.027414,-0.036949,-0.250583,-1.426256,0.719902,-0.638767,-2.918919,-1.588528,-6.649420
1790548003.0594,0.012429,-0.012149,-0.262528,0.016924,-0.019589,-0.262528,-1.411686,1.051363,-0.655765,-0.274288,0.716631,-5.601518
1790548003.0733,0.001150,0.001670,-0.275727,0.005882,-0.004708,-0.275727,-1.072940,1.198274,-0.817246,-1.884064,0.642271,-6.028441
1790548003.0873,-0.009001,0.010898,-0.282744,-0.004536,0.006216,-0.282744,-0.592140,0.909309,-0.671549,-0.619240,2.352551,-8.279490
1790548003.1013,0.003379,0.003395,-0.290257,0.001004,0.004241,-0.290257,0.415598,-0.755280,-0.230816,-3.110559,0.679451,-21.281238
1790548003.1152,0.005128,0.010137,-0.289089,0.003891,0.008368,-0.289089,-0.503508,-0.229557,0.181993,0.683911,1.794851,-11.694875
1790548003.1292,-0.000729,0.006284,-0.289474,0.000657,0.006909,-0.289474,0.131489,0.167468,0.559591,2.217030,-0.175689,-12.975644
1790548003.1430,0.001736,-0.010411,-0.277293,0.001413,-0.005215,-0.277293,0.932822,0.070336,0.171065,-0.925864,-0.510309,-2.419000
1790548003.1571,-0.013361,-0.014916,-0.270049,-0.008929,-0.012006,-0.270049,0.550368,0.727187,0.158924,2.638638,2.724351,-5.329839
1790548003.1714,-0.024453,-0.026779,-0.267639,-0.019796,-0.022347,-0.267639,0.849047,0.648268,0.377469,1.105519,1.757671,-10.336483
1790548003.1851,-0.040409,-0.034467,-0.257152,-0.034225,-0.030831,-0.257152,0.672996,1.063505,0.685862,0.338959,2.687171,-9.172147
1790548003.1989,-0.045597,-0.039649,-0.243345,-0.042186,-0.037004,-0.243345,0.453236,0.403011,0.759924,-1.309144,2.538451,-10.103616
1790548003.2128,-0.048279,-0.042566,-0.230071,-0.046451,-0.040897,-0.230071,0.266258,0.123759,0.761138,-0.082648,2.203831,-9.560259
1790548003.2267,-0.040983,-0.045826,-0.222069,-0.042623,-0.044347,-0.222069,0.150915,-0.590157,0.708930,-0.235960,0.605091,-12.936833
1790548003.2406,-0.032819,-0.043865,-0.214410,-0.035760,-0.044010,-0.214410,-0.215756,-0.738282,0.666435,1.105519,0.605091,-12.044175
1790548003.2545,-0.028377,-0.039913,-0.210734,-0.030592,-0.041142,-0.210734,-0.444015,-0.592585,0.679791,2.332014,-0.621849,-9.793126
1790548003.2684,-0.023004,-0.034293,-0.204408,-0.025281,-0.036348,-0.204408,-0.508364,-0.807488,0.719858,2.830278,-0.026969,-6.377742
1790548003.2823,-0.015271,-0.024754,-0.196589,-0.018274,-0.028232,-0.196589,-0.752407,-0.843913,0.653080,1.987063,0.456371,-8.201867
1790548003.2963,-0.003065,-0.011695,-0.190435,-0.007628,-0.016657,-0.190435,-0.953954,-1.118309,0.519524,1.718767,1.162791,-9.366203
1790548003.3104,0.006257,0.002898,-0.185759,0.002092,-0.002968,-0.185759,-1.088724,-0.988395,0.264554,3.750150,0.939711,-10.802217
1790548003.3244,0.003903,0.008503,-0.183330,0.003360,0.005062,-0.183330,-0.532647,-0.013439,-0.196820,4.056774,0.158931,-14.955014
1790548003.3384,0.001484,0.006245,-0.187485,0.002047,0.005890,-0.187485,0.160628,0.443078,-0.740755,-2.190688,2.315371,-11.229140
1790548003.3524,0.018660,0.000388,-0.192546,0.013676,0.002038,-0.192546,0.549153,-0.839056,-0.865812,-4.298727,4.211551,-10.297672
1790548003.3664,0.013970,-0.007470,-0.220500,0.013882,-0.004617,-0.220500,0.725204,0.253672,-0.689761,0.913879,1.571771,-3.544525
1790548003.3805,0.015915,-0.015661,-0.228557,0.015305,-0.012348,-0.228557,0.546725,-0.109357,-0.616913,0.492271,1.199971,-8.667602
1790548003.3945,0.026878,-0.017767,-0.242941,0.023406,-0.016141,-0.242941,0.161842,-0.694573,-0.870669,0.032335,2.501271,-11.850119
1790548003.4085,0.029628,-0.027852,-0.257537,0.027762,-0.024339,-0.257537,0.646285,0.027841,-1.209414,-1.079176,1.237151,-9.987182
1790548003.4225,0.037494,-0.030290,-0.283820,0.034575,-0.028505,-0.283820,0.282042,-0.298763,-1.285905,-1.347472,2.947431,-7.503266
1790548003.4362,0.039337,-0.035736,-0.294631,0.037909,-0.033566,-0.294631,0.301468,-0.089930,-1.171776,0.760567,0.790991,-8.007811
1790548003.4502,0.043117,-0.046694,-0.301504,0.041554,-0.042756,-0.301504,0.653570,-0.202846,-1.009081,0.223975,0.344831,-9.133336
1790548003.4640,0.050907,-0.053414,-0.324928,0.048101,-0.050217,-0.324928,0.614717,-0.383753,-0.870669,-1.500784,3.058971,-8.124245
1790548003.4780,0.029688,-0.041966,-0.343244,0.035212,-0.044441,-0.343244,-0.819185,1.625652,-0.822103,-0.849208,4.174371,-19.728791
1790548003.4920,0.032419,-0.026988,-0.339638,0.033257,-0.032224,-0.339638,-1.151860,0.212391,-0.717687,-7.518277,1.088431,-14.256413
1790548003.5059,0.029385,-0.015272,-0.337354,0.030547,-0.020358,-0.337354,-0.955169,0.755113,-0.774751,-5.065286,0.307651,-6.843476
1790548003.5198,0.016911,-0.004539,-0.344915,0.021002,-0.009285,-0.344915,-0.985522,1.143638,-0.394725,-0.734224,-0.287229,-2.651867
1790548003.5337,0.002445,0.015472,-0.347853,0.008012,0.008045,-0.347853,-1.082654,1.171563,-0.670335,-0.044320,1.832031,-2.030888
1790548003.5476,0.003059,0.012141,-0.359955,0.004545,0.010912,-0.359955,0.164270,0.126187,-0.705545,-1.385800,1.943571,-18.836133
1790548003.5616,0.009602,0.006612,-0.355008,0.008085,0.007902,-0.355008,0.503016,-0.632652,-0.201676,4.171758,5.698751,-16.313406
1790548003.5755,-0.002874,0.011043,-0.349047,0.000414,0.010101,-0.349047,-0.203615,0.757541,0.472173,1.182175,5.066691,-14.683336
1790548003.5895,-0.002046,0.007687,-0.349595,-0.001308,0.008411,-0.349595,0.101135,-0.003726,0.645795,-2.458983,-0.324409,-9.327392
1790548003.6036,-0.001161,-0.000719,-0.344273,-0.001205,0.002020,-0.344273,0.492089,-0.106928,0.571732,-0.849208,0.047391,-8.551168
1790548003.6175,-0.016723,-0.006999,-0.324923,-0.012068,-0.004293,-0.324923,0.442309,0.529282,0.537736,2.676966,0.382011,-2.690678
1790548003.6313,-0.032609,-0.018220,-0.313554,-0.026447,-0.014042,-0.313554,0.747059,0.886240,0.734427,2.753622,0.828171,-11.811308
1790548003.6449,-0.040229,-0.027408,-0.307090,-0.036094,-0.023398,-0.307090,0.714277,0.498929,0.833987,-0.504256,1.906391,-8.784035
1790548003.6588,-0.051699,-0.033725,-0.299179,-0.047018,-0.030627,-0.299179,0.503016,0.707761,0.959044,0.223975,2.203831,-9.249770
1790548003.6733,-0.053819,-0.036967,-0.292239,-0.051779,-0.035065,-0.292239,0.239547,0.148042,0.894694,-1.577440,2.166651,-10.569350
1790548003.6874,-0.045167,-0.039515,-0.277911,-0.047150,-0.038180,-0.277911,0.112062,-0.706714,0.887409,-0.235960,0.865351,-11.229140
1790548003.7014,-0.036523,-0.035346,-0.264762,-0.039711,-0.036196,-0.264762,-0.321386,-0.774706,0.758710,1.105519,1.646131,-12.665154
1790548003.7154,-0.030786,-0.029602,-0.242884,-0.033464,-0.031580,-0.242884,-0.583641,-0.704286,0.853413,2.523654,-0.919289,-9.676693
1790548003.7292,-0.025833,-0.022630,-0.226562,-0.028122,-0.025315,-0.226562,-0.684415,-0.743139,0.827916,2.983590,-0.844929,-7.580888
1790548003.7431,-0.016372,-0.012733,-0.212365,-0.019897,-0.016508,-0.212365,-0.819185,-0.925260,0.630011,1.412143,0.047391,-7.231588
1790548003.7570,-0.007071,0.002022,-0.208446,-0.010919,-0.003537,-0.208446,-1.148217,-0.958042,0.375041,3.443526,0.344831,-11.190329
1790548003.7710,-0.001138,0.018570,-0.210994,-0.004072,0.011938,-0.210994,-1.276916,-0.680003,0.014441,3.865134,0.493551,-11.151518
1790548003.7848,-0.005005,0.017343,-0.206627,-0.004725,0.015722,-0.206627,-0.082200,0.157755,-0.338874,4.133430,-0.696209,-15.304315
1790548003.7988,-0.000734,0.013906,-0.215093,-0.001932,0.014451,-0.215093,0.239547,0.036340,-1.022436,-3.263871,2.761531,-13.324944
1790548003.8128,0.004284,0.009028,-0.266051,0.002419,0.010655,-0.266051,0.602576,-0.244126,-0.636339,-0.427600,5.735931,-9.754315
1790548003.8270,0.000000,0.004579,-0.291028,0.000726,0.006402,-0.291028,0.431382,0.154112,-0.525852,2.293686,2.278191,-5.950818
1790548003.8410,0.015512,-0.005697,-0.289104,0.011076,-0.002067,-0.289104,0.686351,-0.824486,-0.847600,-3.378855,1.608951,-12.471098
1790548003.8550,0.025843,-0.011071,-0.318293,0.021413,-0.008370,-0.318293,0.456879,-0.550090,-1.155992,-0.580912,3.170511,-9.754315
1790548003.8689,0.032901,-0.018255,-0.347971,0.029455,-0.015289,-0.347971,0.557652,-0.307262,-1.311402,-0.350944,2.129471,-7.076343
1790548003.8825,0.034709,-0.021325,-0.374981,0.033132,-0.019514,-0.374981,0.300254,-0.036508,-1.237339,0.492271,2.092291,-5.873196
1790548003.8963,0.040206,-0.029470,-0.384756,0.038084,-0.026483,-0.384756,0.494517,-0.236841,-1.147493,-0.389272,0.642271,-6.688231
1790548003.9103,0.048100,-0.038803,-0.401199,0.045095,-0.035107,-0.401199,0.615931,-0.398322,-1.072216,-0.810880,1.237151,-8.124245
1790548003.9249,0.033281,-0.042091,-0.424422,0.036825,-0.039996,-0.424422,0.288113,1.067147,-0.904665,0.990535,4.471811,-13.713056
1790548003.9390,0.017552,-0.031774,-0.443308,0.023334,-0.034241,-0.443308,-0.751193,1.374325,-0.880382,-4.337055,3.319231,-18.525644
1790548003.9529,0.015091,-0.017578,-0.376711,0.017564,-0.022577,-0.376711,-1.182213,0.713832,-0.717687,-7.249981,-0.398769,-8.046623
1790548003.9669,0.006564,-0.006601,-0.375355,0.009864,-0.011394,-0.375355,-1.025589,0.840103,-0.561062,-1.539112,-1.179549,-6.804665
1790548003.9808,-0.008093,0.007169,-0.396115,-0.002706,0.001600,-0.396115,-0.879892,0.990656,-0.470002,1.067191,1.608951,-4.243126
1790548003.9949,-0.017134,0.016489,-0.418647,-0.012806,0.012023,-0.418647,-0.600639,0.927521,-0.659408,-1.960720,2.315371,-8.046623
1790548004.0088,-0.006827,0.006096,-0.418576,-0.008620,0.007874,-0.418576,0.629287,-0.571945,-0.505212,-2.612295,0.196111,-18.758511
1790548004.0229,-0.008150,0.006718,-0.415768,-0.008291,0.007065,-0.415768,-0.008138,0.009629,0.311906,0.492271,3.319231,-14.372847
1790548004.0368,-0.021132,0.006459,-0.401288,-0.017280,0.006641,-0.401288,-0.028778,0.671337,0.704074,2.830278,1.311511,-12.393476
1790548004.0506,-0.024753,-0.000257,-0.384577,-0.022511,0.001813,-0.384577,0.410741,-0.018296,0.716215,1.987063,0.567911,-8.279490
1790548004.0645,-0.032594,-0.014411,-0.372652,-0.029569,-0.009544,-0.372652,0.869687,0.682264,0.360472,-2.343999,-0.696209,-9.831937
1790548004.0783,-0.045508,-0.022687,-0.367796,-0.040726,-0.018744,-0.367796,0.601362,0.881383,0.560805,-0.120976,1.571771,-9.210958
1790548004.0925,-0.056943,-0.030916,-0.361310,-0.052078,-0.027265,-0.361310,0.591648,0.701690,0.734427,0.530599,1.869211,-10.064805
1790548004.1062,-0.069499,-0.039773,-0.352237,-0.064273,-0.036020,-0.352237,0.635358,0.764826,0.944474,0.990535,1.943571,-11.073895
1790548004.1199,-0.075406,-0.044814,-0.346757,-0.072066,-0.042176,-0.346757,0.394957,0.384799,0.912906,-0.427600,2.278191,-9.715504
1790548004.1339,-0.074845,-0.047298,-0.339895,-0.074011,-0.045762,-0.339895,0.193410,-0.068076,0.915334,-0.734224,2.129471,-9.327392
1790548004.1478,-0.069382,-0.044123,-0.336411,-0.070770,-0.044614,-0.336411,-0.165976,-0.405607,0.781779,-0.734224,2.538451,-8.628791
1790548004.1619,-0.059511,-0.042044,-0.317419,-0.062889,-0.042815,-0.317419,-0.297104,-0.845127,0.765995,1.335487,-0.510309,-13.868301
1790548004.1765,-0.053707,-0.036588,-0.299050,-0.056462,-0.038456,-0.299050,-0.507150,-0.643579,0.734427,3.366870,-0.398769,-12.587532
1790548004.1905,-0.046979,-0.027178,-0.284441,-0.049824,-0.030561,-0.284441,-0.803401,-0.812345,0.736856,2.638638,-0.175689,-6.843476
1790548004.2045,-0.032620,-0.015988,-0.267517,-0.037781,-0.020360,-0.267517,-0.898104,-1.129236,0.536522,0.185647,0.158931,-5.562707
1790548004.2184,-0.015688,-0.001815,-0.266090,-0.022316,-0.007379,-0.266090,-0.969738,-1.410917,0.486742,0.875551,1.534591,-6.106063
1790548004.2323,-0.004148,0.014988,-0.256766,-0.009599,0.008278,-0.256766,-1.250205,-1.023606,0.368970,2.293686,1.534591,-14.062357
1790548004.2463,-0.009429,0.022725,-0.249686,-0.009480,0.018391,-0.249686,-0.691700,0.199036,0.065435,5.244941,-0.324409,-20.039280
1790548004.2602,-0.012374,0.021112,-0.257719,-0.011506,0.020296,-0.257719,0.080495,0.316807,-0.680048,0.645583,2.315371,-15.187882
1790548004.2742,0.005467,0.023079,-0.337349,0.000375,0.022244,-0.337349,0.240761,-0.843913,-1.085572,-2.305671,4.062831,-3.660958
1790548004.2880,0.008121,0.024538,-0.338482,0.005797,0.023850,-0.338482,0.206765,-0.255054,-0.621769,0.952207,2.538451,-2.768301
1790548004.3020,0.005930,0.016590,-0.342938,0.005890,0.018768,-0.342938,0.556438,0.196607,-0.451790,0.300631,1.125611,-5.756762
1790548004.3160,0.020256,0.004254,-0.356844,0.015946,0.008608,-0.356844,0.872115,-0.700644,-0.948374,-3.608823,2.315371,-11.656063
1790548004.3308,0.027938,-0.007292,-0.381712,0.024340,-0.002522,-0.381712,0.790768,-0.309690,-1.392750,-0.044320,2.873071,-10.025993
1790548004.3451,0.033188,-0.012896,-0.397449,0.030533,-0.009784,-0.397449,0.394957,-0.259910,-1.312616,0.990535,2.501271,-9.288581
1790548004.3592,0.038633,-0.020395,-0.417844,0.036203,-0.017212,-0.417844,0.501802,-0.205274,-1.285905,-0.235960,1.608951,-7.503266
1790548004.3740,0.049578,-0.030948,-0.441391,0.045565,-0.026827,-0.441391,0.675424,-0.439603,-1.162063,-2.343999,1.460231,-7.774944
1790548004.3889,0.047956,-0.043149,-0.461089,0.047239,-0.038252,-0.461089,0.829620,0.250029,-0.826959,-1.807408,3.914111,-16.119350
1790548004.4031,0.021259,-0.035186,-0.484085,0.029053,-0.036106,-0.484085,-0.548431,2.102810,-0.714044,-3.992103,4.323091,-18.098721
1790548004.4171,0.025954,-0.019954,-0.463980,0.026883,-0.024799,-0.463980,-1.178571,0.127401,-0.722543,-11.427731,0.753811,-14.955014
1790548004.4312,0.017943,-0.006937,-0.454594,0.020625,-0.012296,-0.454594,-1.211353,0.936020,-0.646052,-2.650623,-1.625708,-5.213406
1790548004.4453,0.003202,0.004816,-0.464719,0.008429,-0.000318,-0.464719,-0.986736,1.218915,-0.535565,-0.389272,-0.101329,-3.156413
1790548004.4592,-0.000075,0.015521,-0.477331,0.002476,0.010769,-0.477331,-0.814328,0.540209,-0.570775,-1.385800,0.605091,-4.204315
1790548004.4732,-0.000370,0.010851,-0.489282,0.000484,0.010826,-0.489282,0.207980,0.231817,-0.658194,-2.535639,0.084571,-16.740329
1790548004.4871,0.006477,0.004184,-0.483714,0.004679,0.006177,-0.483714,0.511515,-0.596228,0.036296,2.140375,4.174371,-18.292777
1790548004.5010,0.002003,0.004455,-0.475661,0.002806,0.004972,-0.475661,0.039214,0.199036,0.474601,0.568927,3.133331,-12.199420
1790548004.5150,-0.001696,0.002249,-0.462910,-0.000345,0.003066,-0.462910,0.110848,0.050910,0.725928,1.258831,0.828171,-10.530539
1790548004.5289,-0.004375,-0.006778,-0.455047,-0.003166,-0.003825,-0.455047,0.507873,0.094619,0.438177,0.185647,-0.510309,-8.046623
1790548004.5428,-0.021504,-0.014501,-0.444781,-0.016003,-0.011298,-0.444781,0.607432,0.934806,0.619084,3.558510,2.389731,-9.909560
1790548004.5568,-0.035586,-0.025276,-0.435057,-0.029711,-0.021083,-0.435057,0.784697,0.864385,0.854627,0.530599,1.906391,-10.414105
1790548004.5704,-0.050616,-0.037820,-0.422554,-0.044344,-0.032799,-0.422554,0.921895,0.929949,1.063460,0.875551,1.683311,-10.025993
1790548004.5841,-0.063604,-0.042415,-0.412745,-0.057826,-0.039530,-0.412745,0.426525,0.846173,1.120524,-0.120976,3.430771,-10.103616
1790548004.5981,-0.057675,-0.045673,-0.400417,-0.057721,-0.043830,-0.400417,0.187339,-0.414106,1.036749,-2.075704,1.348691,-10.608161
1790548004.6120,-0.048960,-0.043008,-0.384783,-0.051588,-0.043254,-0.384783,-0.247324,-0.786848,0.927476,1.105519,1.199971,-12.548721
1790548004.6259,-0.041229,-0.037900,-0.371013,-0.044337,-0.039507,-0.371013,-0.480439,-0.680003,0.721072,0.607255,-0.101329,-10.841028
1790548004.6398,-0.035534,-0.034391,-0.349503,-0.038175,-0.035926,-0.349503,-0.427017,-0.721284,0.852199,2.791950,-1.030829,-8.628791
1790548004.6537,-0.028474,-0.023360,-0.333847,-0.031384,-0.027130,-0.333847,-0.894462,-0.887622,0.809704,3.136902,-0.064149,-6.998721
1790548004.6680,-0.013763,-0.010747,-0.317434,-0.019049,-0.015662,-0.317434,-0.991593,-1.348996,0.701645,2.523654,-0.175689,-7.736133
1790548004.6826,-0.004867,0.005216,-0.307227,-0.009122,-0.001047,-0.307227,-1.168858,-0.903405,0.524381,2.676966,0.233291,-8.318301
1790548004.6968,0.004821,0.023181,-0.302027,0.000638,0.015912,-0.302027,-1.314555,-0.913119,0.275482,2.370342,0.976891,-9.676693
1790548004.7108,0.004670,0.025381,-0.291754,0.003461,0.022541,-0.291754,-0.322601,0.135900,-0.484571,-1.040848,-0.547489,-17.632987
1790548004.7248,0.014546,0.015436,-0.300977,0.011220,0.017567,-0.300977,0.691208,-0.355827,-1.050362,-3.953775,2.724351,-13.402567
1790548004.7388,0.024394,0.011433,-0.326706,0.020442,0.013274,-0.326706,0.375531,-0.463886,-1.081929,-1.270816,3.728211,-9.405014
1790548004.7527,0.027271,0.009157,-0.335341,0.025222,0.010392,-0.335341,0.139988,-0.195561,-0.474858,0.415615,1.088431,-6.222497
1790548004.7666,0.038466,-0.002685,-0.333290,0.034493,0.001238,-0.333290,0.748273,-0.542805,-0.681262,-3.608823,0.716631,-12.044175
1790548004.7808,0.057576,-0.018666,-0.343052,0.050651,-0.012694,-0.343052,1.083376,-1.064886,-1.050362,-3.762135,2.129471,-12.393476
1790548004.7946,0.063885,-0.023007,-0.399099,0.059915,-0.019913,-0.399099,0.534584,-0.358256,-1.267693,0.377287,3.616671,-4.825294
1790548004.8083,0.063504,-0.026764,-0.426218,0.062428,-0.024709,-0.426218,0.369460,0.109189,-1.159634,0.415615,2.947431,-6.222497
1790548004.8223,0.068004,-0.034485,-0.447266,0.066331,-0.031552,-0.447266,0.513943,-0.153066,-1.210628,-0.619240,1.646131,-6.959909
1790548004.8363,0.075716,-0.043444,-0.468694,0.072900,-0.039876,-0.468694,0.597719,-0.320617,-1.206986,-1.845736,1.943571,-8.434735
1790548004.8502,0.058007,-0.045673,-0.484958,0.062475,-0.043934,-0.484958,0.135131,1.328188,-0.953230,0.683911,3.765391,-15.420749
1790548004.8641,0.045620,-0.033224,-0.498391,0.050677,-0.036437,-0.498391,-0.960025,1.107214,-0.726186,-4.911974,2.612811,-19.806413
1790548004.8781,0.038568,-0.016845,-0.502394,0.042201,-0.022723,-0.502394,-1.261132,0.807321,-0.578060,-4.796990,0.828171,-11.345574
1790548004.8922,0.034091,-0.002874,-0.488448,0.036524,-0.008829,-0.488448,-1.241706,0.654339,-0.508854,-3.685479,-1.588528,-7.464455
1790548004.9061,0.013674,0.015859,-0.495050,0.020529,0.008452,-0.495050,-1.111793,1.350042,-0.463931,0.722239,1.311511,-1.759210
1790548004.9203,-0.000265,0.027518,-0.516102,0.005973,0.021798,-0.516102,-0.661346,1.183705,-0.660622,-0.427600,2.203831,-4.010259
1790548004.9346,0.010843,0.023458,-0.530258,0.009382,0.022960,-0.530258,0.409527,-0.604727,-0.727400,-0.887536,4.211551,-9.210958
1790548004.9487,0.005221,0.020158,-0.519308,0.006469,0.020999,-0.519308,0.284470,0.247601,0.133427,2.830278,4.211551,-14.955014
1790548004.9625,0.000839,0.016910,-0.508852,0.002528,0.018137,-0.508852,0.220121,0.186894,0.722286,-0.312616,1.683311,-11.733686
1790548004.9764,-0.002615,0.013958,-0.484316,-0.001072,0.015212,-0.484316,0.214050,-0.070504,0.925048,2.255358,1.757671,-10.491728
1790548004.9906,-0.014155,0.004661,-0.460542,-0.010231,0.007826,-0.460542,0.693636,0.417581,0.634868,2.906934,1.385871,-5.523895
1790548005.0046,-0.033540,-0.003808,-0.447936,-0.026547,-0.000318,-0.447936,0.671782,0.976086,0.842486,4.210086,2.352551,-7.774944
1790548005.0186,-0.046856,-0.017706,-0.433454,-0.040763,-0.012490,-0.433454,0.944964,0.802464,0.910478,0.453943,1.274331,-11.229140
1790548005.0322,-0.058547,-0.025670,-0.436962,-0.053212,-0.021716,-0.436962,0.683923,0.728401,1.040391,0.338959,3.356411,-9.909560
1790548005.0458,-0.062149,-0.029322,-0.446546,-0.059468,-0.027040,-0.446546,0.313610,0.286454,1.074387,-2.267343,2.724351,-9.987182
1790548005.0598,-0.055027,-0.029517,-0.436699,-0.056359,-0.028774,-0.436699,-0.000853,-0.625367,1.136308,-0.504256,2.203831,-11.423196
1790548005.0736,-0.044865,-0.024404,-0.416978,-0.048313,-0.025715,-0.416978,-0.408805,-0.939830,1.096242,0.760567,1.460231,-9.715504
1790548005.0876,-0.042070,-0.016727,-0.386426,-0.043943,-0.019424,-0.386426,-0.612781,-0.486955,1.079244,1.603783,0.790991,-7.619700
1790548005.1019,-0.034349,-0.009412,-0.368872,-0.037227,-0.012416,-0.368872,-0.497437,-0.783205,1.017322,1.067191,1.794851,-7.891378
1790548005.1158,-0.026892,-0.000549,-0.350509,-0.029993,-0.004109,-0.350509,-0.626136,-0.791704,0.826702,2.293686,2.761531,-12.742777
1790548005.1299,-0.019309,0.011336,-0.314578,-0.022514,0.006703,-0.314578,-0.960025,-0.834199,0.574161,4.516709,0.344831,-15.537182
1790548005.1439,-0.013747,0.023024,-0.294448,-0.016377,0.018128,-0.294448,-0.933314,-0.584086,0.076362,3.136902,0.642271,-12.199420
1790548005.1577,-0.010532,0.024367,-0.297007,-0.012286,0.022495,-0.297007,-0.121053,-0.140924,-0.273311,-0.695896,1.497411,-9.133336
1790548005.1719,-0.001612,0.018048,-0.348302,-0.004814,0.019382,-0.348302,0.484804,-0.180991,-0.888881,-3.608823,1.646131,-6.882287
1790548005.1870,0.013952,0.006084,-0.384919,0.008322,0.010074,-0.384919,0.847832,-0.658149,-0.932590,-3.953775,2.873071,-9.172147
1790548005.2012,0.010530,0.003063,-0.382491,0.009867,0.005166,-0.382491,0.187339,0.212391,-0.771109,2.868606,2.203831,-11.539630
1790548005.2154,0.021146,-0.001256,-0.390854,0.017763,0.000670,-0.390854,0.217693,-0.558589,-1.024865,-1.117504,1.237151,-14.411658
1790548005.2294,0.032892,-0.008241,-0.418416,0.028353,-0.005568,-0.418416,0.464163,-0.502739,-1.403677,-2.114032,1.794851,-9.055714
1790548005.2434,0.040684,-0.019452,-0.450134,0.036985,-0.015287,-0.450134,0.785911,-0.251411,-1.583370,-1.194160,2.166651,-7.930189
1790548005.2572,0.046035,-0.022054,-0.478362,0.043320,-0.020024,-0.478362,0.271115,-0.206488,-1.505665,0.032335,2.241011,-5.019350
1790548005.2709,0.054817,-0.032168,-0.486699,0.051368,-0.028525,-0.486699,0.594077,-0.494240,-1.330828,-0.159304,0.605091,-10.452916
1790548005.2850,0.063644,-0.041573,-0.510521,0.059961,-0.037658,-0.510521,0.645071,-0.442031,-1.239768,-1.079176,2.278191,-9.366203
1790548005.2992,0.047733,-0.046684,-0.533564,0.051401,-0.043977,-0.533564,0.476305,1.207988,-1.064931,0.262303,4.732071,-9.249770
1790548005.3132,0.029429,-0.036908,-0.564752,0.036021,-0.039029,-0.564752,-0.777904,1.656006,-0.921663,-6.521750,1.608951,-16.080539
1790548005.3273,0.033062,-0.023784,-0.583865,0.033950,-0.028357,-0.583865,-1.053514,0.167468,-0.982370,-7.633261,0.121751,-13.130889
1790548005.3416,0.023599,-0.009264,-0.598550,0.026705,-0.014992,-0.598550,-1.191926,1.074432,-0.943517,-2.688951,-0.361589,-5.291028
1790548005.3556,0.018320,0.002363,-0.577668,0.020835,-0.002843,-0.577668,-1.142146,0.823105,-0.704331,-1.845736,-1.105189,-2.535434
1790548005.3696,0.010513,0.016853,-0.596787,0.013610,0.010944,-0.596787,-0.969738,0.926307,-0.698260,-1.807408,1.497411,-4.010259
1790548005.3839,0.009543,0.018910,-0.602161,0.010763,0.016520,-0.602161,-0.216970,0.115260,-0.502784,0.952207,1.720491,-18.021098
1790548005.3981,0.018144,0.012762,-0.604132,0.015930,0.013889,-0.604132,0.377959,-0.591371,0.005942,-1.385800,1.534591,-17.322497
1790548005.4120,0.016186,0.016506,-0.590516,0.016109,0.015721,-0.590516,-0.238825,-0.043793,0.659150,0.683911,2.203831,-11.073895
1790548005.4261,0.014806,0.006050,-0.583065,0.015197,0.008951,-0.583065,0.492089,0.002345,0.617870,-0.312616,-1.402628,-4.941727
1790548005.4406,0.003952,-0.007995,-0.582091,0.007325,-0.002911,-0.582091,0.869687,0.701690,0.362900,-0.274288,-0.138509,-9.443825
1790548005.4546,-0.009581,-0.018539,-0.575510,-0.004509,-0.013851,-0.575510,0.759200,0.835246,0.399324,0.798895,1.088431,-6.843476
1790548005.4689,-0.026160,-0.025737,-0.564041,-0.019664,-0.022171,-0.564041,0.541869,1.004012,0.751425,0.990535,2.166651,-10.220049
1790548005.4829,-0.040040,-0.035637,-0.551130,-0.033927,-0.031598,-0.551130,0.754343,0.857101,0.911692,0.530599,2.389731,-10.414105
1790548005.4961,-0.047319,-0.038439,-0.536630,-0.043301,-0.036387,-0.536630,0.334250,0.450363,0.899551,0.032335,2.835891,-7.736133
1790548005.5097,-0.047938,-0.039270,-0.523711,-0.046547,-0.038405,-0.523711,0.143630,-0.043793,0.826702,-0.044320,2.873071,-9.288581
1790548005.5235,-0.041318,-0.041113,-0.508850,-0.042887,-0.040301,-0.508850,0.119347,-0.632652,0.799991,1.067191,1.683311,-11.617252
1790548005.5374,-0.033068,-0.037259,-0.493695,-0.036013,-0.038172,-0.493695,-0.298318,-0.767422,0.656722,1.987063,1.720491,-14.023546
1790548005.5514,-0.028452,-0.035031,-0.472669,-0.030721,-0.035973,-0.472669,-0.303174,-0.614440,0.634868,3.405198,-0.993649,-10.181238
1790548005.5652,-0.020564,-0.025415,-0.455745,-0.023611,-0.028583,-0.455745,-0.746336,-0.865767,0.557163,2.370342,0.419191,-6.649420
1790548005.5792,-0.016096,-0.013784,-0.441856,-0.018351,-0.018224,-0.441856,-0.927243,-0.707929,0.515882,3.520182,-0.101329,-6.377742
1790548005.5932,-0.004103,-0.001605,-0.428378,-0.008377,-0.006591,-0.428378,-0.919958,-1.095240,0.470958,1.680439,0.605091,-7.425644
1790548005.6072,0.008337,0.011709,-0.418160,0.003323,0.006219,-0.418160,-0.992807,-1.094026,0.279124,2.140375,1.014071,-10.375294
1790548005.6212,0.014198,0.029260,-0.415104,0.010936,0.022348,-0.415104,-1.302413,-0.636294,0.052079,3.673494,1.460231,-12.354665
1790548005.6352,0.009771,0.033360,-0.414904,0.010120,0.030057,-0.414904,-0.378451,0.318021,-0.372870,1.642111,1.497411,-16.041728
1790548005.6491,0.008088,0.032438,-0.428939,0.008697,0.031724,-0.428939,0.027072,0.386013,-0.959301,-1.615768,2.352551,-12.432287
1790548005.6630,0.029592,0.036441,-0.573017,0.023324,0.035026,-0.573017,0.175198,-0.984753,-1.020008,-2.957247,4.062831,-1.254664
1790548005.6769,0.023705,0.027234,-0.549246,0.023591,0.029571,-0.549246,0.521228,0.377514,-0.505212,1.565455,0.270471,-7.736133
1790548005.6913,0.038282,0.019160,-0.555829,0.033875,0.022283,-0.555829,0.507873,-0.699430,-0.876739,-3.838791,1.832031,-11.229140
1790548005.7055,0.048387,0.010250,-0.570427,0.044033,0.013860,-0.570427,0.556438,-0.488169,-1.118354,-1.232488,1.869211,-11.073895
1790548005.7190,0.053775,0.004677,-0.590091,0.050853,0.007432,-0.590091,0.481161,-0.117856,-1.391536,-1.117504,3.802571,-8.085434
1790548005.7326,0.053114,0.006038,-0.577742,0.052436,0.006456,-0.577742,0.110848,0.132258,-1.209414,0.722239,3.765391,-4.514804
1790548005.7465,0.053115,-0.002544,-0.581417,0.052911,0.000156,-0.581417,0.509087,0.084906,-1.089214,0.722239,1.051251,-7.891378
1790548005.7605,0.064122,-0.008008,-0.608976,0.060759,-0.005559,-0.608976,0.493303,-0.528236,-1.091642,-1.730752,3.542311,-7.231588
1790548005.7744,0.046348,-0.008588,-0.624849,0.050671,-0.007679,-0.624849,0.090208,1.398608,-0.868240,-0.120976,4.843611,-12.277042
1790548005.7891,0.036581,0.003935,-0.651611,0.040808,0.000451,-0.651611,-0.916316,1.084145,-0.763824,-8.974740,2.352551,-15.110259
1790548005.8032,0.031431,0.020898,-0.669983,0.034244,0.014764,-0.669983,-1.188284,0.781824,-0.613270,-5.295254,2.649991,-8.512357
1790548005.8172,0.020831,0.027934,-0.671837,0.024855,0.023983,-0.671837,-0.743908,1.050149,-0.416579,-2.803935,-1.365448,-7.270399
1790548005.8314,0.012035,0.042394,-0.653320,0.015881,0.036870,-0.653320,-0.751193,0.977301,-0.426293,-1.615768,2.129471,-2.186133
1790548005.8452,0.025131,0.034620,-0.671873,0.022356,0.035295,-0.671873,0.501802,-0.712785,-0.595058,-2.650623,1.534591,-10.957462
1790548005.8595,0.018268,0.027735,-0.625616,0.019495,0.030003,-0.625616,0.538226,0.151684,0.252413,4.478381,2.910251,-10.220049
1790548005.8735,0.002645,0.021136,-0.630626,0.007700,0.023796,-0.630626,0.420454,1.103571,0.643367,-2.650623,1.497411,-16.468651
1790548005.8878,-0.002075,0.016120,-0.620257,0.000857,0.018423,-0.620257,0.290541,0.166254,0.826702,-0.005993,0.828171,-13.247322
1790548005.9019,-0.010052,0.011405,-0.612869,-0.006779,0.013510,-0.612869,0.326965,0.451577,0.722286,-0.197632,1.125611,-7.037532
1790548005.9160,-0.021193,0.002515,-0.581681,-0.016869,0.005813,-0.581681,0.569794,0.421224,0.876482,2.293686,0.344831,-6.144874
1790548005.9303,-0.037878,-0.009804,-0.556078,-0.031575,-0.005118,-0.556078,0.875758,0.829175,1.058603,2.370342,1.571771,-7.580888
1790548005.9442,-0.050162,-0.017348,-0.546646,-0.044586,-0.013679,-0.546646,0.600147,0.738115,1.110811,-0.044320,3.170511,-10.569350
1790548005.9579,-0.054761,-0.018538,-0.543840,-0.051708,-0.017080,-0.543840,0.137559,0.269456,1.086528,-1.232488,3.244871,-10.841028
1790548005.9719,-0.054266,-0.020940,-0.537190,-0.053499,-0.019782,-0.537190,0.147272,-0.117856,1.143593,-1.155832,1.906391,-10.569350
1790548005.9858,-0.052475,-0.020019,-0.522337,-0.052782,-0.019948,-0.522337,-0.108912,-0.289050,1.170304,0.032335,1.608951,-10.685784
1790548006.0000,-0.045103,-0.015877,-0.507502,-0.047407,-0.017098,-0.507502,-0.354168,-0.676361,0.971185,0.262303,1.274331,-11.850119
1790548006.0140,-0.041143,-0.011559,-0.484436,-0.043022,-0.013221,-0.484436,-0.440372,-0.529450,0.865555,2.140375,-0.287229,-11.500819
1790548006.0280,-0.032737,-0.001512,-0.456364,-0.035822,-0.005025,-0.456364,-0.849538,-0.941044,0.711359,3.711822,-0.287229,-10.220049
1790548006.0418,-0.024161,0.008853,-0.437766,-0.027659,0.004690,-0.437766,-0.871393,-0.874266,0.458817,2.638638,-0.138509,-9.831937
1790548006.0558,-0.010388,0.021532,-0.425413,-0.015569,0.016479,-0.425413,-0.915102,-1.183872,0.305835,1.565455,1.571771,-8.395923
1790548006.0696,0.000897,0.034914,-0.415357,-0.004043,0.029383,-0.415357,-0.961239,-1.033319,0.209918,2.025391,1.794851,-8.434735
1790548006.0835,0.000263,0.039560,-0.407632,-0.001029,0.036507,-0.407632,-0.417304,-0.094787,-0.020769,2.906934,1.088431,-13.557812
1790548006.0975,-0.004373,0.034225,-0.415095,-0.003370,0.034910,-0.415095,0.286899,0.498929,-0.785679,-0.082648,1.199971,-14.993826
1790548006.1115,0.006611,0.030774,-0.438985,0.003617,0.032015,-0.438985,0.216478,-0.415320,-1.500808,-1.500784,2.017931,-10.181238
1790548006.1255,0.002135,0.025028,-0.485554,0.002580,0.027124,-0.485554,0.506658,0.226961,-1.196059,1.948735,1.199971,-2.729490
1790548006.1393,0.011092,0.020138,-0.519968,0.008538,0.022234,-0.519968,0.524871,-0.421391,-0.799034,-0.580912,1.906391,-3.622147
1790548006.1533,0.022302,0.005911,-0.531628,0.018173,0.010808,-0.531628,0.936465,-0.579230,-1.018794,-1.730752,1.385871,-14.605714
1790548006.1672,0.042226,-0.008930,-0.558119,0.035010,-0.003009,-0.558119,1.055451,-1.107381,-1.277406,-2.612295,2.426911,-10.103616
1790548006.1811,0.047566,-0.014683,-0.577737,0.043799,-0.011181,-0.577737,0.455664,-0.246555,-1.466812,0.722239,3.133331,-7.969000
1790548006.1952,0.049757,-0.017666,-0.594249,0.047970,-0.015721,-0.594249,0.231048,-0.046221,-1.350255,0.683911,2.426911,-6.882287
1790548006.2093,0.054252,-0.023658,-0.614647,0.052367,-0.021277,-0.614647,0.371889,-0.122712,-1.233697,-0.772552,1.794851,-8.706413
1790548006.2233,0.043860,-0.027837,-0.640058,0.046412,-0.025869,-0.640058,0.283256,0.957874,-1.106212,-2.114032,4.248731,-16.623896
1790548006.2372,0.036196,-0.020531,-0.664113,0.039261,-0.022132,-0.664113,-0.643134,0.872884,-0.808747,-6.176798,0.493551,-16.080539
1790548006.2512,0.029903,-0.005107,-0.680742,0.032711,-0.010215,-0.680742,-1.240492,0.767254,-0.564705,-6.176798,-0.212869,-14.489280
1790548006.2651,0.026906,0.012989,-0.695123,0.028647,0.006028,-0.695123,-1.415328,0.555993,-0.503998,-3.953775,0.233291,-8.240679
1790548006.2790,0.018768,0.030545,-0.707757,0.021732,0.023190,-0.707757,-1.397116,0.897167,-0.495499,-0.772552,0.010211,-1.992077
1790548006.2930,0.009812,0.041345,-0.720806,0.013388,0.035898,-0.720806,-0.926029,1.002798,-0.635125,-1.462456,-0.026969,-3.738581
1790548006.3069,0.001622,0.045087,-0.726007,0.005152,0.042331,-0.726007,-0.436730,0.685907,-0.502784,0.415615,-0.696209,-20.349770
1790548006.3209,0.008031,0.041002,-0.721191,0.007167,0.041400,-0.721191,0.278400,-0.530664,0.018083,1.220503,3.616671,-19.457112
1790548006.3348,-0.001920,0.038780,-0.710764,0.000806,0.039566,-0.710764,0.118133,0.530496,0.673720,0.990535,1.720491,-13.984735
1790548006.3487,-0.004836,0.034320,-0.689996,-0.003143,0.035894,-0.689996,0.273543,-0.111785,1.078029,1.067191,0.753811,-7.580888
1790548006.3627,0.008051,0.027509,-0.665117,0.004693,0.030024,-0.665117,0.407099,-0.621725,0.402966,-5.371910,-0.064149,-5.873196
1790548006.3769,-0.014666,0.018596,-0.630754,-0.008859,0.022025,-0.630754,0.572222,1.073218,0.604514,2.753622,0.121751,-2.768301
1790548006.3909,-0.027967,0.007385,-0.624229,-0.022234,0.011777,-0.624229,0.800481,0.838888,0.616655,0.223975,1.943571,-10.297672
1790548006.4045,-0.043397,-0.004892,-0.612614,-0.037048,0.000109,-0.612614,0.908539,0.910523,0.920191,1.642111,2.166651,-10.802217
1790548006.4190,-0.055152,-0.009571,-0.604277,-0.049721,-0.006667,-0.604277,0.364604,0.734472,0.898336,-0.734224,2.947431,-10.491728
1790548006.4343,-0.049299,-0.007813,-0.598261,-0.049426,-0.007469,-0.598261,-0.009352,-0.394680,0.776922,-1.730752,3.691031,-8.473546
1790548006.4490,-0.043117,-0.007646,-0.585462,-0.045010,-0.007593,-0.585462,-0.048204,-0.569516,0.721072,0.722239,1.534591,-11.035084
1790548006.4632,-0.034690,-0.005255,-0.574349,-0.037786,-0.005956,-0.574349,-0.282534,-0.755280,0.543807,1.297159,-0.026969,-11.345574
1790548006.4779,-0.031651,-0.000741,-0.560542,-0.033492,-0.002306,-0.560542,-0.396663,-0.482098,0.546235,3.021918,0.196111,-9.094525
1790548006.4921,-0.023187,0.004935,-0.550021,-0.026279,0.002763,-0.550021,-0.447657,-0.761351,0.470958,1.028863,0.902531,-8.434735
1790548006.5058,-0.012455,0.015973,-0.539378,-0.016602,0.012010,-0.539378,-0.868965,-1.064886,0.393253,2.906934,0.679451,-9.016902
1790548006.5197,-0.001980,0.026362,-0.530368,-0.006367,0.022056,-0.530368,-0.794902,-0.996894,0.313120,2.600310,1.051251,-9.870749
1790548006.5338,0.004214,0.036893,-0.526665,0.001039,0.032442,-0.526665,-0.785189,-0.647222,0.080005,3.098574,1.571771,-11.035084
1790548006.5477,0.006163,0.037457,-0.529228,0.004626,0.035952,-0.529228,-0.091914,-0.062005,-0.386226,-0.312616,1.832031,-12.781588
1790548006.5616,0.014235,0.032859,-0.546745,0.011352,0.033787,-0.546745,0.324537,-0.221058,-1.020008,-3.033903,2.426911,-9.987182
1790548006.5756,0.032118,0.022355,-0.569596,0.025888,0.025784,-0.569596,0.765271,-0.854840,-1.327186,-2.842263,2.315371,-7.542077
1790548006.5895,0.035304,0.013169,-0.582061,0.032479,0.016954,-0.582061,0.702135,-0.231985,-0.774751,1.182175,1.980751,-5.989630
1790548006.6036,0.040952,0.001330,-0.589517,0.038410,0.006017,-0.589517,0.732489,-0.290264,-0.840315,-0.044320,0.753811,-11.035084
1790548006.6174,0.059108,-0.010156,-0.604899,0.052899,-0.005304,-0.604899,0.733703,-1.015107,-1.233697,-2.497311,1.199971,-9.793126
1790548006.6310,0.069298,-0.017928,-0.628126,0.064378,-0.014141,-0.628126,0.510301,-0.529450,-1.624651,-0.350944,2.315371,-8.667602
1790548006.6446,0.074264,-0.024236,-0.650078,0.071298,-0.021208,-0.650078,0.411955,-0.195561,-1.472883,-0.120976,2.352551,-8.434735
1790548006.6586,0.076381,-0.031858,-0.677675,0.074856,-0.028663,-0.677675,0.595291,0.076407,-1.324758,-0.925864,2.501271,-5.523895
1790548006.6728,0.071370,-0.043594,-0.690942,0.072416,-0.039115,-0.690942,0.800481,0.418795,-0.852456,-0.082648,3.058971,-12.859210
1790548006.6870,0.050692,-0.040174,-0.703288,0.057209,-0.039856,-0.703288,-0.310459,1.526093,-0.790535,0.070663,2.835891,-18.913756
1790548006.7013,0.055530,-0.026732,-0.720909,0.056034,-0.030669,-0.720909,-1.093581,0.050910,-0.718901,-9.128052,-0.696209,-14.023546
1790548006.7156,0.048871,-0.008120,-0.736681,0.051020,-0.014885,-0.736681,-1.443254,0.827961,-0.711616,-4.375383,-0.064149,-8.201867
1790548006.7296,0.039753,0.010717,-0.749475,0.043133,0.003036,-0.749475,-1.534314,0.967587,-0.631483,-3.033903,-0.510309,-7.619700
1790548006.7436,0.032309,0.022315,-0.756084,0.035556,0.016532,-0.756084,-1.102080,0.971230,-0.571990,-2.114032,-0.882109,-3.078790
1790548006.7577,0.023465,0.036718,-0.749980,0.027092,0.030662,-0.749980,-0.807043,1.033151,-0.670335,-1.615768,2.017931,-2.457811
1790548006.7716,0.024701,0.033224,-0.751225,0.025418,0.032455,-0.751225,0.289327,-0.043793,-0.364371,0.032335,3.356411,-11.190329
1790548006.7856,0.030415,0.030016,-0.743253,0.028916,0.030748,-0.743253,0.273543,-0.575587,0.186849,1.910407,3.319231,-13.053266
1790548006.7996,0.022308,0.031131,-0.730266,0.024291,0.031016,-0.730266,-0.019065,0.257314,0.698003,2.638638,2.426911,-9.327392
1790548006.8135,0.019179,0.027531,-0.720755,0.020713,0.028577,-0.720755,0.254117,0.064266,0.790278,-0.350944,1.571771,-10.996273
1790548006.8274,0.001701,0.014863,-0.714545,0.007405,0.018977,-0.714545,0.935251,0.945733,0.483100,2.945262,1.571771,-7.309210
1790548006.8413,-0.014857,0.002965,-0.707281,-0.008178,0.007768,-0.707281,0.840548,0.950589,0.565662,2.561982,1.497411,-10.220049
1790548006.8552,-0.029248,-0.004908,-0.698339,-0.022927,-0.001105,-0.698339,0.618360,0.875313,0.763567,0.798895,2.389731,-9.249770
1790548006.8687,-0.045250,-0.014036,-0.687415,-0.038553,-0.010157,-0.687415,0.698493,1.008868,0.948116,0.837223,2.315371,-10.414105
1790548006.8824,-0.051340,-0.018986,-0.678551,-0.047504,-0.016337,-0.678551,0.424097,0.345947,0.934761,-0.350944,2.984611,-9.793126
1790548006.8966,-0.052533,-0.020166,-0.669432,-0.051024,-0.019017,-0.669432,0.130274,-0.001298,0.860698,-0.389272,2.649991,-9.327392
1790548006.9105,-0.049021,-0.021125,-0.658165,-0.049622,-0.020493,-0.658165,0.091422,-0.377682,0.763567,0.453943,2.575631,-10.996273
1790548006.9246,-0.042398,-0.017156,-0.645061,-0.044566,-0.018157,-0.645061,-0.282534,-0.633866,0.691932,1.335487,2.352551,-12.354665
1790548006.9385,-0.035345,-0.013192,-0.630872,-0.038111,-0.014681,-0.630872,-0.359025,-0.706714,0.634868,1.833751,0.679451,-11.151518
1790548006.9524,-0.026370,-0.005137,-0.616219,-0.029893,-0.008000,-0.616219,-0.599425,-0.928902,0.570518,2.676966,1.199971,-8.357112
1790548006.9668,-0.019362,0.006947,-0.605049,-0.022521,0.002463,-0.605049,-0.899318,-0.839056,0.432106,3.941790,0.567911,-7.891378
1790548006.9807,-0.006264,0.021165,-0.593080,-0.011141,0.015555,-0.593080,-1.075369,-1.170517,0.319191,2.178703,0.976891,-9.327392
1790548006.9949,0.000421,0.033807,-0.585577,-0.003048,0.028332,-0.585577,-0.933314,-0.701858,0.194134,2.906934,1.237151,-9.948371
1790548007.0090,-0.002722,0.033089,-0.582020,-0.002820,0.031662,-0.582020,-0.164762,0.155326,-0.324305,3.711822,-2.518028,-16.856763
1790548007.0230,0.005801,0.030322,-0.592689,0.003215,0.030724,-0.592689,0.172769,-0.450530,-0.920448,0.108991,2.426911,-12.548721
1790548007.0369,0.021171,0.021378,-0.614205,0.015784,0.024182,-0.614205,0.605004,-0.713999,-1.255552,-2.880591,1.608951,-8.939280
1790548007.0508,0.027358,0.017064,-0.644888,0.023886,0.019200,-0.644888,0.483590,-0.315761,-0.772323,-0.120976,2.947431,-5.252217
1790548007.0647,0.030407,0.006524,-0.653358,0.028451,0.010327,-0.653358,0.680281,-0.051078,-0.766252,-1.117504,1.311511,-11.500819
1790548007.0786,0.044760,-0.005232,-0.671559,0.039867,-0.000564,-0.671559,0.835691,-0.803846,-1.148707,-1.654096,2.798711,-11.617252
1790548007.0922,0.056499,-0.011901,-0.698273,0.051510,-0.008500,-0.698273,0.524871,-0.643579,-1.449814,-0.542584,3.393591,-8.978091
1790548007.1058,0.061090,-0.017746,-0.718360,0.058216,-0.014972,-0.718360,0.394957,-0.167635,-1.302903,-0.197632,1.980751,-7.503266
1790548007.1195,0.066921,-0.024356,-0.736863,0.064310,-0.021541,-0.736863,0.433810,-0.251411,-1.206986,-0.695896,1.869211,-8.395923
1790548007.1334,0.075579,-0.031499,-0.754913,0.072198,-0.028512,-0.754913,0.466592,-0.434747,-1.038220,-1.385800,1.720491,-8.279490
1790548007.1474,0.061397,-0.037920,-0.765403,0.064637,-0.035097,-0.765403,0.330608,1.085359,-1.004224,0.875551,2.017931,-21.281238
1790548007.1612,0.056250,-0.028957,-0.788751,0.058766,-0.030799,-0.788751,-0.735409,0.722331,-0.806319,-7.824901,1.757671,-16.041728
1790548007.1751,0.051155,-0.014767,-0.803513,0.053438,-0.019577,-0.803513,-1.177357,0.688335,-0.694618,-4.796990,-0.287229,-10.763406
1790548007.1892,0.038553,-0.002153,-0.809210,0.043018,-0.007380,-0.809210,-1.166429,1.096287,-0.669121,-1.040848,-1.142369,-5.329839
1790548007.2037,0.022613,0.010199,-0.811285,0.028735,0.004925,-0.811285,-1.106936,1.149709,-0.514925,0.262303,-0.733389,-3.777392
1790548007.2178,0.015198,0.017523,-0.820007,0.019259,0.013744,-0.820007,-0.759692,0.979729,-0.547707,-2.995575,-1.105189,-4.010259
1790548007.2317,0.023550,0.009854,-0.825905,0.022262,0.011021,-0.825905,0.462949,-0.541591,-0.507640,-0.005993,1.274331,-20.388581
1790548007.2456,0.023753,0.006642,-0.821719,0.023306,0.007956,-0.821719,0.269901,-0.170064,0.373827,1.373815,2.984611,-13.751868
1790548007.2597,0.016519,0.005347,-0.811082,0.018555,0.006129,-0.811082,0.048927,0.347161,0.818203,0.108991,0.567911,-9.948371
1790548007.2743,0.017084,-0.004444,-0.797672,0.017525,-0.001272,-0.797672,0.558867,-0.108142,0.745355,-1.117504,-0.584669,-7.930189
1790548007.2886,0.001341,-0.017465,-0.792251,0.006196,-0.012607,-0.792251,0.891542,1.005226,0.569304,0.032335,0.902531,-8.395923
1790548007.3025,-0.014316,-0.027496,-0.787114,-0.008162,-0.023029,-0.787114,0.750701,0.972444,0.685862,1.105519,1.906391,-10.646972
1790548007.3166,-0.029794,-0.036474,-0.777980,-0.023304,-0.032441,-0.777980,0.720347,0.973658,0.874054,0.185647,2.724351,-9.288581
1790548007.3303,-0.042041,-0.043965,-0.767755,-0.036420,-0.040508,-0.767755,0.646285,0.757541,0.978470,0.568927,3.319231,-10.414105
1790548007.3441,-0.046837,-0.048804,-0.755122,-0.043712,-0.046315,-0.755122,0.404671,0.230603,1.011252,0.147319,2.538451,-9.870749
1790548007.3582,-0.044129,-0.052562,-0.741811,-0.044004,-0.050688,-0.741811,0.285685,-0.343686,0.965114,0.875551,2.166651,-11.073895
1790548007.3720,-0.038862,-0.051361,-0.729677,-0.040405,-0.051159,-0.729677,-0.116196,-0.493025,0.814561,0.453943,1.199971,-11.500819
1790548007.3860,-0.034740,-0.049470,-0.717890,-0.036440,-0.049977,-0.717890,-0.259465,-0.461458,0.693146,1.527127,-0.659029,-10.646972
1790548007.3999,-0.027885,-0.046143,-0.707581,-0.030451,-0.047293,-0.707581,-0.323815,-0.700644,0.661579,1.910407,-0.026969,-9.055714
1790548007.4138,-0.023430,-0.036378,-0.700625,-0.025536,-0.039652,-0.700625,-0.786403,-0.627795,0.560805,3.290214,-0.064149,-8.085434
1790548007.4276,-0.008872,-0.021921,-0.694568,-0.013871,-0.027240,-0.694568,-1.082654,-1.273719,0.384754,2.868606,0.865351,-11.306763
1790548007.4410,0.004224,-0.004740,-0.692575,-0.001204,-0.011490,-0.692575,-1.330339,-1.302858,0.203847,4.095102,0.790991,-9.327392
1790548007.4546,0.011660,0.016646,-0.693775,0.007801,0.008205,-0.693775,-1.586523,-0.930117,0.066649,4.363398,0.902531,-6.571797
1790548007.4680,0.016712,0.027641,-0.690094,0.014038,0.021810,-0.690094,-0.878678,-0.527021,-0.015913,2.715294,1.423051,-13.713056
1790548007.4823,0.006512,0.018647,-0.698111,0.008770,0.019596,-0.698111,0.614717,0.894739,-0.522210,-1.769080,2.724351,-13.247322
1790548007.4965,0.015993,0.013203,-0.714481,0.013826,0.015121,-0.714481,0.405885,-0.299977,-1.225198,-4.375383,4.285911,-14.683336
1790548007.5106,0.017823,0.012011,-0.736897,0.016624,0.012944,-0.736897,0.042856,-0.042579,-1.333257,1.680439,1.385871,-7.153965
1790548007.5246,0.021348,0.009753,-0.747169,0.019931,0.010711,-0.747169,0.114491,-0.230771,-0.768681,0.952207,0.939711,-6.183686
1790548007.5386,0.026683,0.002734,-0.750273,0.024658,0.005127,-0.750273,0.413170,-0.151852,-0.842743,-1.615768,0.865351,-8.978091
1790548007.5524,0.040094,-0.008794,-0.765962,0.035463,-0.004618,-0.765962,0.849047,-0.721284,-1.024865,-1.845736,2.278191,-8.589979
1790548007.5660,0.049937,-0.012584,-0.792734,0.045595,-0.010194,-0.792734,0.358533,-0.557375,-1.113497,-0.504256,3.058971,-7.658511
1790548007.5797,0.049844,-0.013536,-0.820892,0.048569,-0.012533,-0.820892,0.173984,0.105547,-1.027293,0.338959,3.728211,-8.163056
1790548007.5937,0.054056,-0.016977,-0.843592,0.052410,-0.015644,-0.843592,0.262616,-0.089930,-1.085572,-1.232488,2.538451,-8.201867
1790548007.6075,0.056712,-0.020669,-0.863155,0.055421,-0.019161,-0.863155,0.254117,0.056981,-1.045505,-1.960720,2.203831,-8.473546
1790548007.6216,0.034797,-0.016415,-0.885517,0.040984,-0.017239,-0.885517,-0.198758,1.666933,-0.740755,-0.235960,5.735931,-12.548721
1790548007.6355,0.025942,-0.007614,-0.883211,0.030455,-0.010502,-0.883211,-0.736623,0.976086,-0.602343,-6.828373,0.828171,-14.722147
1790548007.6494,0.021610,0.006884,-0.882722,0.024263,0.001668,-0.882722,-1.132433,0.596060,-0.459074,-3.953775,0.605091,-10.025993
1790548007.6632,0.021535,0.017350,-0.873872,0.022354,0.012645,-0.873872,-0.888391,0.343518,-0.336446,-4.222071,-0.101329,-7.774944
1790548007.6770,0.015861,0.028619,-0.881313,0.017809,0.023827,-0.881313,-0.564215,0.609416,-0.236886,-0.734224,1.683311,-2.147322
1790548007.6912,0.019639,0.019580,-0.875239,0.019090,0.020854,-0.875239,0.651141,-0.332759,0.409037,-0.619240,1.571771,-8.395923
1790548007.7063,0.003411,0.007472,-0.846793,0.008115,0.011486,-0.846793,0.840548,0.657981,1.181232,5.244941,2.798711,-13.945924
1790548007.7204,-0.004229,0.000400,-0.830271,-0.000526,0.003726,-0.830271,0.450808,0.409082,1.163019,-1.730752,0.753811,-14.023546
1790548007.7345,-0.009832,-0.006632,-0.812168,-0.007040,-0.003525,-0.812168,0.471448,0.219676,1.283219,-0.810880,1.125611,-11.617252
1790548007.7483,-0.018693,-0.014661,-0.796919,-0.015197,-0.011320,-0.796919,0.556438,0.477074,1.146021,-0.235960,0.939711,-8.279490
1790548007.7624,-0.038145,-0.022050,-0.779813,-0.031260,-0.018831,-0.779813,0.597719,1.052577,1.311145,1.718767,1.794851,-6.067252
1790548007.7764,-0.046601,-0.028116,-0.768348,-0.041999,-0.025331,-0.768348,0.506658,0.467361,1.273506,-0.350944,2.426911,-7.580888
1790548007.7900,-0.058661,-0.033015,-0.753831,-0.053663,-0.030710,-0.753831,0.379174,0.679836,1.260151,0.952207,2.464091,-10.297672
1790548007.8036,-0.064774,-0.037347,-0.741920,-0.061440,-0.035356,-0.741920,0.299040,0.349589,1.126595,-0.427600,2.129471,-11.966553
1790548007.8176,-0.064238,-0.040730,-0.731828,-0.063399,-0.039118,-0.731828,0.292969,-0.167635,0.912906,0.683911,3.319231,-11.384385
1790548007.8316,-0.056785,-0.039243,-0.722150,-0.058769,-0.039206,-0.722150,-0.113768,-0.622939,0.725928,0.223975,2.241011,-12.665154
1790548007.8454,-0.049549,-0.033310,-0.703926,-0.052315,-0.035079,-0.703926,-0.495009,-0.744353,0.453960,3.443526,0.753811,-12.005364
1790548007.8593,-0.044198,-0.024937,-0.681593,-0.046633,-0.027979,-0.681593,-0.703841,-0.678789,0.269411,4.785005,-0.101329,-10.103616
1790548007.8733,-0.030121,-0.009481,-0.670855,-0.035075,-0.015031,-0.670855,-1.087510,-1.378135,0.290051,3.520182,1.274331,-5.679140
1790548007.8873,-0.016675,0.001320,-0.651373,-0.022195,-0.003585,-0.651373,-0.885963,-1.196014,0.240271,1.795423,-0.064149,-5.834385
1790548007.9019,-0.011248,0.011687,-0.644310,-0.014532,0.007106,-0.644310,-0.771833,-0.705500,0.220845,3.481854,0.419191,-6.377742
1790548007.9159,-0.004858,0.014201,-0.633500,-0.007760,0.012072,-0.633500,-0.247324,-0.541591,0.092146,0.990535,0.939711,-11.617252
1790548007.9302,-0.004663,0.008587,-0.634011,-0.005592,0.009633,-0.634011,0.341535,0.048482,-0.415365,0.147319,1.683311,-15.226693
1790548007.9445,0.006493,0.008929,-0.664342,0.002867,0.009140,-0.664342,0.075638,-0.545234,-1.054004,-1.309144,3.951291,-10.530539
1790548007.9589,0.006959,-0.001585,-0.677736,0.005732,0.001633,-0.677736,0.620788,0.229389,-1.420675,-0.504256,0.753811,-11.927742
1790548007.9730,0.016993,-0.011732,-0.690940,0.013615,-0.007722,-0.690940,0.635358,-0.489383,-1.375752,-0.389272,0.865351,-9.405014
1790548007.9872,0.034226,-0.016156,-0.705671,0.028043,-0.013626,-0.705671,0.318466,-1.092812,-0.905879,-0.350944,1.980751,-9.016902
1790548008.0017,0.046725,-0.029581,-0.716417,0.041120,-0.024794,-0.716417,0.840548,-0.705500,-1.055218,-0.810880,1.051251,-10.569350
1790548008.0155,0.062097,-0.040000,-0.746629,0.055804,-0.035438,-0.746629,0.778626,-0.875480,-1.276192,-1.884064,2.761531,-9.172147
1790548008.0293,0.070158,-0.043920,-0.781299,0.065851,-0.041376,-0.781299,0.362176,-0.496668,-1.265265,0.300631,3.393591,-8.085434
1790548008.0432,0.055821,-0.047903,-0.808643,0.058830,-0.045945,-0.808643,0.307539,1.120569,-1.109855,0.377287,3.728211,-11.500819
1790548008.0571,0.047958,-0.047896,-0.826261,0.051219,-0.047310,-0.826261,-0.107697,0.779395,-1.101356,-2.573967,1.162791,-13.674245
1790548008.0710,0.040430,-0.045279,-0.832513,0.043667,-0.045888,-0.832513,-0.394235,0.834032,-0.907093,-3.915447,-1.253909,-10.763406
1790548008.0848,0.037293,-0.040629,-0.833547,0.039205,-0.042207,-0.833547,-0.556930,0.488001,-0.695832,-3.838791,-1.885968,-10.957462
1790548008.0989,0.025752,-0.024322,-0.844132,0.029788,-0.029688,-0.844132,-1.281773,1.097501,-0.595058,-2.995575,0.010211,-8.240679
1790548008.1128,0.022354,-0.007523,-0.851804,0.024584,-0.014172,-0.851804,-1.360692,0.575420,-0.468788,-3.877119,-0.659029,-7.658511
1790548008.1268,0.012848,0.011517,-0.857735,0.016369,0.003810,-0.857735,-1.523387,0.949375,-0.422650,-3.110559,-0.584669,-8.900469
1790548008.1408,0.000021,0.035233,-0.866494,0.004925,0.025806,-0.866494,-1.733434,1.135139,-0.378941,-1.500784,1.088431,-6.494175
1790548008.1546,0.001551,0.046149,-0.867991,0.002563,0.040046,-0.867991,-0.917530,0.026627,-0.236886,-3.033903,0.270471,-18.603266
1790548008.1686,0.003953,0.041588,-0.861778,0.003536,0.041125,-0.861778,0.256545,-0.469957,0.466102,4.823333,1.125611,-16.235784
1790548008.1826,-0.006971,0.033307,-0.856628,-0.003819,0.035653,-0.856628,0.598933,0.281597,0.961472,7.467964,2.389731,-13.014455
1790548008.1967,-0.002744,0.033199,-0.857349,-0.003066,0.033935,-0.857349,0.274757,-0.109357,0.704074,-4.413711,4.360271,-4.670049
1790548008.2113,-0.010829,0.031764,-0.856033,-0.008500,0.032416,-0.856033,0.127846,0.460076,0.202633,0.913879,2.352551,-9.094525
1790548008.2253,-0.023793,0.022390,-0.851250,-0.019205,0.025398,-0.851250,0.713063,0.678622,0.341045,3.596838,2.761531,-10.064805
1790548008.2393,-0.039089,0.010146,-0.846506,-0.033124,0.014721,-0.846506,0.954677,0.815820,0.540165,3.136902,2.984611,-8.551168
1790548008.2529,-0.047262,0.005326,-0.847943,-0.043021,0.008144,-0.847943,0.535798,0.438222,0.628797,0.913879,3.430771,-6.455364
1790548008.2666,-0.049300,0.001675,-0.845853,-0.047416,0.003616,-0.845853,0.339107,0.095833,0.650651,-0.619240,3.096151,-9.482637
1790548008.2806,-0.050329,0.003442,-0.842241,-0.049455,0.003494,-0.842241,-0.023922,-0.043793,0.648223,0.300631,2.724351,-6.921098
1790548008.2947,-0.050418,0.000343,-0.834422,-0.050129,0.001288,-0.834422,0.239547,-0.123926,0.626369,0.607255,2.203831,-9.055714
1790548008.3088,-0.052549,-0.002088,-0.829832,-0.051823,-0.001075,-0.829832,0.262616,0.015700,0.429678,1.757095,4.248731,-11.888930
1790548008.3228,-0.033646,0.000209,-0.827267,-0.039099,-0.000176,-0.827267,-0.147764,-1.350210,0.317977,-1.462456,2.835891,-12.742777
1790548008.3368,-0.022387,0.006939,-0.814170,-0.027401,0.004805,-0.814170,-0.490152,-0.962898,0.254841,2.446998,2.501271,-14.334035
1790548008.3506,-0.014925,0.016824,-0.783935,-0.018667,0.013218,-0.783935,-0.762120,-0.862125,0.184421,4.593365,1.237151,-9.560259
1790548008.3646,-0.009550,0.028119,-0.762001,-0.012286,0.023649,-0.762001,-0.871393,-0.710357,0.014441,4.095102,0.828171,-7.270399
1790548008.3786,-0.000635,0.043015,-0.755564,-0.004130,0.037205,-0.755564,-1.079011,-0.860911,-0.223531,3.290214,1.460231,-7.386832
1790548008.3925,-0.001400,0.045259,-0.743693,-0.002219,0.042843,-0.743693,-0.348098,0.088549,-0.551349,1.757095,-0.659029,-14.450469
1790548008.4064,0.006695,0.039774,-0.780991,0.004021,0.040695,-0.780991,0.522442,-0.261124,-0.892523,-2.305671,3.876931,-8.589979
1790548008.4203,0.012107,0.039063,-0.835808,0.009681,0.039552,-0.835808,0.271115,0.031484,-1.141422,-2.612295,4.769251,-6.882287
1790548008.4343,0.010330,0.031507,-0.849016,0.010135,0.033921,-0.849016,0.477519,0.360516,-1.075859,-0.389272,1.646131,-10.297672
1790548008.4483,0.010935,0.024424,-0.860379,0.010695,0.027273,-0.860379,0.447165,0.144399,-1.182703,0.492271,1.608951,-9.754315
1790548008.4631,0.025441,0.014979,-0.881866,0.021017,0.018667,-0.881866,0.586792,-0.653292,-1.334471,-1.079176,0.976891,-5.640329
1790548008.4770,0.031440,0.007598,-0.900908,0.028313,0.010919,-0.900908,0.523656,-0.239270,-1.336899,0.185647,1.869211,-6.921098
1790548008.4906,0.035804,0.001795,-0.919967,0.033556,0.004532,-0.919967,0.420454,-0.140924,-1.307760,0.185647,1.980751,-7.076343
1790548008.5053,0.041759,-0.002880,-0.943866,0.039299,-0.000657,-0.943866,0.299040,-0.174920,-1.334471,-0.619240,2.278191,-8.667602
1790548008.5206,0.046418,-0.009883,-0.972666,0.044282,-0.007115,-0.972666,0.444737,-0.040150,-1.293190,-1.424128,2.575631,-9.094525
1790548008.5353,0.031927,-0.011302,-0.999857,0.035633,-0.010046,-0.999857,0.172769,1.177634,-0.938661,-1.002520,4.360271,-10.336483
1790548008.5499,0.022846,-0.005665,-1.026224,0.026682,-0.006979,-1.026224,-0.448871,1.000369,-0.986012,-7.249981,2.426911,-17.516553
1790548008.5646,0.019578,0.008530,-1.044289,0.021710,0.003877,-1.044289,-1.053514,0.602131,-0.818460,-5.831846,1.088431,-12.471098
1790548008.5787,0.019653,0.018048,-1.034292,0.020270,0.013797,-1.034292,-0.842253,0.439436,-0.470002,-4.835318,-0.733389,-5.989630
1790548008.5928,0.013607,0.035674,-1.037818,0.015606,0.029111,-1.037818,-1.045015,0.545066,-0.517353,-0.159304,2.017931,-3.001168
1790548008.6068,0.013650,0.045057,-1.053449,0.014237,0.040273,-1.053449,-0.508364,0.474646,-0.517353,-1.270816,0.939711,-1.371098
1790548008.6208,0.016025,0.039816,-1.033572,0.015489,0.039953,-1.033572,0.426525,-0.332759,0.009584,3.596838,5.289771,-17.555364
1790548008.6349,0.002645,0.028932,-1.007053,0.006498,0.032239,-1.007053,0.753129,0.638555,0.848557,3.635166,2.464091,-17.400119
1790548008.6492,-0.001903,0.023756,-0.984567,0.000617,0.026301,-0.984567,0.301468,0.047268,1.016108,0.990535,0.679451,-10.763406
1790548008.6632,0.005975,0.014078,-0.993137,0.004368,0.017745,-0.993137,0.568580,-0.451745,0.597229,-3.072231,-0.435949,-7.270399
1790548008.6771,-0.008318,0.002492,-0.947772,-0.004513,0.007068,-0.947772,0.680281,0.589989,0.604514,2.868606,-0.621849,-4.708860
1790548008.6910,-0.024483,-0.009036,-0.930585,-0.018492,-0.004205,-0.930585,0.819907,0.886240,0.731999,2.715294,1.571771,-9.987182
1790548008.7057,-0.039630,-0.018369,-0.919409,-0.033288,-0.014120,-0.919409,0.698493,0.847387,0.962686,0.952207,2.612811,-9.172147
1790548008.7199,-0.054690,-0.026415,-0.911915,-0.048270,-0.022727,-0.911915,0.623216,0.923878,0.982112,0.377287,2.687171,-9.405014
1790548008.7340,-0.057078,-0.032489,-0.911836,-0.054436,-0.029560,-0.911836,0.510301,0.120116,0.831559,-0.925864,4.583351,-13.984735
1790548008.7481,-0.052865,-0.034184,-0.892562,-0.053336,-0.032797,-0.892562,0.071996,-0.499096,0.833987,2.102047,1.497411,-13.169700
1790548008.7620,-0.039940,-0.032096,-0.879067,-0.043959,-0.032307,-0.879067,-0.246110,-1.023606,0.616655,0.223975,0.233291,-13.053266
1790548008.7760,-0.034045,-0.027873,-0.849880,-0.037019,-0.029203,-0.849880,-0.468298,-0.809917,0.671292,4.593365,-1.105189,-8.667602
1790548008.7899,-0.032932,-0.019676,-0.829147,-0.034158,-0.022534,-0.829147,-0.725696,-0.457815,0.713787,3.596838,-0.510309,-7.270399
1790548008.8039,-0.023544,-0.009289,-0.810319,-0.026728,-0.013262,-0.810319,-0.906603,-0.917975,0.426035,2.523654,-0.882109,-8.745224
1790548008.8178,-0.016240,0.007036,-0.809071,-0.019387,0.000946,-0.809071,-1.238064,-0.843913,0.207490,4.861661,0.456371,-9.715504
1790548008.8317,-0.006994,0.025525,-0.806725,-0.010712,0.018151,-0.806725,-1.421399,-0.977468,0.089718,4.478381,0.344831,-9.210958
1790548008.8456,0.004721,0.045375,-0.805183,0.000091,0.037208,-0.805183,-1.490605,-1.094026,-0.089975,3.865134,0.902531,-9.249770
1790548008.8595,-0.014732,0.048096,-0.802460,-0.010285,0.044830,-0.802460,-0.325029,1.365826,-0.341303,4.018446,0.716631,-17.749420
1790548008.8734,0.010153,0.034654,-0.815611,0.004022,0.037706,-0.815611,0.915824,-1.442485,-0.970228,-5.870174,2.241011,-17.555364
1790548008.8874,0.006091,0.034439,-0.855269,0.005470,0.035419,-0.855269,0.178840,0.361731,-0.751683,1.527127,5.103871,-10.142427
1790548008.9020,0.005146,0.025132,-0.860400,0.005244,0.028218,-0.860400,0.522442,0.344733,-0.655765,-2.382327,0.270471,-8.628791
1790548008.9160,0.024580,0.017895,-0.874855,0.018779,0.020992,-0.874855,0.493303,-1.100097,-0.907093,-2.957247,2.092291,-11.190329
1790548008.9303,0.032491,0.005947,-0.899967,0.028377,0.010461,-0.899967,0.866045,-0.314547,-1.120782,-0.925864,2.315371,-7.619700
1790548008.9441,0.045428,-0.001718,-0.939184,0.040313,0.001935,-0.939184,0.676638,-0.635080,-1.186346,-1.424128,2.687171,-5.679140
1790548008.9579,0.051398,-0.005756,-0.964256,0.048072,-0.003449,-0.964256,0.368246,-0.313332,-1.071002,0.223975,2.910251,-7.153965
1790548008.9719,0.057049,-0.011601,-0.984434,0.054356,-0.009156,-0.984434,0.445951,-0.274480,-0.958087,-0.350944,3.282051,-10.375294
1790548008.9860,0.064313,-0.018207,-1.011160,0.061326,-0.015492,-1.011160,0.475091,-0.231985,-0.959301,-3.340527,2.910251,-10.452916
1790548009.0001,0.048545,-0.017193,-1.033873,0.052380,-0.016682,-1.033873,-0.063988,1.295406,-0.790535,-1.845736,3.988471,-13.790679
1790548009.0142,0.038577,-0.006472,-1.048337,0.042718,-0.009535,-1.048337,-0.813114,0.902024,-0.575632,-2.957247,2.017931,-13.868301
1790548009.0282,0.031040,0.006225,-1.057931,0.034543,0.001497,-1.057931,-0.989165,0.906880,-0.440862,-5.525222,0.753811,-9.482637
1790548009.0422,0.028974,0.014732,-1.056413,0.030645,0.010762,-1.056413,-0.749979,0.480716,-0.250242,-5.525222,-0.435949,-9.482637
1790548009.0560,0.026170,0.020191,-1.046891,0.027513,0.017362,-1.046891,-0.593354,0.632484,-0.290309,-2.535639,-0.584669,-3.039979
1790548009.0699,0.017860,0.030355,-1.059565,0.020755,0.026457,-1.059565,-0.655276,0.868028,-0.259955,-2.037376,1.869211,-4.902916
1790548009.0839,0.010100,0.040589,-1.067131,0.013297,0.036349,-1.067131,-0.652847,0.674979,-0.278167,-1.040848,3.579491,-9.249770
1790548009.0978,0.014701,0.033142,-1.054481,0.014280,0.034104,-1.054481,0.526085,-0.496668,0.141926,2.983590,3.170511,-17.594175
1790548009.1118,0.012827,0.025089,-1.033175,0.013263,0.027793,-1.033175,0.569794,-0.165207,0.804848,2.485326,1.906391,-13.208511
1790548009.1257,0.008268,0.016421,-1.013562,0.009766,0.019833,-1.013562,0.567366,0.063052,0.836415,1.795423,0.753811,-12.742777
1790548009.1396,-0.002766,0.006477,-1.004146,0.000994,0.010484,-1.004146,0.672996,0.670123,0.625154,0.070663,0.456371,-4.864105
1790548009.1535,-0.013473,-0.004457,-0.995748,-0.009133,0.000025,-0.995748,0.852689,0.598488,0.574161,0.837223,1.720491,-6.261308
1790548009.1671,-0.028644,-0.014347,-0.984581,-0.022791,-0.010035,-0.984581,0.791982,0.886240,0.690718,1.948735,2.352551,-8.589979
1790548009.1807,-0.044802,-0.024964,-0.974937,-0.038198,-0.020485,-0.974937,0.851475,0.994299,0.898336,1.450471,3.021791,-10.336483
1790548009.1947,-0.058379,-0.034107,-0.965988,-0.052325,-0.030021,-0.965988,0.725204,0.801250,0.929904,1.143847,2.947431,-9.521448
1790548009.2090,-0.064676,-0.046981,-0.956282,-0.060970,-0.041893,-0.956282,0.968032,0.281597,0.945688,1.028863,2.761531,-8.822846
1790548009.2239,-0.051596,-0.052724,-0.942333,-0.054408,-0.049475,-0.942333,0.343963,-0.983539,0.776922,0.607255,1.683311,-15.459560
1790548009.2380,-0.044651,-0.046233,-0.918285,-0.047578,-0.047206,-0.918285,-0.533861,-0.754066,0.616655,3.941790,0.605091,-12.238231
1790548009.2519,-0.040791,-0.038567,-0.884529,-0.042827,-0.041158,-0.884529,-0.741480,-0.647222,0.716215,4.248414,-1.365448,-8.318301
1790548009.2658,-0.027764,-0.025465,-0.862868,-0.032283,-0.030173,-0.862868,-1.104508,-1.238509,0.433320,3.290214,-0.844929,-8.240679
1790548009.2798,-0.022448,-0.009027,-0.849499,-0.025398,-0.015371,-0.849499,-1.316983,-0.690931,0.333760,3.673494,-0.733389,-7.930189
1790548009.2937,-0.014976,0.012964,-0.841861,-0.018103,0.004464,-0.841861,-1.688510,-0.832985,0.208704,3.328542,-0.026969,-7.619700
1790548009.3077,-0.003890,0.038756,-0.836725,-0.008154,0.028468,-0.836725,-1.924054,-1.083099,0.140712,4.018446,0.530731,-9.560259
1790548009.3217,-0.001695,0.052018,-0.831027,-0.003633,0.044953,-0.831027,-1.040159,-0.304833,-0.097260,2.983590,0.976891,-11.578441
1790548009.3357,0.005505,0.044623,-0.832512,0.002763,0.044722,-0.832512,0.487232,-0.536735,-0.409295,2.217030,2.575631,-15.459560
1790548009.3497,-0.010060,0.052161,-0.909043,-0.006213,0.049930,-0.909043,-0.187831,1.154565,-0.540422,2.025391,6.962870,-8.046623
1790548009.3638,-0.011034,0.057323,-0.917509,-0.009587,0.055105,-0.917509,-0.390593,0.206320,-0.831816,0.913879,2.315371,-10.841028
1790548009.3778,-0.014171,0.060262,-0.934965,-0.012796,0.058715,-0.934965,-0.267964,0.751470,-1.006652,-3.685479,0.939711,-7.076343
1790548009.3914,-0.005105,0.047161,-0.924666,-0.007412,0.050627,-0.924666,0.700921,-0.213773,-1.027293,-2.765607,-1.253909,-6.688231
1790548009.4051,0.003631,0.040235,-0.950975,0.000318,0.043352,-0.950975,0.569794,-0.290264,-1.169348,-1.117504,1.869211,-5.485084
1790548009.4188,0.011967,0.034788,-0.976000,0.008472,0.037357,-0.976000,0.472662,-0.400751,-1.183917,0.185647,3.282051,-8.745224
1790548009.4326,0.016434,0.029251,-1.001183,0.014046,0.031683,-1.001183,0.455664,-0.079003,-1.138994,-0.542584,3.319231,-9.443825
1790548009.4466,0.022709,0.026215,-1.029631,0.020110,0.027856,-1.029631,0.262616,-0.103286,-1.183917,-2.420655,3.467951,-10.142427
1790548009.4606,0.028505,0.022521,-1.055403,0.025987,0.024121,-1.055403,0.334250,-0.116641,-0.876739,-3.417183,4.769251,-12.587532
1790548009.4754,0.025616,0.020575,-1.082400,0.025727,0.021639,-1.082400,0.267472,0.426080,-0.678834,-2.075704,4.955151,-9.560259
1790548009.4894,0.018898,0.015682,-1.096627,0.020947,0.017469,-1.096627,0.386458,0.631270,-0.394725,-1.960720,3.876931,-13.829490
1790548009.5033,0.012778,0.021790,-1.110771,0.015228,0.020493,-1.110771,-0.380879,0.701690,-0.217460,-4.796990,3.653851,-11.617252
1790548009.5174,0.009710,0.032505,-1.117647,0.011366,0.028901,-1.117647,-0.730552,0.416367,0.050865,-3.723807,2.538451,-9.599070
1790548009.5320,0.007239,0.039566,-1.113554,0.008477,0.036366,-1.113554,-0.560572,0.290096,0.235415,-2.880591,0.605091,-8.939280
1790548009.5460,0.006359,0.035267,-1.087057,0.006994,0.035597,-1.087057,0.136345,-0.099643,0.356829,1.297159,-1.030829,-12.820399
1790548009.5603,0.003582,0.027417,-1.064382,0.004606,0.029871,-1.064382,0.516372,-0.085074,0.748997,1.872079,1.237151,-10.103616
1790548009.5742,0.000737,0.017593,-1.043193,0.001898,0.021277,-1.043193,0.598933,0.013272,0.823060,0.300631,-0.064149,-11.694875
1790548009.5881,-0.009718,0.005612,-1.023562,-0.006233,0.010312,-1.023562,0.762842,0.557207,0.842486,0.607255,0.010211,-8.551168
1790548009.6021,-0.020722,-0.003874,-1.014420,-0.016375,0.000382,-1.014420,0.708206,0.637341,0.864340,0.147319,1.646131,-7.658511
1790548009.6160,-0.033554,-0.011388,-1.003342,-0.028401,-0.007857,-1.003342,0.578293,0.734472,1.028250,0.645583,2.129471,-9.094525
1790548009.6296,-0.047657,-0.017028,-0.990961,-0.041880,-0.014276,-0.990961,0.455664,0.797608,1.099884,1.297159,2.203831,-8.434735
1790548009.6432,-0.059091,-0.025293,-0.979483,-0.053928,-0.021988,-0.979483,0.617145,0.667694,1.154520,0.453943,2.092291,-9.327392
1790548009.6572,-0.066379,-0.031993,-0.970047,-0.062643,-0.028991,-0.970047,0.505444,0.390870,1.110811,0.108991,2.724351,-10.491728
1790548009.6712,-0.056518,-0.034713,-0.955483,-0.058356,-0.032997,-0.955483,0.155771,-0.842698,0.997896,0.300631,2.129471,-14.178791
1790548009.6851,-0.048173,-0.031619,-0.939472,-0.051228,-0.032032,-0.939472,-0.218184,-0.826915,0.802419,2.945262,2.798711,-13.790679
1790548009.6991,-0.041375,-0.028787,-0.896515,-0.044331,-0.029761,-0.896515,-0.473154,-0.773492,0.792706,2.945262,-2.555208,-9.715504
1790548009.7133,-0.033283,-0.022142,-0.866397,-0.036597,-0.024427,-0.866397,-0.658918,-0.948329,0.690718,3.711822,-1.142369,-7.231588
1790548009.7283,-0.026370,-0.004030,-0.853658,-0.029438,-0.010149,-0.853658,-1.291486,-0.869410,0.572946,4.516709,0.010211,-6.843476
1790548009.7422,-0.014617,0.017176,-0.835814,-0.019063,0.008978,-0.835814,-1.654514,-1.137735,0.377469,2.830278,-0.175689,-7.891378
1790548009.7562,0.000594,0.034575,-0.817791,-0.005303,0.026896,-0.817791,-1.398330,-1.355066,0.264554,2.638638,-0.435949,-8.589979
1790548009.7700,0.005756,0.044418,-0.805805,0.002438,0.039162,-0.805805,-0.832540,-0.518522,0.082433,3.136902,0.456371,-18.176343
1790548009.7841,0.014020,0.039848,-0.828434,0.010546,0.039642,-0.828434,0.306325,-0.106928,-0.828174,-7.211653,2.166651,-11.073895
1790548009.7982,0.032161,0.034980,-0.855206,0.025676,0.036379,-0.855206,0.447165,-1.044246,-1.021222,-1.960720,5.326951,-12.393476
1790548009.8121,0.019724,0.030379,-0.871812,0.021510,0.032179,-0.871812,0.254117,0.796393,-0.741970,3.635166,1.088431,-8.240679
1790548009.8260,0.025751,0.023264,-0.867182,0.024479,0.025939,-0.867182,0.325751,-0.122712,-0.823317,-2.688951,-0.361589,-9.133336
1790548009.8400,0.042074,0.012143,-0.874382,0.036795,0.016282,-0.874382,0.738560,-0.927688,-0.884024,-2.229015,1.608951,-10.375294
1790548009.8536,0.045430,-0.002044,-0.891334,0.042840,0.003454,-0.891334,0.970461,0.038769,-1.249481,-1.155832,1.199971,-6.688231
1790548009.8672,0.056855,-0.005867,-0.941605,0.052650,-0.003071,-0.941605,0.471448,-0.500310,-1.306546,-1.769080,3.356411,-5.135783
1790548009.8811,0.057176,-0.009749,-0.971717,0.055819,-0.007745,-0.971717,0.324537,0.049696,-1.240982,0.952207,2.426911,-6.106063
1790548009.8954,0.060514,-0.016557,-0.994528,0.059105,-0.013914,-0.994528,0.454450,-0.071718,-1.189988,-0.350944,2.501271,-9.405014
1790548009.9095,0.067438,-0.023545,-1.018460,0.064938,-0.020656,-1.018460,0.499374,-0.296334,-1.107426,-1.385800,2.910251,-9.870749
1790548009.9234,0.052048,-0.025771,-1.034756,0.055915,-0.024236,-1.034756,0.086565,1.249268,-0.915592,-0.925864,2.389731,-14.256413
1790548009.9374,0.046032,-0.014654,-1.045249,0.048997,-0.017528,-1.045249,-0.881106,0.751470,-0.687333,-6.483422,1.423051,-14.566903
1790548009.9514,0.044052,0.000485,-1.049025,0.045535,-0.004919,-1.049025,-1.194355,0.540209,-0.557420,-6.330110,0.344831,-9.637881
1790548009.9654,0.045271,0.012078,-1.046285,0.045350,0.006979,-1.046285,-0.996449,0.288882,-0.404438,-5.371910,-0.696209,-8.163056
1790548009.9797,0.036545,0.032305,-1.072043,0.039187,0.024707,-1.072043,-0.989165,0.672551,-0.483357,0.262303,4.843611,-2.613056
1790548009.9937,0.022765,0.044354,-1.086984,0.027691,0.038460,-1.086984,-0.773047,1.109642,-0.451790,-0.159304,1.348691,-3.078790
1790548010.0077,0.029982,0.041914,-1.098757,0.029295,0.040877,-1.098757,0.120561,-0.214987,-0.622984,-3.915447,1.832031,-11.190329
1790548010.0217,0.034483,0.036043,-1.084818,0.032927,0.037494,-1.084818,0.430168,-0.523379,0.447890,1.795423,3.207691,-17.167252
1790548010.0356,0.019535,0.031776,-1.063293,0.023553,0.033491,-1.063293,0.231048,0.807321,0.866769,1.718767,0.419191,-12.432287
1790548010.0497,0.021301,0.028217,-1.049807,0.021976,0.029800,-1.049807,0.260188,-0.284193,0.854627,-0.619240,1.348691,-8.551168
1790548010.0637,0.006685,0.018163,-1.024097,0.011272,0.021654,-1.024097,0.751915,0.576634,0.742926,3.098574,1.162791,-4.902916
1790548010.0775,-0.006362,0.008433,-1.007822,-0.001072,0.012399,-1.007822,0.721562,0.622771,0.942046,1.412143,1.051251,-5.523895
1790548010.0911,-0.020945,-0.002791,-0.994060,-0.014983,0.001766,-0.994060,0.861188,0.792751,1.110811,1.642111,2.129471,-9.715504
1790548010.1047,-0.038130,-0.011343,-0.987749,-0.031186,-0.007410,-0.987749,0.704564,1.090216,1.227369,-0.044320,2.612811,-8.628791
1790548010.1187,-0.042049,-0.016053,-0.982131,-0.038790,-0.013461,-0.982131,0.390101,0.203892,1.141165,-1.500784,2.910251,-10.414105
1790548010.1327,-0.031896,-0.016088,-0.968600,-0.033964,-0.015300,-0.968600,0.068353,-0.960470,1.192159,1.105519,4.100011,-13.363756
1790548010.1467,-0.026333,-0.009340,-0.942467,-0.028623,-0.011128,-0.942467,-0.592140,-0.641151,0.897122,1.948735,0.121751,-12.587532
1790548010.1606,-0.026154,-0.003724,-0.912005,-0.026895,-0.005945,-0.912005,-0.539932,-0.369183,0.859484,4.133430,-0.361589,-11.384385
1790548010.1745,-0.013587,0.008729,-0.889606,-0.017579,0.004326,-0.889606,-0.968524,-1.325927,0.704074,3.596838,0.419191,-7.037532
1790548010.1884,-0.007004,0.022569,-0.872252,-0.010176,0.017096,-0.872252,-1.051086,-0.904620,0.719858,3.251886,0.567911,-6.455364
1790548010.2023,0.001499,0.035580,-0.851397,-0.002003,0.030035,-0.851397,-1.046229,-0.992038,0.581445,2.868606,0.084571,-6.998721
1790548010.2164,0.001677,0.040840,-0.835458,0.000573,0.037599,-0.835458,-0.464655,-0.241698,0.409037,3.903462,1.125611,-18.137532
1790548010.2308,0.004019,0.034021,-0.836977,0.002985,0.035094,-0.836977,0.432596,0.002345,-0.289095,-2.612295,1.943571,-12.626343
1790548010.2450,0.020203,0.029690,-0.844780,0.015038,0.031311,-0.844780,0.256545,-0.890050,-0.896166,-2.343999,1.943571,-12.121798
1790548010.2589,0.015813,0.027134,-0.895317,0.015580,0.028387,-0.895317,0.403456,0.143185,-0.459074,2.293686,2.538451,-4.320748
1790548010.2729,0.025720,0.020812,-0.890765,0.022678,0.023084,-0.890765,0.391315,-0.595013,-0.207747,-1.424128,0.790991,-7.386832
1790548010.2868,0.043258,0.006905,-0.887375,0.037084,0.011759,-0.887375,0.883043,-1.060030,-0.626626,-3.263871,0.530731,-13.751868
1790548010.3006,0.055824,-0.003442,-0.921878,0.050202,0.001118,-0.921878,0.883043,-0.775921,-0.964158,-0.197632,3.207691,-6.804665
1790548010.3142,0.060392,-0.002096,-0.970395,0.057335,-0.001132,-0.970395,0.149701,-0.241698,-1.103784,0.607255,4.137191,-5.485084
1790548010.3278,0.063610,-0.004936,-0.994290,0.061727,-0.003795,-0.994290,0.243190,-0.081431,-0.981156,-0.465928,2.389731,-7.115154
1790548010.3416,0.067102,-0.014401,-1.010512,0.065490,-0.011219,-1.010512,0.640214,-0.086288,-0.915592,-0.925864,1.571771,-7.813756
1790548010.3557,0.075170,-0.022711,-1.027936,0.072266,-0.019263,-1.027936,0.581935,-0.431104,-0.808747,-1.347472,2.538451,-10.530539
1790548010.3696,0.065306,-0.026591,-1.044351,0.067394,-0.024393,-1.044351,0.319681,0.759969,-0.571990,-0.159304,4.843611,-15.692427
1790548010.3837,0.059289,-0.016244,-1.052643,0.061720,-0.018689,-1.052643,-0.814328,0.820676,-0.612056,-7.671589,1.385871,-11.500819
1790548010.3976,0.048210,-0.005926,-1.048521,0.052263,-0.009755,-1.048521,-0.940599,0.994299,-0.525852,-2.497311,-0.696209,-9.948371
1790548010.4116,0.047841,0.002077,-1.032055,0.049168,-0.001473,-1.032055,-0.805829,0.443078,-0.455432,-6.483422,-1.737248,-8.163056
1790548010.4256,0.040707,0.016864,-1.042818,0.043245,0.011363,-1.042818,-1.104508,0.677408,-0.536780,-1.539112,1.757671,-9.676693
1790548010.4395,0.036444,0.025163,-1.039921,0.038484,0.021023,-1.039921,-0.802187,0.603345,-0.404438,-3.072231,-0.807749,-7.076343
1790548010.4533,0.023909,0.041520,-1.047734,0.028282,0.035371,-1.047734,-1.282987,1.166707,-0.392297,-2.535639,0.790991,-8.201867
1790548010.4673,0.010581,0.059417,-1.054147,0.015892,0.052203,-1.054147,-1.320625,1.073218,-0.255099,-0.849208,1.720491,-8.900469
1790548010.4818,0.030009,0.052787,-1.041719,0.025774,0.052612,-1.041719,0.233476,-1.256721,-0.321876,-2.650623,-3.373168,-21.281238
1790548010.4959,0.021808,0.045544,-1.024533,0.022998,0.047664,-1.024533,0.473877,0.157755,0.791492,5.359925,1.125611,-12.742777
1790548010.5098,0.014009,0.042679,-1.014466,0.016706,0.044175,-1.014466,0.235905,0.417581,0.864340,-0.734224,1.757671,-7.891378
1790548010.5239,0.008920,0.035689,-1.003797,0.011256,0.038235,-1.003797,0.449594,0.343518,0.654294,-1.232488,0.567911,-5.640329
1790548010.5378,-0.004423,0.027380,-0.996498,0.000281,0.030637,-0.996498,0.589220,0.649482,0.627583,2.600310,1.311511,-7.852567
1790548010.5514,-0.019227,0.017924,-0.993612,-0.013374,0.021738,-0.993612,0.788339,0.759969,0.836415,2.600310,2.798711,-8.124245
1790548010.5648,-0.030672,0.008020,-0.990301,-0.025483,0.012136,-0.990301,0.834477,0.634913,0.875268,1.182175,3.244871,-9.327392
1790548010.5788,-0.041977,0.003126,-0.989778,-0.037028,0.005829,-0.989778,0.477519,0.627628,0.855841,0.952207,4.062831,-9.676693
1790548010.5935,-0.051164,-0.002649,-0.984470,-0.046923,-0.000105,-0.984470,0.473877,0.407868,0.843700,1.833751,3.505131,-9.909560
1790548010.6084,-0.037253,-0.008649,-0.970723,-0.040154,-0.006086,-0.970723,0.460521,-1.253078,0.764781,5.436581,4.843611,-14.955014
1790548010.6229,-0.029916,-0.001548,-0.954975,-0.032988,-0.002909,-0.954975,-0.512007,-0.768636,0.518310,3.558510,1.869211,-11.656063
1790548010.6375,-0.018051,0.005911,-0.924410,-0.022532,0.003265,-0.924410,-0.667417,-1.094026,0.517096,3.175230,-0.696209,-10.064805
1790548010.6521,-0.008635,0.017970,-0.909168,-0.012804,0.013559,-0.909168,-0.899318,-0.975040,0.271839,4.286742,0.530731,-8.628791
1790548010.6663,-0.002531,0.030445,-0.892921,-0.005613,0.025379,-0.892921,-1.008591,-0.801418,0.249985,4.899989,-0.287229,-8.473546
1790548010.6801,0.006491,0.041548,-0.878879,0.002860,0.036698,-0.878879,-0.924815,-0.903405,0.122500,3.136902,0.233291,-9.715504
1790548010.6939,-0.010139,0.043958,-0.867592,-0.006240,0.041780,-0.867592,-0.345669,1.106000,-0.026840,3.750150,-0.435949,-17.477742
1790548010.7079,0.008908,0.041648,-0.871229,0.004364,0.041687,-0.871229,0.103563,-1.012678,-0.681262,-5.908502,1.757671,-13.984735
1790548010.7222,0.013239,0.041457,-0.905914,0.010576,0.041526,-0.905914,0.149701,-0.001298,-0.904665,-2.343999,4.471811,-9.327392
1790548010.7369,0.008660,0.031659,-0.910450,0.009235,0.034619,-0.910450,0.567366,0.469789,-0.772323,-0.044320,0.828171,-8.745224
1790548010.7511,0.026659,0.021241,-0.910234,0.021431,0.025255,-0.910234,0.602576,-0.995680,-0.928947,-2.229015,0.344831,-9.870749
1790548010.7653,0.038234,0.008101,-0.925937,0.033193,0.013247,-0.925937,0.892756,-0.571945,-1.120782,-1.002520,1.497411,-7.192776
1790548010.7792,0.046538,-0.003175,-0.950719,0.042535,0.001752,-0.950719,0.818693,-0.412892,-1.215485,-0.235960,2.203831,-7.580888
1790548010.7931,0.059883,-0.011498,-0.975683,0.054679,-0.007523,-0.975683,0.598933,-0.666648,-1.240982,-1.884064,2.092291,-7.348021
1790548010.8071,0.067594,-0.021162,-0.996743,0.063720,-0.017070,-0.996743,0.668139,-0.409250,-1.107426,-0.389272,2.166651,-8.667602
1790548010.8214,0.075422,-0.028933,-1.018804,0.071911,-0.025374,-1.018804,0.535798,-0.366755,-1.024865,-1.615768,2.649991,-10.025993
1790548010.8355,0.054621,-0.028824,-1.045769,0.059808,-0.027789,-1.045769,0.016145,1.584372,-0.877953,-0.389272,4.583351,-13.984735
1790548010.8495,0.046479,-0.021601,-1.053674,0.050478,-0.023458,-1.053674,-0.626136,0.738115,-0.746826,-1.730752,1.051251,-13.596623
1790548010.8634,0.038686,-0.010244,-1.051445,0.042223,-0.014208,-1.051445,-1.026803,0.791537,-0.612056,-2.535639,-0.919289,-9.366203
1790548010.8773,0.039309,-0.001108,-1.048997,0.040184,-0.005038,-1.048997,-0.875035,0.301023,-0.301236,-5.333582,-1.774428,-8.512357
1790548010.8916,0.034728,0.015373,-1.058839,0.036365,0.009249,-1.058839,-1.191926,0.630056,-0.281810,-3.187215,0.865351,-5.950818
1790548010.9057,0.034559,0.024985,-1.064087,0.035101,0.020264,-1.064087,-0.870179,0.404226,-0.387440,-4.298727,-0.844929,-6.377742
1790548010.9196,0.026539,0.040732,-1.071697,0.029108,0.034592,-1.071697,-1.178571,0.871670,-0.315806,-3.187215,1.199971,-7.309210
1790548010.9337,0.018274,0.051823,-1.071618,0.021524,0.046654,-1.071618,-0.935742,0.783038,-0.081476,-3.647151,-0.138509,-11.772497
1790548010.9478,0.027277,0.047026,-1.058829,0.025551,0.046914,-1.058829,0.273543,-0.767422,0.564447,-1.270816,1.125611,-18.797322
1790548010.9618,0.007816,0.039619,-1.056973,0.013137,0.041808,-1.056973,0.543083,1.047721,0.832773,4.171758,2.724351,-13.945924
1790548010.9759,0.009440,0.032281,-1.044973,0.010549,0.035139,-1.044973,0.517586,-0.263553,0.734427,-0.465928,1.794851,-10.646972
1790548010.9904,-0.005445,0.023121,-1.049817,-0.000647,0.026727,-1.049817,0.666925,0.659195,0.623940,3.136902,1.460231,-6.455364
1790548011.0041,-0.018914,0.011955,-1.048099,-0.013434,0.016386,-1.048099,0.910968,0.779395,0.763567,0.722239,2.055111,-5.989630
1790548011.0179,-0.030700,0.000208,-1.041818,-0.025520,0.005062,-1.041818,0.915824,0.609416,0.954187,1.642111,3.021791,-10.491728
1790548011.0320,-0.041399,-0.007060,-1.035185,-0.036635,-0.003424,-1.035185,0.580721,0.535353,0.965114,1.450471,3.021791,-10.064805
1790548011.0460,-0.051805,-0.011860,-1.029742,-0.047254,-0.009329,-1.029742,0.419240,0.559636,0.935975,1.105519,3.467951,-10.569350
1790548011.0602,-0.058812,-0.018807,-1.028774,-0.055345,-0.015963,-1.028774,0.632929,0.259743,0.824274,2.025391,3.765391,-8.085434
1790548011.0742,-0.051286,-0.017407,-1.030129,-0.052503,-0.016974,-1.030129,0.105992,-0.761351,0.557163,3.290214,6.479530,-10.763406
1790548011.0882,-0.041757,-0.010167,-1.026022,-0.044981,-0.012209,-1.026022,-0.431873,-0.864553,0.443033,2.446998,3.951291,-11.694875
1790548011.1022,-0.031092,0.003690,-0.999726,-0.035259,-0.001080,-0.999726,-1.136076,-1.036961,0.412680,4.056774,-0.398769,-12.005364
1790548011.1164,-0.021083,0.017633,-0.974437,-0.025336,0.012019,-0.974437,-1.140932,-1.051531,0.164995,5.321597,-0.584669,-9.405014
1790548011.1306,-0.017354,0.032984,-0.959476,-0.019749,0.026694,-0.959476,-1.196783,-0.707929,0.245128,4.631693,-0.175689,-5.485084
1790548011.1445,-0.010838,0.044377,-0.943430,-0.013511,0.039072,-0.943430,-0.941813,-0.661791,0.224488,1.718767,0.270471,-8.085434
1790548011.1585,-0.014320,0.038845,-0.933056,-0.014078,0.038913,-0.933056,0.252903,0.073979,0.018083,4.899989,-0.175689,-16.546273
1790548011.1727,-0.006067,0.036350,-0.949026,-0.008470,0.037119,-0.949026,0.272329,-0.423819,-0.434792,-1.615768,3.839751,-10.452916
1790548011.1868,-0.002332,0.029966,-0.950178,-0.004174,0.032112,-0.950178,0.374317,-0.199203,-0.598701,0.952207,1.311511,-12.859210
1790548011.2008,0.001481,0.025004,-0.960681,-0.000215,0.027136,-0.960681,0.325751,-0.161565,-0.840315,0.568927,1.497411,-8.395923
1790548011.2147,0.015618,0.015412,-0.963074,0.010868,0.018929,-0.963074,0.592863,-0.826915,-0.930162,-0.542584,0.605091,-7.348021
1790548011.2292,0.023362,0.000537,-0.975295,0.019614,0.006055,-0.975295,0.947392,-0.325474,-1.181489,-0.312616,0.865351,-7.076343
1790548011.2434,0.035119,-0.015504,-0.999766,0.030468,-0.009036,-0.999766,1.135584,-0.631438,-1.321115,-0.312616,2.055111,-8.124245
1790548011.2574,0.046340,-0.026045,-1.027884,0.041579,-0.020942,-1.027884,0.771341,-0.743139,-1.299261,1.335487,2.464091,-9.210958
1790548011.2717,0.056634,-0.034526,-1.052631,0.052118,-0.030451,-1.052631,0.575865,-0.649650,-1.244624,0.913879,2.166651,-9.249770
1790548011.2857,0.064791,-0.040630,-1.087396,0.060989,-0.037576,-1.087396,0.526085,-0.440817,-1.115925,-0.925864,4.694891,-11.966553
1790548011.2997,0.047714,-0.044667,-1.090062,0.051696,-0.042540,-1.090062,0.063497,1.326974,-1.096499,0.185647,-0.770569,-15.226693
1790548011.3140,0.042834,-0.030168,-1.103006,0.045493,-0.033880,-1.103006,-1.068084,0.621557,-0.707974,-6.023486,2.017931,-15.498371
1790548011.3281,0.037454,-0.019754,-1.084875,0.039866,-0.023992,-1.084875,-1.075369,0.660410,-0.576846,-3.263871,-2.815468,-8.318301
1790548011.3420,0.035448,-0.008990,-1.073909,0.036773,-0.013491,-1.073909,-1.020732,0.377514,-0.320662,-3.340527,-1.960328,-9.210958
1790548011.3559,0.029182,0.009509,-1.075312,0.031459,0.002609,-1.075312,-1.454181,0.719902,-0.383798,-1.845736,0.084571,-4.825294
1790548011.3701,0.014558,0.026006,-1.087384,0.019628,0.018987,-1.087384,-1.188284,1.127854,-0.559848,0.108991,1.460231,-6.921098
1790548011.3844,0.002594,0.036969,-1.087251,0.007705,0.031575,-1.087251,-0.972167,1.122998,-0.423864,-2.458983,-0.844929,-7.542077
1790548011.3984,0.006503,0.039167,-1.083761,0.006863,0.036889,-1.083761,-0.266750,-0.140924,-0.300022,-2.842263,0.902531,-18.719700
1790548011.4125,0.001315,0.037232,-1.081392,0.002980,0.037129,-1.081392,0.081709,0.203892,0.308263,2.025391,1.385871,-13.247322
1790548011.4267,-0.004333,0.039108,-1.081015,-0.002139,0.038514,-1.081015,-0.054275,0.183252,0.700431,1.488799,4.434631,-13.907112
1790548011.4406,-0.003328,0.033168,-1.070851,-0.002971,0.034772,-1.070851,0.408313,-0.212559,0.586302,0.070663,1.348691,-8.240679
1790548011.4546,-0.017858,0.026243,-1.099494,-0.013392,0.028801,-1.099494,0.653570,0.568135,0.844914,3.443526,2.315371,-5.446273
1790548011.4683,-0.030336,0.018002,-1.099815,-0.025253,0.021242,-1.099815,0.689994,0.660410,0.897122,1.182175,2.426911,-7.309210
1790548011.4822,-0.038919,0.008050,-1.092039,-0.034819,0.012008,-1.092039,0.738560,0.386013,0.968757,1.220503,2.389731,-10.181238
1790548011.4963,-0.047592,0.002820,-1.086126,-0.043760,0.005576,-1.086126,0.420454,0.344733,1.104741,1.757095,3.133331,-10.685784
1790548011.5103,-0.056933,-0.000846,-1.079202,-0.052981,0.001080,-1.079202,0.299040,0.466147,1.078029,0.683911,2.575631,-9.172147
1790548011.5244,-0.063009,-0.007651,-1.074678,-0.060001,-0.005032,-1.074678,0.529727,0.145613,1.019751,2.370342,2.761531,-9.288581
1790548011.5382,-0.064178,-0.017648,-1.079557,-0.062925,-0.013863,-1.079557,0.850261,-0.097215,0.740498,1.987063,5.178231,-12.471098
1790548011.5521,-0.043139,-0.014891,-1.061625,-0.049075,-0.014583,-1.061625,-0.295889,-1.679242,0.536522,1.488799,0.679451,-12.160609
1790548011.5660,-0.038592,-0.004883,-1.040161,-0.041737,-0.007793,-1.040161,-0.858037,-0.585300,0.557163,3.826806,-0.212869,-12.975644
1790548011.5799,-0.031070,0.004209,-1.017128,-0.034270,0.000609,-1.017128,-0.831326,-0.920403,0.394467,5.551565,-1.030829,-9.366203
1790548011.5938,-0.026246,0.017900,-1.013694,-0.028653,0.012712,-1.013694,-1.047443,-0.682432,0.181993,4.478381,0.567911,-8.046623
1790548011.6078,-0.027054,0.029446,-1.006037,-0.027533,0.024426,-1.006037,-0.902961,-0.085074,0.132213,2.715294,1.199971,-13.169700
1790548011.6217,-0.027858,0.026686,-1.001659,-0.027761,0.026008,-1.001659,0.159414,0.077621,-0.023197,-0.159304,2.278191,-15.420749
1790548011.6355,-0.025941,0.024072,-1.015013,-0.026487,0.024653,-1.015013,0.245618,0.077621,-0.678834,-1.577440,3.244871,-11.733686
1790548011.6495,-0.022875,0.017494,-1.014639,-0.023959,0.019642,-1.014639,0.359747,-0.126355,-0.808747,1.220503,0.307651,-11.035084
1790548011.6635,-0.017481,0.014383,-1.019177,-0.019424,0.015961,-1.019177,0.154557,-0.246555,-0.880382,0.338959,0.790991,-8.589979
1790548011.6778,-0.003579,0.005016,-1.021062,-0.008333,0.008299,-1.021062,0.562509,-0.672718,-1.091642,-1.424128,0.456371,-7.231588
1790548011.6916,0.003209,-0.010812,-1.028094,-0.000254,-0.005079,-1.028094,1.039667,-0.250197,-1.281049,-0.465928,0.307651,-7.270399
1790548011.7053,0.015459,-0.024069,-1.047233,0.010745,-0.018372,-1.047233,0.959533,-0.655721,-1.350255,-0.657568,1.311511,-6.804665
1790548011.7189,0.025460,-0.031149,-1.075059,0.021045,-0.027316,-1.075059,0.545511,-0.684860,-1.238554,1.373815,2.092291,-9.055714
1790548011.7333,0.036275,-0.039663,-1.094524,0.031706,-0.035959,-1.094524,0.561295,-0.653292,-1.182703,0.338959,1.608951,-9.987182
1790548011.7482,0.046341,-0.050045,-1.110206,0.041950,-0.045819,-1.110206,0.671782,-0.512452,-0.948374,-1.539112,1.720491,-10.220049
1790548011.7622,0.026329,-0.045605,-1.131931,0.031015,-0.045669,-1.131931,-0.329885,1.528521,-0.939875,-0.005993,3.170511,-16.158161
1790548011.7761,0.023650,-0.032782,-1.136934,0.025859,-0.036648,-1.136934,-1.009805,0.586347,-0.688547,-7.671589,0.530731,-12.548721
1790548011.7902,0.021144,-0.023543,-1.131859,0.022559,-0.027475,-1.131859,-0.821613,0.509856,-0.479715,-5.141942,-0.882109,-10.103616
1790548011.8040,0.014868,-0.014610,-1.118959,0.017175,-0.018469,-1.118959,-0.838611,0.588775,-0.096046,-1.385800,-0.844929,-6.416553
1790548011.8180,0.011495,-0.000756,-1.108055,0.013199,-0.006070,-1.108055,-1.199211,0.495286,0.120071,-3.378855,-1.328269,-6.494175
1790548011.8319,0.007467,0.013701,-1.100653,0.009186,0.007770,-1.100653,-1.096009,0.444292,0.191706,-1.807408,0.456371,-5.329839
1790548011.8459,-0.002164,0.026499,-1.095112,0.001241,0.020880,-1.095112,-1.059585,0.915379,0.205061,-3.723807,-0.473129,-8.085434
1790548011.8599,-0.002622,0.031136,-1.083404,-0.001463,0.028060,-1.083404,-0.526576,0.046054,0.366542,-3.225543,-2.703928,-21.281238
1790548011.8736,0.001679,0.026984,-1.067489,0.000737,0.027307,-1.067489,0.203123,-0.546448,0.955401,0.530599,0.121751,-17.167252
1790548011.8875,-0.006817,0.024042,-1.079983,-0.004551,0.025022,-1.079983,0.308753,0.122545,1.234654,3.136902,2.315371,-7.774944
1790548011.9015,-0.004575,0.019489,-1.063633,-0.004568,0.021149,-1.063633,0.358533,-0.298763,1.011252,-0.925864,1.794851,-7.813756
1790548011.9155,-0.013460,0.017671,-1.068930,-0.010792,0.018715,-1.068930,0.226192,0.315593,0.898336,1.603783,2.055111,-6.338930
1790548011.9290,-0.023693,0.013328,-1.075000,-0.019823,0.014944,-1.075000,0.421669,0.437007,0.872839,1.910407,2.352551,-6.998721
1790548011.9426,-0.026468,0.006025,-1.067455,-0.024474,0.008701,-1.067455,0.588006,-0.015868,0.985755,0.645583,2.389731,-9.016902
1790548011.9565,-0.037221,0.001797,-1.063948,-0.033397,0.003868,-1.063948,0.346392,0.515927,0.951759,2.102047,2.984611,-11.733686
1790548011.9705,-0.044097,-0.000802,-1.060290,-0.040887,0.000599,-1.060290,0.267472,0.321664,0.904407,0.607255,3.579491,-10.724595
1790548011.9846,-0.048475,-0.002951,-1.064936,-0.046199,-0.001886,-1.064936,0.265044,0.049696,0.739284,2.446998,3.505131,-9.016902
1790548011.9994,-0.038511,-0.002355,-1.073009,-0.040817,-0.002215,-1.073009,0.141202,-0.898549,0.555948,2.945262,6.144910,-11.306763
1790548012.0135,-0.029595,0.010096,-1.078161,-0.032961,0.006403,-1.078161,-0.730552,-0.903405,0.435748,3.481854,4.657711,-9.870749
1790548012.0278,-0.021751,0.019116,-1.060138,-0.025114,0.015302,-1.060138,-0.753621,-0.762565,0.401752,2.485326,0.084571,-11.190329
1790548012.0418,-0.015745,0.025779,-1.048693,-0.018556,0.022636,-1.048693,-0.555716,-0.738282,0.209918,4.286742,0.567911,-9.094525
1790548012.0558,-0.023047,0.025215,-1.038808,-0.021699,0.024441,-1.038808,-0.082200,0.310737,0.114001,4.286742,0.047391,-12.160609
1790548012.0697,-0.026356,0.024890,-1.046232,-0.024959,0.024756,-1.046232,0.042856,0.279169,-0.313377,0.568927,2.612811,-11.656063
1790548012.0838,-0.013553,0.022660,-1.051052,-0.016975,0.023289,-1.051052,0.220121,-0.536735,-0.707974,-4.413711,3.058971,-9.443825
1790548012.0980,-0.014148,0.013704,-1.056498,-0.014996,0.016579,-1.056498,0.580721,0.070336,-0.570775,1.105519,0.902531,-8.240679
1790548012.1120,-0.009332,0.004524,-1.058577,-0.011032,0.008141,-1.058577,0.606218,-0.214987,-0.557420,-0.657568,1.237151,-11.035084
1790548012.1259,-0.001836,-0.003342,-1.066335,-0.004595,0.000103,-1.066335,0.539440,-0.392252,-0.763824,-0.504256,1.571771,-10.491728
1790548012.1399,0.001970,-0.011890,-1.077286,0.000000,-0.008292,-1.077286,0.532155,-0.156708,-1.083143,0.645583,0.567911,-7.891378
1790548012.1536,0.006346,-0.017267,-1.096308,0.004443,-0.014574,-1.096308,0.420454,-0.185848,-1.045505,0.108991,1.460231,-6.300119
1790548012.1674,0.012820,-0.023359,-1.102256,0.010307,-0.020724,-1.102256,0.334250,-0.302405,-1.040648,-0.465928,0.307651,-9.249770
1790548012.1817,0.020321,-0.032471,-1.109633,0.017317,-0.028947,-1.109633,0.555224,-0.393466,-0.911949,-0.427600,0.642271,-10.142427
1790548012.1957,0.027563,-0.040107,-1.119617,0.024489,-0.036759,-1.119617,0.524871,-0.443246,-0.700689,-0.197632,1.460231,-10.220049
1790548012.2096,0.037683,-0.045055,-1.136550,0.033725,-0.042566,-1.136550,0.467806,-0.663005,-0.476072,-0.619240,2.649991,-7.930189
1790548012.2236,0.021601,-0.046847,-1.138434,0.025238,-0.045563,-1.138434,0.062282,1.163064,-0.247814,0.032335,0.828171,-14.644525
1790548012.2382,0.013973,-0.036345,-1.135910,0.017353,-0.039111,-1.135910,-0.719625,0.664052,0.056936,-3.532167,1.832031,-12.315854
1790548012.2530,0.005802,-0.022885,-1.116411,0.009267,-0.027753,-1.116411,-1.026803,0.711403,0.351973,-3.225543,-0.473129,-8.163056
1790548012.2671,-0.004348,-0.013487,-1.091770,-0.000263,-0.017767,-1.091770,-0.859251,0.970016,0.520738,-4.413711,-1.476988,-6.959909
1790548012.2815,-0.013301,0.000883,-1.076639,-0.009390,-0.004712,-1.076639,-1.094795,0.876527,0.655508,-3.762135,-0.101329,-5.213406
1790548012.2956,-0.023193,0.013646,-1.061101,-0.019052,0.008139,-1.061101,-1.076583,0.869242,0.580231,-4.337055,-1.253909,-9.210958
1790548012.3096,-0.018239,0.013091,-1.042479,-0.018483,0.011605,-1.042479,-0.147764,-0.336401,0.728357,-3.723807,-1.848788,-14.101168
1790548012.3238,-0.014696,0.011397,-1.033816,-0.015832,0.011459,-1.033816,0.036785,-0.585300,1.059817,2.523654,0.344831,-12.160609
1790548012.3380,-0.020636,0.012039,-1.023559,-0.019195,0.011865,-1.023559,-0.111340,0.030270,1.347569,2.791950,0.679451,-12.005364
1790548012.3520,-0.032210,0.006418,-1.021348,-0.028306,0.008052,-1.021348,0.433810,0.443078,1.245581,2.408670,1.943571,-8.318301
1790548012.3659,-0.045160,0.001430,-1.028004,-0.040104,0.003417,-1.028004,0.462949,0.525640,1.127809,2.868606,2.761531,-7.192776
1790548012.3803,-0.056866,-0.005379,-1.025938,-0.051837,-0.002740,-1.025938,0.552796,0.503785,1.147236,1.910407,2.687171,-7.503266
1790548012.3941,-0.068179,-0.013135,-1.019013,-0.063276,-0.010016,-1.019013,0.583149,0.554779,1.150878,1.872079,2.649991,-9.987182
1790548012.4078,-0.076998,-0.020226,-1.012599,-0.072881,-0.017163,-1.012599,0.555224,0.415153,1.105955,1.757095,3.356411,-11.112707
1790548012.4218,-0.080250,-0.027433,-1.006255,-0.078039,-0.024352,-1.006255,0.551582,0.010844,1.041605,1.757095,3.058971,-10.025993
1790548012.4357,-0.071232,-0.026817,-0.990997,-0.073274,-0.026077,-0.990997,-0.090699,-0.766207,0.966328,0.032335,2.203831,-12.898021
1790548012.4496,-0.066142,-0.021595,-0.976721,-0.068281,-0.022940,-0.976721,-0.516863,-0.644793,0.824274,3.481854,-0.138509,-11.539630
1790548012.4636,-0.056339,-0.016167,-0.958692,-0.059922,-0.018199,-0.958692,-0.586069,-1.030890,0.763567,4.210086,-1.328269,-10.414105
1790548012.4777,-0.042849,-0.006000,-0.938419,-0.047971,-0.009660,-0.938419,-0.912674,-1.203299,0.739284,1.795423,-0.844929,-8.085434
1790548012.4919,-0.035764,0.007768,-0.930627,-0.039426,0.002539,-0.930627,-1.087510,-0.847555,0.653080,2.906934,-0.064149,-7.076343
1790548012.5060,-0.023460,0.020317,-0.918505,-0.028250,0.014984,-0.918505,-1.041373,-1.138949,0.433320,3.098574,-0.621849,-10.297672
1790548012.5200,-0.030767,0.021932,-0.917098,-0.030012,0.019847,-0.917098,-0.201186,0.445506,0.029011,2.446998,0.902531,-16.546273
1790548012.5339,-0.033031,0.020890,-0.924104,-0.032125,0.020577,-0.924104,0.065925,0.372658,-0.785679,-1.079176,2.798711,-16.313406
1790548012.5479,-0.015920,0.016505,-0.932782,-0.020781,0.017727,-0.932782,0.432596,-0.900977,-0.922877,-1.845736,2.501271,-6.106063
1790548012.5618,-0.024279,0.010723,-0.937092,-0.023230,0.012824,-0.937092,0.312396,0.528068,-0.249028,1.182175,0.047391,-5.329839
1790548012.5760,-0.014838,0.002350,-0.923997,-0.017355,0.005492,-0.923997,0.477519,-0.406821,-0.520996,-3.072231,0.121751,-11.306763
1790548012.5901,0.001960,-0.007658,-0.925334,-0.003834,-0.003713,-0.925334,0.662069,-0.970183,-0.870669,-2.458983,1.646131,-15.110259
1790548012.6039,0.005399,-0.012449,-0.944520,0.002629,-0.009828,-0.944520,0.380388,-0.026795,-1.220341,-0.657568,2.352551,-9.016902
1790548012.6175,0.013348,-0.014866,-0.955219,0.010132,-0.013355,-0.955219,0.199481,-0.293906,-1.080715,-1.385800,1.460231,-5.834385
1790548012.6311,0.018768,-0.017110,-0.962509,0.016177,-0.015983,-0.962509,0.110848,-0.142138,-1.032149,-1.347472,0.939711,-7.076343
1790548012.6450,0.025040,-0.025614,-0.969178,0.022381,-0.022724,-0.969178,0.555224,-0.285407,-0.812390,-1.194160,1.162791,-10.336483
1790548012.6589,0.030605,-0.030085,-0.980742,0.028138,-0.027877,-0.980742,0.360961,-0.279336,-0.686119,-1.079176,2.724351,-10.685784
1790548012.6729,0.032270,-0.032062,-0.986871,0.031030,-0.030806,-0.986871,0.178840,-0.041365,-0.327947,-1.155832,2.464091,-10.608161
1790548012.6886,0.017138,-0.022897,-0.987964,0.021306,-0.025270,-0.987964,-0.582427,1.072004,-0.119115,-2.382327,2.389731,-13.130889
1790548012.7032,0.012522,-0.007058,-0.979605,0.015157,-0.012522,-0.979605,-1.075369,0.517141,0.121286,-5.026958,2.203831,-11.733686
1790548012.7180,0.007555,0.002598,-0.966158,0.009836,-0.001938,-0.966158,-0.813114,0.605773,0.160138,-4.835318,-1.179549,-8.201867
