t,imu_roll,imu_pitch,imu_yaw,lpf_roll,lpf_pitch,lpf_yaw,gyro_x,gyro_y,gyro_z,acc_x,acc_y,acc_z
1790549050.1228,-0.033720,-0.030130,-0.003931,-0.023604,-0.021091,-0.003931,0.005698,0.008652,-0.000322,0.147319,1.274331,-9.987182
1790549050.1387,-0.041440,-0.032306,-0.004778,-0.036089,-0.028942,-0.004778,-0.002801,-0.003489,-0.001536,0.300631,1.237151,-9.987182
1790549050.1518,-0.035394,-0.037656,-0.002221,-0.035602,-0.035042,-0.002221,0.004484,0.000153,-0.000322,0.032335,1.088431,-9.909560
1790549050.1649,-0.043691,-0.036724,-0.005054,-0.041264,-0.036219,-0.005054,0.005698,-0.001061,0.000892,0.492271,1.237151,-9.909560
1790549050.1784,-0.043087,-0.037966,-0.004429,-0.042540,-0.037442,-0.004429,0.011769,-0.011988,0.002106,0.223975,1.199971,-10.336483
1790549050.1926,-0.047539,-0.036004,-0.006615,-0.046039,-0.036435,-0.006615,-0.023441,-0.031415,0.004534,0.530599,1.311511,-10.025993
1790549050.2067,-0.046400,-0.033567,-0.007296,-0.046292,-0.034427,-0.007296,-0.085363,-0.060554,-0.002751,0.262303,1.385871,-10.452916
1790549050.2211,-0.047990,-0.028741,-0.008897,-0.047481,-0.030447,-0.008897,-0.158211,-0.127332,0.026389,0.530599,1.497411,-10.103616
1790549050.2351,-0.050062,-0.022459,-0.010520,-0.049288,-0.024855,-0.010520,-0.201920,-0.093336,0.087096,0.568927,1.646131,-9.987182
1790549050.2492,-0.049689,-0.015348,-0.012687,-0.049569,-0.018200,-0.012687,-0.171567,-0.128546,0.191512,0.377287,1.757671,-9.366203
1790549050.2632,-0.050409,-0.010908,-0.009506,-0.050157,-0.013096,-0.009506,-0.120573,-0.163756,0.337209,0.530599,1.720491,-9.676693
1790549050.2770,-0.052901,-0.011739,0.003431,-0.052078,-0.012146,0.003431,-0.085363,-0.124904,0.498690,0.645583,1.199971,-9.405014
1790549050.2910,-0.048423,-0.015373,0.016569,-0.049519,-0.014405,0.016569,-0.040439,-0.205037,0.558183,-0.044320,0.865351,-9.016902
1790549050.3052,-0.040373,-0.015783,0.023286,-0.043117,-0.015369,0.023286,-0.033155,-0.121261,0.555755,-0.734224,1.274331,-9.482637
1790549050.3196,-0.031296,-0.019356,0.029941,-0.034842,-0.018160,0.029941,0.012983,-0.237819,0.406415,-0.810880,0.939711,-10.103616
1790549050.3345,-0.030477,-0.027672,0.031296,-0.031787,-0.024818,0.031296,0.048193,-0.084837,0.244934,0.108991,0.196111,-11.539630
1790549050.3498,-0.033600,-0.031239,0.029962,-0.033056,-0.029313,0.029962,0.065191,0.013509,0.183013,0.568927,0.902531,-10.452916
1790549050.3644,-0.033093,-0.035573,0.031451,-0.033082,-0.033695,0.031451,0.139254,-0.072696,0.119878,0.185647,0.828171,-9.870749
1790549050.3784,-0.042497,-0.028474,0.019500,-0.039672,-0.030041,0.019500,-0.098718,0.252695,0.015461,1.182175,2.129471,-9.016902
1790549050.3930,-0.038777,-0.028502,0.024634,-0.039045,-0.028964,0.024634,-0.028298,0.018365,-0.000322,-0.504256,1.088431,-8.939280
1790549050.4071,-0.041596,-0.027023,0.022139,-0.040831,-0.027605,0.022139,-0.093862,-0.004704,0.040958,0.760567,1.311511,-9.715504
1790549050.4210,-0.041321,-0.025464,0.024976,-0.041174,-0.026106,0.024976,-0.171567,-0.022916,0.133233,0.185647,1.237151,-10.608161
1790549050.4350,-0.037167,-0.022623,0.029281,-0.038369,-0.023668,0.029281,-0.211633,-0.248746,0.176942,-0.044320,1.274331,-9.482637
1790549050.4490,-0.033152,-0.012754,0.030735,-0.034717,-0.016029,0.030735,-0.543094,-0.423583,0.263146,0.415615,1.906391,-9.443825
1790549050.4632,-0.030006,-0.006450,0.033447,-0.031420,-0.009324,0.033447,-0.345189,-0.270601,0.248577,0.108991,1.497411,-7.969000
1790549050.4775,-0.026409,-0.016900,0.038664,-0.027912,-0.014627,0.038664,0.609127,0.127638,0.006962,-1.960720,1.497411,-15.265504
1790549050.4914,-0.009881,-0.011396,0.047024,-0.015290,-0.012365,0.047024,0.210888,-0.639700,-0.345139,-2.650623,4.917971,-12.781588
1790549050.5055,-0.010194,-0.002648,0.051877,-0.011723,-0.005563,0.051877,-0.228631,-0.134617,-0.736092,1.028863,3.542311,-11.229140
1790549050.5196,-0.007473,0.002430,0.039786,-0.008748,0.000032,0.039786,-0.090219,0.003795,-0.994705,-0.235960,2.166651,-7.852567
1790549050.5335,-0.016705,0.017129,0.048697,-0.014318,0.012000,0.048697,-0.391326,0.429959,-0.765232,0.990535,3.170511,-6.610609
1790549050.5476,-0.022442,0.014742,0.035119,-0.020005,0.013919,0.035119,0.042122,0.564729,-0.858721,0.032335,1.274331,-10.569350
1790549050.5615,-0.027802,0.016095,0.014386,-0.025463,0.015442,0.014386,0.009340,0.638792,-1.006846,-0.159304,1.683311,-7.658511
1790549050.5756,-0.033731,0.024575,-0.002328,-0.031250,0.021835,-0.002328,-0.391326,0.626650,-1.020202,0.070663,2.352551,-8.473546
1790549050.5895,-0.046179,0.031593,-0.013650,-0.041700,0.028666,-0.013650,-0.415609,1.034602,-0.984992,0.453943,1.980751,-8.939280
1790549050.6032,-0.053818,0.037983,-0.042414,-0.050183,0.035188,-0.042414,-0.484815,0.914402,-0.978921,-0.312616,1.906391,-10.879840
1790549050.6169,-0.059883,0.041974,-0.066453,-0.056973,0.039938,-0.066453,-0.443535,0.712854,-0.734878,-0.082648,1.274331,-11.035084
1790549050.6308,-0.063230,0.046439,-0.087756,-0.061353,0.044488,-0.087756,-0.360973,0.507664,-0.572183,-0.235960,1.794851,-10.336483
1790549050.6449,-0.056814,0.049953,-0.110774,-0.058176,0.048314,-0.110774,-0.146070,-0.067839,-0.302644,-1.117504,2.315371,-8.745224
1790549050.6590,-0.051168,0.039135,-0.108251,-0.053270,0.041889,-0.108251,0.692902,-0.469720,0.214581,0.453943,1.832031,-11.035084
1790549050.6728,-0.053421,0.028547,-0.057903,-0.053376,0.032550,-0.057903,0.924804,-0.365304,0.764587,2.370342,2.984611,-10.336483
1790549050.6868,-0.046688,0.014963,-0.027927,-0.048694,0.020239,-0.027927,1.042575,-0.831534,0.913927,1.143847,2.241011,-9.793126
1790549050.7008,-0.042821,0.006163,0.023103,-0.044583,0.010386,0.023103,0.887165,-0.954163,1.179824,2.332014,2.761531,-8.007811
1790549050.7150,-0.039469,0.001762,0.042391,-0.041003,0.004349,0.042391,0.660121,-0.693122,1.287882,1.603783,3.691031,-9.210958
1790549050.7297,-0.042318,-0.000229,0.056213,-0.041924,0.001145,0.056213,0.569060,-0.331308,1.550137,2.255358,4.806431,-10.064805
1790549050.7444,-0.050311,0.001707,0.081369,-0.047795,0.001539,0.081369,0.139254,0.077858,1.654553,1.948735,4.248731,-11.423196
1790549050.7590,-0.059292,-0.001985,0.109253,-0.055843,-0.000928,0.109253,0.141682,0.340113,1.823319,0.338959,1.274331,-10.103616
1790549050.7730,-0.065674,-0.016803,0.129073,-0.062725,-0.012041,0.129073,0.570274,0.344969,1.886454,-0.619240,-1.216729,-10.763406
1790549050.7872,-0.064684,-0.031763,0.110412,-0.064096,-0.025846,0.110412,0.660121,0.103355,1.874313,-2.190688,-0.844929,-10.491728
1790549050.8014,-0.055091,-0.042273,0.063077,-0.057793,-0.037345,0.063077,0.360227,-0.048413,1.323093,-5.371910,-1.216729,-10.530539
1790549050.8154,-0.064642,-0.052045,0.079547,-0.062587,-0.047635,0.079547,0.298306,0.681287,1.034127,-0.274288,-1.328269,-10.064805
1790549050.8291,-0.062416,-0.060111,0.085631,-0.062467,-0.056368,0.085631,0.391795,0.272121,0.679597,-3.263871,-0.138509,-10.996273
1790549050.8429,-0.064531,-0.062882,0.097277,-0.063912,-0.060928,0.097277,0.278880,0.150707,0.594607,0.070663,1.348691,-8.240679
1790549050.8569,-0.066736,-0.066146,0.103541,-0.065889,-0.064581,0.103541,0.283737,0.210200,0.471979,-0.197632,1.497411,-10.569350
1790549050.8712,-0.066662,-0.074046,0.102819,-0.066430,-0.071206,0.102819,0.428219,0.002581,0.444054,0.185647,0.158931,-12.199420
1790549050.8850,-0.056383,-0.069590,0.102578,-0.059397,-0.070075,0.102578,-0.398611,-0.710120,0.321425,-0.082648,0.679451,-14.217602
1790549050.8990,-0.043933,-0.060105,0.097296,-0.048572,-0.063096,0.097296,-0.936476,-0.884957,0.115021,0.147319,-1.142369,-14.062357
1790549050.9132,-0.050801,-0.048828,0.266483,-0.050132,-0.053109,0.266483,-1.192660,-0.430867,0.016676,5.666549,-1.737248,-5.640329
1790549050.9272,-0.044637,-0.033141,0.251991,-0.046285,-0.039132,0.251991,-1.321359,-0.738045,0.167229,1.527127,-0.175689,-6.610609
1790549050.9411,-0.026549,-0.013370,0.237933,-0.032470,-0.021098,0.237933,-1.573901,-1.651080,0.068884,1.718767,0.158931,-6.688231
1790549050.9552,-0.013378,0.018954,0.176787,-0.019106,0.006938,0.176787,-1.959998,-1.528452,0.164801,2.945262,2.649991,-5.873196
1790549050.9692,-0.039897,0.008168,0.206773,-0.033660,0.007799,0.206773,0.342015,1.891786,-0.311143,1.872079,-3.150088,-20.078091
1790549050.9835,-0.011215,-0.006680,0.165085,-0.017949,-0.002336,0.165085,1.355824,-1.284409,-0.781016,-8.438149,6.107730,-13.208511
1790549050.9975,-0.023207,-0.001397,0.141128,-0.021630,-0.001679,0.141128,-0.186136,0.621794,-1.218107,3.213558,2.798711,-8.395923
1790549051.0116,-0.033135,0.006812,0.105331,-0.029683,0.004265,0.105331,-0.221347,0.700713,-1.231462,0.952207,2.203831,-4.553616
1790549051.0255,-0.029866,0.002966,0.111176,-0.029811,0.003356,0.111176,0.105258,-0.112762,-0.813798,0.185647,0.270471,-11.733686
1790549051.0394,-0.025195,-0.001642,0.092048,-0.026580,-0.000142,0.092048,0.390581,-0.004704,-0.840509,-1.194160,1.460231,-7.386832
1790549051.0534,-0.027559,-0.007169,0.072831,-0.027265,-0.005061,0.072831,0.530207,0.262408,-0.857507,0.377287,2.241011,-8.551168
1790549051.0669,-0.025563,-0.005184,0.044681,-0.026073,-0.005147,0.044681,0.112542,0.080286,-0.861149,-0.810880,4.062831,-10.957462
1790549051.0805,-0.025641,-0.008738,0.037483,-0.025771,-0.007661,0.037483,0.270381,0.076644,-0.555185,0.185647,1.683311,-10.841028
1790549051.0945,-0.021267,-0.010957,0.022220,-0.022618,-0.009968,0.022220,0.263096,-0.088479,-0.200656,-1.654096,2.315371,-9.715504
1790549051.1084,-0.022845,-0.014686,0.019839,-0.022777,-0.013270,0.019839,0.287379,0.140993,0.053100,-0.274288,1.720491,-10.685784
1790549051.1224,-0.020146,-0.017286,0.013689,-0.020936,-0.016081,0.013689,0.283737,-0.112762,0.106522,-1.002520,2.761531,-11.966553
1790549051.1364,-0.023045,-0.018639,0.019874,-0.022412,-0.017872,0.019874,0.309233,0.130066,0.268003,0.415615,3.467951,-10.064805
1790549051.1503,-0.030513,-0.022326,0.021217,-0.028083,-0.020990,0.021217,0.386939,0.506450,0.609177,-0.389272,3.133331,-12.315854
1790549051.1642,-0.033423,-0.018615,0.015390,-0.031821,-0.019328,0.015390,-0.217704,0.370466,0.663813,-2.612295,2.389731,-12.315854
1790549051.1782,-0.033733,-0.015588,0.016721,-0.033159,-0.016710,0.016721,-0.194635,0.166490,0.943066,-2.880591,2.129471,-11.850119
1790549051.1920,-0.038273,-0.019693,0.023653,-0.036739,-0.018798,0.023653,0.168393,0.406891,1.113046,-1.692424,0.307651,-8.706413
1790549051.2059,-0.043960,-0.027902,0.051407,-0.041793,-0.025171,0.051407,0.327446,0.218699,1.391084,0.185647,-0.733389,-7.891378
1790549051.2200,-0.055625,-0.041500,0.094977,-0.051476,-0.036602,0.094977,0.662549,0.508879,1.461505,1.450471,-1.253909,-8.745224
1790549051.2344,-0.059828,-0.055478,0.118526,-0.057322,-0.049815,0.118526,0.684403,0.284262,1.301238,-1.194160,-1.662888,-12.199420
1790549051.2483,-0.060264,-0.067404,0.134913,-0.059381,-0.062128,0.134913,0.645551,0.201701,0.875074,-2.573967,-0.993649,-12.005364
1790549051.2622,-0.069559,-0.072774,0.143314,-0.066505,-0.069580,0.143314,0.258240,0.704355,0.794941,-0.465928,-0.064149,-9.210958
1790549051.2764,-0.075321,-0.081201,0.154963,-0.072676,-0.077715,0.154963,0.562989,0.419032,0.830151,-0.197632,0.790991,-9.249770
1790549051.2901,-0.081713,-0.085984,0.182629,-0.079002,-0.083503,0.182629,0.555704,0.380179,0.767015,0.645583,2.278191,-6.998721
1790549051.3037,-0.089845,-0.091357,0.194864,-0.086592,-0.089001,0.194864,0.452502,0.547731,0.618890,0.568927,1.162791,-7.231588
1790549051.3177,-0.091369,-0.098349,0.198203,-0.089936,-0.095544,0.198203,0.293450,0.110640,0.607963,0.453943,-1.588528,-15.110259
1790549051.3316,-0.078413,-0.098903,0.201683,-0.081870,-0.097895,0.201683,-0.097504,-0.938379,0.445268,0.683911,-0.919289,-19.728791
1790549051.3455,-0.073750,-0.085326,0.214100,-0.076186,-0.089097,0.214100,-0.987470,-0.585064,0.213367,4.171758,1.014071,-13.635434
1790549051.3594,-0.073382,-0.075095,0.236938,-0.074223,-0.079296,0.236938,-0.986256,-0.456364,0.288643,4.823333,-1.774428,-8.939280
1790549051.3732,-0.064833,-0.061409,0.247055,-0.067650,-0.066775,0.247055,-1.193874,-0.937165,0.385775,2.217030,-0.659029,-6.222497
1790549051.3872,-0.050097,-0.044392,0.257999,-0.055363,-0.051107,0.257999,-1.447630,-1.465317,0.435555,2.561982,-0.733389,-5.795574
1790549051.4011,-0.032631,-0.016784,0.245046,-0.039451,-0.027081,0.245046,-1.827657,-1.873268,0.485334,2.561982,1.162791,-3.311658
1790549051.4151,-0.014590,0.017959,0.234711,-0.022048,0.004447,0.234711,-2.142119,-1.717858,0.436769,1.220503,1.720491,-2.690678
1790549051.4290,-0.010390,0.045149,0.233616,-0.013887,0.032939,0.233616,-1.936929,-0.205037,-0.012464,-0.695896,1.311511,-5.873196
1790549051.4429,-0.036534,0.017476,0.244992,-0.029740,0.022115,0.244992,1.910687,2.398084,-0.506620,-8.974740,1.757671,-21.281238
1790549051.4567,-0.005681,0.017006,0.212770,-0.012898,0.018539,0.212770,0.355371,-1.692361,-1.575065,-6.023486,9.156490,-15.226693
1790549051.4707,-0.025335,0.023407,0.260628,-0.021604,0.021946,0.260628,-0.023441,1.024889,-1.083337,6.011501,6.107730,-4.398371
1790549051.4851,-0.015526,0.018104,0.188635,-0.017349,0.019257,0.188635,0.276452,0.052361,-0.904858,-4.183743,0.010211,-5.096972
1790549051.4992,-0.011608,0.005832,0.187607,-0.013331,0.009859,0.187607,0.729327,-0.151615,-0.727593,-0.159304,0.084571,-9.172147
1790549051.5133,-0.000858,-0.003673,0.170054,-0.004600,0.000387,0.170054,0.759680,-0.578993,-0.870862,-0.695896,2.464091,-9.094525
1790549051.5270,-0.002779,-0.007988,0.154869,-0.003325,-0.005475,0.154869,0.482856,0.222341,-0.900002,0.415615,3.133331,-8.395923
1790549051.5407,0.003377,-0.011801,0.132035,0.001367,-0.009903,0.132035,0.414864,-0.196538,-0.770088,-1.960720,3.393591,-10.491728
1790549051.5546,-0.001514,-0.013830,0.122564,-0.000650,-0.012652,0.122564,0.326231,0.426317,-0.431343,-0.197632,2.910251,-7.697322
1790549051.5685,0.003968,-0.021384,0.115260,0.002583,-0.018764,0.115260,0.543563,-0.280314,0.112593,-1.615768,1.274331,-9.405014
1790549051.5825,0.001901,-0.025068,0.113553,0.002106,-0.023177,0.113553,0.457359,0.211414,0.386989,-1.654096,3.839751,-10.452916
1790549051.5964,-0.003660,-0.025927,0.116330,-0.001930,-0.025102,0.116330,0.129540,0.374109,0.554541,-1.079176,3.430771,-16.973196
1790549051.6106,-0.006006,-0.021807,0.112776,-0.004784,-0.022796,0.112776,-0.268698,0.357111,0.753660,-4.835318,1.980751,-12.859210
1790549051.6252,-0.014848,-0.015353,0.115943,-0.011829,-0.017586,0.115943,-0.415609,0.699499,1.043840,-2.420655,1.385871,-8.085434
1790549051.6393,-0.023776,-0.009234,0.121905,-0.020192,-0.011740,0.121905,-0.477531,0.592654,1.149470,-0.619240,0.456371,-4.592427
1790549051.6532,-0.024544,-0.006825,0.129444,-0.023238,-0.008299,0.129444,-0.244415,0.028078,1.178610,-1.194160,0.530731,-7.037532
1790549051.6670,-0.020483,-0.013203,0.141349,-0.021310,-0.011732,0.141349,0.369941,-0.385944,1.330377,-1.347472,0.456371,-10.724595
1790549051.6809,-0.029806,-0.021035,0.170887,-0.027257,-0.018244,0.170887,0.468286,0.352254,1.777182,1.143847,0.382011,-12.471098
1790549051.6948,-0.034578,-0.029408,0.191354,-0.032382,-0.026059,0.191354,0.471929,0.210200,1.864600,-1.462456,-0.026969,-12.393476
1790549051.7088,-0.033821,-0.035326,0.213445,-0.033389,-0.032546,0.213445,0.361442,0.008652,1.419010,-2.880591,0.716631,-9.715504
1790549051.7230,-0.046509,-0.040449,0.233793,-0.042573,-0.038078,0.233793,0.259454,0.671574,0.921211,1.220503,0.047391,-7.270399
1790549051.7373,-0.063568,-0.047664,0.253571,-0.057269,-0.044788,0.253571,0.418506,0.977537,0.824080,1.948735,0.270471,-9.637881
1790549051.7510,-0.070465,-0.054448,0.271188,-0.066506,-0.051550,0.271188,0.528993,0.351040,0.736662,1.067191,1.385871,-7.503266
1790549051.7647,-0.076093,-0.065258,0.282394,-0.073217,-0.061146,0.282394,0.757252,0.304903,0.654100,1.182175,1.014071,-10.841028
1790549051.7787,-0.075458,-0.073485,0.286254,-0.074786,-0.069784,0.286254,0.481642,-0.011988,0.542399,-0.580912,-0.138509,-12.781588
1790549051.7926,-0.064323,-0.072298,0.290433,-0.067462,-0.071544,0.290433,-0.177637,-0.801181,0.408844,-0.005993,0.010211,-15.886483
1790549051.8066,-0.056066,-0.069125,0.303201,-0.059485,-0.069851,0.303201,-0.402254,-0.722262,0.335995,1.948735,-1.439808,-12.121798
1790549051.8206,-0.048392,-0.065496,0.336872,-0.051720,-0.066803,0.336872,-0.511527,-0.836391,0.308070,3.481854,-2.257768,-9.210958
1790549051.8345,-0.046784,-0.053501,0.375673,-0.048265,-0.057492,0.375673,-0.969258,-0.599633,0.530258,5.474909,-0.250049,-8.007811
1790549051.8482,-0.034752,-0.038748,0.388447,-0.038806,-0.044371,0.388447,-1.220586,-1.093789,0.371205,2.293686,-0.584669,-9.676693
1790549051.8622,-0.018680,-0.015446,0.396553,-0.024718,-0.024124,0.396553,-1.877436,-1.352401,-0.125379,1.872079,-0.882109,-6.921098
1790549051.8762,-0.008060,0.014054,0.393291,-0.013058,0.002601,0.393291,-2.200398,-1.187278,-0.093811,3.903462,0.121751,-5.989630
1790549051.8904,-0.017099,0.023782,0.397591,-0.015887,0.017428,0.397591,-0.890339,0.550159,-0.421630,4.440053,-1.700068,-19.340679
1790549051.9048,-0.017572,0.012817,0.392619,-0.017067,0.014200,0.392619,0.668620,0.306117,-0.994705,-2.075704,0.865351,-16.662707
1790549051.9190,-0.000748,0.023095,0.281551,-0.005643,0.020426,0.281551,-0.148498,-0.470934,-1.401442,-6.023486,7.223130,-0.827741
1790549051.9330,-0.020889,0.033279,0.311788,-0.016315,0.029423,0.311788,-0.584375,1.191226,-0.819868,3.941790,2.798711,-5.446273
1790549051.9472,-0.022789,0.028230,0.306917,-0.020846,0.028588,0.306917,0.236385,0.421460,-0.902430,-1.539112,0.270471,-10.530539
1790549051.9614,-0.008983,0.019447,0.297754,-0.012542,0.022190,0.297754,0.650407,-0.660340,-0.645032,-2.688951,1.943571,-8.667602
1790549051.9754,-0.010265,0.013609,0.279005,-0.010948,0.016183,0.279005,0.525351,0.245410,-0.950996,0.070663,2.352551,-6.843476
1790549051.9892,-0.003972,0.012551,0.260576,-0.006065,0.013641,0.260576,0.232743,-0.172255,-0.816226,-1.845736,3.319231,-8.046623
1790549052.0030,-0.006313,0.008973,0.250099,-0.006238,0.010373,0.250099,0.339587,0.235697,-0.679028,0.415615,2.129471,-7.270399
1790549052.0170,-0.001672,0.004745,0.241513,-0.003042,0.006434,0.241513,0.340801,-0.178326,-0.324498,-1.539112,2.166651,-9.676693
1790549052.0309,0.005892,0.000022,0.235498,0.003212,0.001945,0.235498,0.501068,-0.360447,-0.048888,-2.535639,3.430771,-8.589979
1790549052.0448,0.011508,-0.010714,0.234018,0.009019,-0.006916,0.234018,0.936945,-0.292455,0.156302,-2.957247,5.029511,-12.742777
1790549052.0588,0.004868,-0.013587,0.234905,0.006114,-0.011586,0.234905,0.292236,0.488238,0.361492,-1.615768,3.876931,-15.110259
1790549052.0726,0.002389,-0.007772,0.237595,0.003506,-0.008916,0.237595,-0.335476,0.315830,0.714807,-5.141942,3.653851,-14.062357
1790549052.0865,-0.006884,-0.002194,0.242595,-0.003767,-0.004211,0.242595,-0.454462,0.744422,0.939424,-2.458983,0.493551,-7.891378
1790549052.1005,-0.017116,0.000295,0.250192,-0.013111,-0.001057,0.250192,-0.260199,0.715283,1.046268,-1.270816,0.233291,-6.532986
1790549052.1144,-0.022318,0.002687,0.264397,-0.019556,0.001564,0.264397,-0.165496,0.223555,1.178610,-0.427600,1.608951,-9.405014
1790549052.1284,-0.025024,-0.004180,0.279784,-0.023384,-0.002457,0.279784,0.323803,0.047505,1.185894,-0.542584,-0.770569,-10.724595
1790549052.1423,-0.032783,-0.014837,0.303981,-0.029963,-0.011123,0.303981,0.584844,0.285476,1.375301,1.143847,-1.030829,-10.142427
1790549052.1562,-0.039713,-0.028510,0.322969,-0.036788,-0.023293,0.322969,0.766965,0.364396,1.289097,-0.389272,-1.514168,-10.491728
1790549052.1701,-0.047740,-0.037166,0.335388,-0.044455,-0.033004,0.335388,0.525351,0.649719,0.872646,-2.650623,0.158931,-11.617252
1790549052.1839,-0.054710,-0.042365,0.341458,-0.051633,-0.039557,0.341458,0.311662,0.541660,0.594607,-1.002520,0.456371,-9.521448
1790549052.1978,-0.059441,-0.048961,0.346077,-0.057099,-0.046140,0.346077,0.389367,0.344969,0.527829,-0.350944,0.121751,-7.736133
1790549052.2114,-0.070612,-0.054769,0.357451,-0.066558,-0.052180,0.357451,0.365084,0.610866,0.606749,1.680439,0.307651,-6.416553
1790549052.2252,-0.078014,-0.064672,0.364193,-0.074577,-0.060925,0.364193,0.637052,0.557444,0.605535,-0.427600,0.196111,-8.589979
1790549052.2397,-0.078317,-0.073755,0.372738,-0.077195,-0.069906,0.372738,0.513209,0.075430,0.606749,-1.539112,-0.435949,-15.110259
1790549052.2539,-0.070593,-0.073050,0.378495,-0.072573,-0.072107,0.378495,-0.133928,-0.594777,0.495048,1.105519,0.121751,-17.594175
1790549052.2680,-0.065251,-0.066374,0.381731,-0.067448,-0.068093,0.381731,-0.574662,-0.492789,0.291072,2.446998,-0.435949,-14.489280
1790549052.2822,-0.066907,-0.058748,0.412690,-0.067069,-0.061552,0.412690,-0.761640,-0.264530,0.152660,4.746677,-1.997508,-6.532986
1790549052.2962,-0.061569,-0.041085,0.416247,-0.063219,-0.047225,0.416247,-1.351713,-0.670053,0.140518,2.830278,-0.064149,-6.067252
1790549052.3103,-0.051778,-0.019329,0.418549,-0.055210,-0.027698,0.418549,-1.686816,-0.917738,-0.013678,2.715294,-0.547489,-7.464455
1790549052.3241,-0.036095,0.007697,0.425384,-0.041830,-0.002922,0.425384,-2.009778,-1.583088,-0.101096,4.593365,0.419191,-5.446273
1790549052.3375,-0.021400,0.037835,0.426570,-0.027529,0.025608,0.426570,-2.122693,-1.592801,0.241292,3.788478,1.943571,-4.670049
1790549052.3515,-0.014092,0.057144,0.416730,-0.018123,0.047683,0.416730,-1.219371,-0.693122,-0.048888,0.875551,1.571771,-3.311658
1790549052.3654,-0.026764,0.031392,0.428261,-0.024172,0.036279,0.428261,1.870620,1.383061,-0.449555,-8.553133,3.356411,-14.799770
1790549052.3793,-0.011192,0.023100,0.407758,-0.015086,0.027054,0.407758,0.783963,-0.858245,-1.139188,-2.267343,8.933410,-18.525644
1790549052.3932,-0.008837,0.022508,0.386990,-0.010711,0.023872,0.386990,0.156252,-0.155257,-1.416012,4.708349,4.955151,-12.509909
1790549052.4071,-0.006973,0.022703,0.384378,-0.008094,0.023054,0.384378,-0.176423,0.326757,-1.239961,-2.535639,-0.287229,-6.882287
1790549052.4226,-0.002093,0.015852,0.381247,-0.003893,0.018012,0.381247,0.338373,-0.166184,-0.628034,-0.542584,0.158931,-6.688231
1790549052.4373,-0.002974,0.014161,0.364746,-0.003250,0.015316,0.364746,0.283737,0.132494,-0.513904,0.108991,4.546171,-9.599070
1790549052.4518,-0.003328,0.011592,0.350853,-0.003305,0.012709,0.350853,0.287379,0.233268,-0.572183,-2.190688,4.137191,-11.190329
1790549052.4663,-0.003515,0.012435,0.337566,-0.003452,0.012517,0.337566,0.144110,0.249052,-0.466553,-2.267343,4.285911,-7.813756
1790549052.4810,-0.008680,0.011536,0.329859,-0.007112,0.011831,0.329859,0.213316,0.462741,-0.161803,-1.270816,3.876931,-8.861658
1790549052.4948,-0.010893,0.012771,0.327156,-0.009758,0.012489,0.327156,0.040908,0.298832,0.192726,-2.382327,3.356411,-8.822846
1790549052.5087,-0.006737,0.003591,0.330456,-0.007643,0.006260,0.330456,0.737826,-0.263316,0.473193,-2.995575,4.397451,-15.692427
1790549052.5229,-0.002394,-0.008515,0.337824,-0.003969,-0.004083,0.337824,0.986725,-0.327665,0.593393,-1.654096,4.248731,-12.238231
1790549052.5371,-0.009211,-0.007646,0.348453,-0.007639,-0.006577,0.348453,0.094330,0.422674,0.842292,-1.462456,5.141051,-13.247322
1790549052.5514,-0.017102,-0.003414,0.352782,-0.014263,-0.004363,0.352782,-0.326977,0.596297,0.887216,-3.110559,1.125611,-11.384385
1790549052.5654,-0.022103,0.002244,0.360338,-0.019751,0.000262,0.360338,-0.414395,0.405676,1.031698,-2.075704,0.976891,-6.571797
1790549052.5795,-0.018004,-0.002704,0.373882,-0.018528,-0.001814,0.373882,0.185391,-0.299740,1.210177,-2.458983,-0.844929,-8.473546
1790549052.5938,-0.026213,-0.009126,0.410389,-0.023907,-0.006932,0.410389,0.476785,0.171347,1.457862,2.293686,1.497411,-7.813756
1790549052.6078,-0.038887,-0.017923,0.432591,-0.034393,-0.014626,0.432591,0.502282,0.642434,1.602345,0.875551,-0.250049,-11.617252
1790549052.6219,-0.038331,-0.026111,0.449374,-0.037150,-0.022666,0.449374,0.447646,-0.099407,1.487002,-2.458983,-0.361589,-12.354665
1790549052.6361,-0.040544,-0.034030,0.460977,-0.039526,-0.030621,0.460977,0.420935,0.125210,1.081478,-1.730752,-0.584669,-12.005364
1790549052.6503,-0.052995,-0.042698,0.471665,-0.048954,-0.039075,0.471665,0.473143,0.768705,0.979490,0.300631,-0.584669,-9.948371
1790549052.6644,-0.066180,-0.053389,0.481007,-0.061012,-0.049094,0.481007,0.655264,0.846410,0.867789,0.300631,-0.026969,-6.882287
1790549052.6782,-0.070542,-0.061641,0.495093,-0.067683,-0.057877,0.495093,0.692902,0.321901,0.635888,-0.350944,1.869211,-6.532986
1790549052.6920,-0.074504,-0.069190,0.508658,-0.072458,-0.065796,0.508658,0.593343,0.149492,0.542399,1.757095,1.832031,-9.249770
1790549052.7063,-0.068249,-0.070993,0.513846,-0.069512,-0.069434,0.513846,0.061549,-0.441795,0.458623,-0.159304,0.493551,-17.594175
1790549052.7204,-0.062494,-0.068389,0.519724,-0.064599,-0.068702,0.519724,-0.330619,-0.503716,0.354207,2.217030,-1.737248,-15.886483
1790549052.7347,-0.058816,-0.061319,0.529203,-0.060551,-0.063534,0.529203,-0.651153,-0.439366,0.294714,3.290214,-1.588528,-11.539630
1790549052.7493,-0.055025,-0.046275,0.551591,-0.056683,-0.051453,0.551591,-1.124668,-0.631201,0.447696,3.481854,-0.138509,-5.523895
1790549052.7637,-0.043921,-0.025781,0.563537,-0.047750,-0.033483,0.563537,-1.518050,-1.007585,0.476835,1.833751,-0.026969,-5.950818
1790549052.7777,-0.017895,-0.001180,0.575478,-0.026851,-0.010871,0.575478,-1.900505,-1.955830,0.350565,0.185647,-0.250049,-4.631238
1790549052.7918,0.000482,0.031978,0.589442,-0.007718,0.019123,0.589442,-2.278103,-1.936404,0.486549,3.865134,1.162791,-3.001168
1790549052.8057,0.002067,0.060160,0.591380,-0.000868,0.047849,0.591380,-1.950285,-0.507358,0.274074,2.332014,1.423051,-4.087881
1790549052.8196,-0.032640,0.034978,0.590300,-0.023109,0.038839,0.590300,1.620507,2.603274,-0.511476,1.718767,-1.476988,-21.281238
1790549052.8334,-0.003295,0.025841,0.570108,-0.009239,0.029740,0.570108,0.809460,-1.966757,-1.060268,-0.197632,6.739790,-16.002917
1790549052.8473,-0.012241,0.017788,0.551367,-0.011340,0.021374,0.551367,0.572702,0.590226,-1.334665,6.241469,2.464091,-12.160609
1790549052.8612,-0.016555,0.022583,0.509351,-0.014991,0.022220,0.509351,-0.045296,0.455456,-1.169541,0.683911,3.839751,-5.213406
1790549052.8752,-0.004065,0.014843,0.533349,-0.007342,0.017056,0.533349,0.270381,-0.600847,-0.692383,-2.075704,-1.700068,-6.610609
1790549052.8890,0.012009,0.006899,0.506264,0.006204,0.009946,0.506264,0.745111,-0.803609,-0.902430,-2.037376,2.389731,-4.825294
1790549052.9026,0.015937,0.000052,0.487631,0.013017,0.003020,0.487631,0.618840,-0.130974,-0.761589,-0.887536,3.542311,-9.366203
1790549052.9162,0.019859,-0.003644,0.468748,0.017806,-0.001645,0.468748,0.385724,-0.056912,-0.730022,-2.343999,3.839751,-10.103616
1790549052.9303,0.020426,-0.009157,0.455814,0.019640,-0.006903,0.455814,0.454931,0.098498,-0.513904,-1.424128,2.947431,-10.452916
1790549052.9441,0.019874,-0.013243,0.448162,0.019804,-0.011341,0.448162,0.434290,0.099713,-0.109595,-1.194160,4.211551,-11.112707
1790549052.9581,0.016463,-0.016164,0.446890,0.017465,-0.014717,0.446890,0.417292,0.242981,0.281359,-0.964192,4.843611,-9.987182
1790549052.9719,0.008307,-0.016513,0.444440,0.011055,-0.015974,0.444440,0.129540,0.655790,0.475621,-3.187215,4.062831,-13.984735
1790549052.9860,0.001741,-0.015585,0.447314,0.004535,-0.015702,0.447314,-0.051367,0.574442,0.673527,-4.720334,1.943571,-13.596623
1790549053.0004,-0.004967,-0.009035,0.454818,-0.002117,-0.011035,0.454818,-0.459318,0.548945,0.864147,-3.110559,1.051251,-8.745224
1790549053.0145,-0.012121,-0.003740,0.468666,-0.009120,-0.005928,0.468666,-0.486030,0.483382,1.046268,-1.462456,-0.250049,-6.959909
1790549053.0284,-0.016739,0.002136,0.479146,-0.014453,-0.000283,0.479146,-0.384042,0.304903,1.040197,-1.040848,1.051251,-4.864105
1790549053.0425,-0.016244,-0.001265,0.492674,-0.015706,-0.000971,0.492674,0.233957,-0.129760,1.181038,-1.155832,1.088431,-7.697322
1790549053.0568,-0.025909,-0.007506,0.522949,-0.022848,-0.005545,0.522949,0.464644,0.334042,1.684907,1.757095,2.352551,-11.888930
1790549053.0706,-0.036135,-0.016144,0.550830,-0.032149,-0.012964,0.550830,0.519280,0.437244,1.806321,1.105519,0.158931,-14.450469
1790549053.0846,-0.036788,-0.021546,0.572721,-0.035396,-0.018971,0.572721,0.308019,-0.075124,1.749256,-1.730752,0.605091,-9.948371
1790549053.0985,-0.041099,-0.029459,0.588685,-0.039388,-0.026313,0.588685,0.414864,0.348612,1.068123,-2.918919,-0.993649,-11.112707
1790549053.1125,-0.052897,-0.036416,0.601311,-0.048844,-0.033385,0.601311,0.452502,0.689786,0.827723,1.028863,0.753811,-8.900469
1790549053.1266,-0.066386,-0.045516,0.612911,-0.061123,-0.041877,0.612911,0.622482,0.831840,0.798583,0.952207,0.976891,-8.473546
1790549053.1401,-0.072961,-0.054046,0.620875,-0.069409,-0.050395,0.620875,0.600628,0.444529,0.706308,0.032335,0.828171,-7.542077
1790549053.1537,-0.072634,-0.063860,0.629442,-0.071667,-0.059820,0.629442,0.658906,-0.082409,0.643173,0.645583,0.753811,-14.528091
1790549053.1677,-0.067862,-0.065871,0.635067,-0.069004,-0.064056,0.635067,0.077332,-0.360447,0.413700,0.223975,0.344831,-14.760958
1790549053.1817,-0.058765,-0.062850,0.640778,-0.061836,-0.063212,0.640778,-0.295409,-0.710120,0.230365,1.220503,-0.138509,-12.820399
1790549053.1956,-0.054638,-0.061259,0.666547,-0.056797,-0.061845,0.666547,-0.289339,-0.568066,0.176942,2.945262,-1.216729,-6.222497
1790549053.2095,-0.046221,-0.052836,0.683143,-0.049394,-0.055539,0.683143,-0.656009,-0.898312,0.292286,2.408670,0.233291,-5.174595
1790549053.2234,-0.031932,-0.036395,0.696926,-0.037170,-0.042138,0.696926,-1.210872,-1.301407,0.393060,2.791950,0.716631,-7.386832
1790549053.2378,-0.008404,-0.009227,0.712213,-0.017034,-0.019100,0.712213,-1.978210,-1.858699,0.305641,2.370342,-0.064149,-8.706413
1790549053.2527,0.004679,0.021072,0.731444,-0.001835,0.009020,0.731444,-2.214968,-1.260127,0.185441,4.325070,-1.179549,-6.727042
1790549053.2669,-0.007046,0.030899,0.735356,-0.005483,0.024335,0.735356,-0.890339,0.850052,-0.364565,1.450471,-1.997508,-18.098721
1790549053.2812,-0.016362,0.028394,0.685576,-0.013098,0.027177,0.685576,0.475571,1.196083,-0.917000,-6.675061,6.888510,-6.765853
1790549053.2953,0.007329,0.031856,0.663609,0.001201,0.030452,0.663609,-0.139999,-1.172708,-1.558067,-7.556605,6.814150,-16.002917
1790549053.3094,-0.000775,0.029791,0.639823,-0.000182,0.029989,0.639823,0.209674,0.841553,-1.363804,-0.082648,2.241011,-6.300119
1790549053.3237,0.009560,0.028486,0.620722,0.006638,0.028937,0.620722,0.079761,-0.343449,-1.292170,-2.535639,2.017931,-9.288581
1790549053.3376,0.023376,0.022022,0.609794,0.018354,0.024096,0.609794,0.388153,-0.762328,-0.967994,-1.577440,1.014071,-9.987182
1790549053.3516,0.026923,0.014960,0.592460,0.024353,0.017701,0.592460,0.570274,-0.044770,-1.173184,-0.427600,2.835891,-7.580888
1790549053.3651,0.032876,0.011555,0.580010,0.030319,0.013399,0.580010,0.411221,-0.196538,-0.801656,-1.845736,3.839751,-7.348021
1790549053.3786,0.036301,0.007335,0.568114,0.034506,0.009154,0.568114,0.446432,0.022008,-0.680242,-2.688951,3.691031,-7.774944
1790549053.3925,0.040786,-0.000229,0.561189,0.038902,0.002586,0.561189,0.638266,-0.164970,-0.345139,-2.612295,3.765391,-10.802217
1790549053.4064,0.043207,-0.006803,0.560852,0.041916,-0.003987,0.560852,0.646765,-0.048413,0.014247,-2.765607,4.323091,-9.288581
1790549053.4203,0.027225,-0.006750,0.569618,0.031632,-0.005921,0.569618,0.093116,1.047958,0.590965,-0.197632,3.505131,-12.820399
1790549053.4342,0.017069,0.001252,0.569048,0.021438,-0.000900,0.569048,-0.545523,0.854909,0.790084,-6.445094,2.575631,-14.799770
1790549053.4481,0.010927,0.006048,0.569586,0.014080,0.003964,0.569586,-0.403468,0.550159,0.775514,-5.103614,0.419191,-12.548721
1790549053.4620,0.003740,0.008786,0.572521,0.006842,0.007339,0.572521,-0.291767,0.534376,0.835007,-2.037376,-0.138509,-7.697322
1790549053.4760,0.001839,0.010870,0.585925,0.003340,0.009811,0.585925,-0.064722,0.065717,0.939424,-0.887536,1.497411,-5.368651
1790549053.4901,-0.003526,0.006470,0.609773,-0.001466,0.007472,0.609773,0.424577,0.149492,1.133686,0.415615,2.426911,-7.697322
1790549053.5049,-0.011720,0.002535,0.641930,-0.008644,0.004016,0.641930,0.362656,0.229626,1.601131,1.373815,3.914111,-13.247322
1790549053.5191,-0.021812,-0.005085,0.662497,-0.017861,-0.002355,0.662497,0.452502,0.455456,1.800250,-0.350944,0.121751,-12.587532
1790549053.5332,-0.030105,-0.013555,0.684963,-0.026432,-0.010195,0.684963,0.503496,0.326757,1.865814,-0.082648,0.084571,-10.336483
1790549053.5476,-0.032788,-0.021315,0.697508,-0.030881,-0.017979,0.697508,0.405151,0.133709,1.425080,-2.267343,-0.510309,-9.793126
1790549053.5616,-0.042500,-0.028174,0.705344,-0.039014,-0.025115,0.705344,0.400294,0.608438,0.904214,-0.159304,0.084571,-8.589979
1790549053.5756,-0.054101,-0.038027,0.715413,-0.049575,-0.034153,0.715413,0.634624,0.689786,0.753660,1.143847,0.419191,-10.258860
1790549053.5894,-0.065056,-0.047452,0.722994,-0.060411,-0.043462,0.722994,0.645551,0.745636,0.756088,-0.005993,0.902531,-10.103616
1790549053.6031,-0.071075,-0.057110,0.728317,-0.067876,-0.053015,0.728317,0.662549,0.454242,0.621318,-0.849208,0.976891,-11.811308
1790549053.6173,-0.068357,-0.065284,0.732173,-0.068213,-0.061604,0.732173,0.524137,-0.184397,0.435555,-0.350944,0.567911,-11.384385
1790549053.6314,-0.060825,-0.071472,0.733036,-0.063042,-0.068512,0.733036,0.303163,-0.504930,0.333567,-0.695896,-1.253909,-12.199420
1790549053.6456,-0.051488,-0.076265,0.738912,-0.054954,-0.073939,0.738912,0.175678,-0.747759,0.413700,1.297159,-1.811608,-11.423196
1790549053.6599,-0.048154,-0.075482,0.757342,-0.050194,-0.075019,0.757342,-0.203134,-0.473362,0.544827,3.750150,-1.588528,-10.258860
1790549053.6740,-0.036405,-0.067398,0.769383,-0.040542,-0.069684,0.769383,-0.714288,-1.018512,0.490191,2.600310,-1.328269,-10.491728
1790549053.6880,-0.016783,-0.050035,0.777388,-0.023911,-0.055930,0.777388,-1.322573,-1.557591,0.230365,1.872079,-0.287229,-8.861658
1790549053.7020,0.000562,-0.026620,0.803095,-0.006780,-0.035413,0.803095,-1.683174,-1.629226,0.269217,3.060246,0.530731,-4.864105
1790549053.7163,0.015297,0.000322,0.821445,0.008674,-0.010398,0.821445,-1.979424,-1.410680,0.209724,3.366870,-0.250049,-5.523895
1790549053.7304,0.031231,0.028214,0.830070,0.024464,0.016630,0.830070,-2.080198,-1.357258,0.125948,1.220503,-0.026969,-4.747672
1790549053.7446,0.002133,0.019353,0.815932,0.008832,0.018536,0.815932,0.586058,2.042340,-0.574612,3.750150,2.910251,-16.817952
1790549053.7592,0.017728,0.013920,0.799745,0.015059,0.015305,0.799745,0.372369,-0.628773,-1.385658,-9.089724,5.141051,-21.281238
1790549053.7735,-0.001191,0.026321,0.777774,0.003684,0.023016,0.777774,-0.543094,1.311426,-0.806513,3.175230,8.301350,-7.658511
1790549053.7877,-0.000203,0.030409,0.764647,0.000963,0.028191,0.764647,-0.371900,0.457885,-1.095479,-6.521750,0.642271,-10.336483
1790549053.8018,0.016351,0.021223,0.755059,0.011734,0.023313,0.755059,0.548419,-0.759900,-0.957066,-5.180270,0.270471,-10.414105
1790549053.8158,0.031929,0.010126,0.745215,0.025870,0.014082,0.745215,0.898092,-0.831534,-0.855078,-2.343999,3.207691,-7.503266
1790549053.8296,0.031229,0.005048,0.739664,0.029621,0.007758,0.739664,0.496211,0.025650,-0.702096,1.412143,3.356411,-7.348021
1790549053.8431,0.029594,0.000326,0.729299,0.029602,0.002555,0.729299,0.437933,0.307331,-0.585539,-1.385800,2.501271,-6.921098
1790549053.8576,0.037675,-0.008455,0.718268,0.035253,-0.005152,0.718268,0.658906,-0.253603,-0.436199,-4.068759,2.315371,-7.774944
1790549053.8716,0.038402,-0.014361,0.721714,0.037457,-0.011598,0.721714,0.577559,-0.053269,-0.035532,-0.504256,3.951291,-9.443825
1790549053.8855,0.024525,-0.011337,0.719054,0.028405,-0.011416,0.719054,-0.126644,1.069812,0.028817,-2.497311,4.769251,-15.226693
1790549053.8998,0.024506,-0.006469,0.714721,0.025675,-0.007953,0.714721,-0.330619,0.157991,0.286215,-6.828373,2.687171,-17.438931
1790549053.9140,0.017537,0.001953,0.711042,0.019978,-0.001019,0.711042,-0.595302,0.643648,0.348136,-3.762135,1.423051,-9.793126
1790549053.9281,0.006371,0.009856,0.715892,0.010453,0.006594,0.715892,-0.623228,0.700713,0.692953,-0.235960,0.270471,-6.183686
1790549053.9423,-0.000484,0.020856,0.728187,0.002797,0.016577,0.728187,-0.605016,0.529519,0.605535,-1.002520,1.608951,-3.389280
1790549053.9564,-0.001615,0.021831,0.731298,-0.000292,0.020255,0.731298,-0.124215,0.034149,0.671098,-1.232488,0.679451,-9.133336
1790549053.9704,0.000651,0.017416,0.745954,0.000368,0.018268,0.745954,0.331088,-0.332522,1.143399,-0.772552,1.608951,-9.676693
1790549053.9844,-0.010469,0.012982,0.761577,-0.007218,0.014568,0.761577,0.276452,0.553802,1.411725,0.032335,0.939711,-12.354665
1790549053.9988,-0.012106,0.009327,0.780025,-0.010640,0.010899,0.780025,0.254597,-0.066625,1.512499,-1.309144,1.497411,-9.831937
1790549054.0131,-0.014035,0.004045,0.789032,-0.013017,0.006101,0.789032,0.303163,0.056004,1.109404,-1.615768,0.419191,-9.327392
1790549054.0274,-0.022454,0.000712,0.798066,-0.019623,0.002329,0.798066,0.178106,0.422674,0.748803,0.875551,0.679451,-10.142427
1790549054.0415,-0.038278,-0.006895,0.806925,-0.032682,-0.004128,0.806925,0.451288,0.932614,0.754874,1.297159,0.121751,-8.240679
1790549054.0552,-0.047436,-0.014618,0.815712,-0.043010,-0.011471,0.815712,0.530207,0.561087,0.797369,0.223975,1.125611,-9.637881
1790549054.0689,-0.051530,-0.022571,0.824408,-0.048974,-0.019241,0.824408,0.599413,0.273335,0.623747,-0.734224,2.278191,-11.578441
1790549054.0829,-0.050540,-0.026643,0.828920,-0.050070,-0.024422,0.828920,0.259454,-0.015631,0.503547,-1.922392,1.237151,-11.345574
1790549054.0969,-0.044039,-0.025688,0.833950,-0.045848,-0.025308,0.833950,-0.138785,-0.520714,0.520545,-0.044320,0.642271,-13.557812
1790549054.1112,-0.033486,-0.018300,0.837657,-0.037195,-0.020402,0.837657,-0.612300,-0.835177,0.305641,1.143847,-0.026969,-12.665154
1790549054.1254,-0.025568,-0.008413,0.844531,-0.029056,-0.012010,0.844531,-0.818705,-0.731975,0.259504,2.408670,-0.621849,-10.646972
1790549054.1396,-0.015351,0.005224,0.862409,-0.019463,0.000053,0.862409,-0.993541,-1.011227,0.095595,2.178703,0.456371,-4.631238
1790549054.1538,0.000910,0.024218,0.877827,-0.005202,0.016968,0.877827,-1.246083,-1.371828,0.157516,1.488799,1.608951,-4.864105
1790549054.1679,0.024848,0.046771,0.890926,0.015833,0.037830,0.890926,-1.554475,-1.933975,0.064027,1.757095,1.757671,-6.532986
1790549054.1819,0.009198,0.044230,0.883675,0.011188,0.042310,0.883675,-0.081720,1.156016,-0.499335,2.485326,-4.153948,-21.281238
1790549054.1962,0.012029,0.035594,0.868968,0.011777,0.037609,0.868968,0.595771,0.025650,-1.045699,-1.194160,4.397451,-18.797322
1790549054.2103,0.024366,0.046508,0.863762,0.020589,0.043838,0.863762,-0.398611,-0.427225,-1.340735,-2.842263,6.442350,-3.932637
1790549054.2243,0.018946,0.049417,0.848145,0.019439,0.047743,0.848145,-0.204349,0.587798,-1.259388,0.453943,1.906391,-6.067252
1790549054.2384,0.011607,0.044782,0.829989,0.013956,0.045670,0.829989,0.298306,0.782060,-1.122190,-0.542584,2.055111,-8.978091
1790549054.2527,0.020541,0.043049,0.818006,0.018566,0.043835,0.818006,0.172035,-0.422368,-1.021416,-0.542584,3.876931,-10.918651
1790549054.2672,0.018654,0.040682,0.805602,0.018628,0.041628,0.805602,0.197532,0.307331,-0.940068,-0.159304,3.691031,-11.151518
1790549054.2812,0.012643,0.039289,0.791064,0.014438,0.039991,0.791064,0.093116,0.642434,-0.847794,-0.964192,2.612811,-10.569350
1790549054.2950,0.015643,0.040793,0.778068,0.015281,0.040553,0.778068,-0.061080,0.031721,-0.618321,-2.075704,2.649991,-8.201867
1790549054.3091,0.013394,0.037961,0.770734,0.013960,0.038739,0.770734,0.243670,0.308545,-0.243151,-1.730752,2.575631,-8.822846
1790549054.3232,0.016872,0.031729,0.763234,0.015998,0.033832,0.763234,0.488927,-0.056912,-0.033104,-3.493839,2.724351,-9.599070
1790549054.3375,0.021914,0.025677,0.766062,0.020140,0.028124,0.766062,0.577559,-0.243890,0.130805,-2.535639,3.876931,-8.279490
1790549054.3515,0.025066,0.016809,0.779236,0.023588,0.020203,0.779236,0.802175,-0.285170,0.516902,-1.117504,4.137191,-9.521448
1790549054.3654,0.022268,0.007128,0.790405,0.022664,0.011051,0.790405,0.819173,0.127638,0.769444,-1.500784,3.542311,-10.879840
1790549054.3794,0.015680,0.010143,0.800439,0.017775,0.010415,0.800439,-0.133928,0.386250,1.014700,-2.305671,3.542311,-14.101168
1790549054.3935,0.008364,0.016290,0.807864,0.011188,0.014528,0.807864,-0.350046,0.476097,1.234460,-3.302199,2.910251,-10.685784
1790549054.4076,-0.000679,0.012108,0.820026,0.002881,0.012834,0.820026,0.281308,0.459099,1.354660,-0.619240,0.753811,-7.386832
1790549054.4216,0.000212,0.009975,0.834148,0.001013,0.010832,0.834148,0.224244,-0.168613,1.431151,-0.964192,0.976891,-3.855014
1790549054.4355,-0.009888,0.005772,0.859878,-0.006618,0.007290,0.859878,0.316518,0.400820,1.539210,0.760567,1.051251,-7.115154
1790549054.4494,-0.018210,-0.003228,0.873037,-0.014732,-0.000073,0.873037,0.494997,0.355897,1.482145,0.300631,-1.328269,-12.936833
1790549054.4637,-0.017493,-0.010043,0.878682,-0.016665,-0.007052,0.878682,0.368726,-0.103049,1.346161,-2.842263,-0.324409,-11.423196
1790549054.4775,-0.019057,-0.016190,0.879922,-0.018339,-0.013448,0.879922,0.305591,0.151921,1.075408,-3.570495,-0.882109,-11.267951
1790549054.4916,-0.028872,-0.027437,0.886930,-0.025712,-0.023240,0.886930,0.660121,0.552588,0.967349,0.377287,-0.770569,-8.706413
1790549054.5074,-0.044107,-0.041226,0.900645,-0.038589,-0.035830,0.900645,0.842242,0.808772,0.790084,1.297159,0.790991,-9.521448
1790549054.5218,-0.059214,-0.048288,0.920374,-0.053027,-0.044550,0.920374,0.567846,0.894976,0.548470,1.603783,2.092291,-8.046623
1790549054.5365,-0.061732,-0.054847,0.920852,-0.059121,-0.051758,0.920852,0.436718,0.240553,0.312926,-1.347472,1.162791,-10.336483
1790549054.5513,-0.056056,-0.056141,0.922209,-0.056975,-0.054826,0.922209,0.046979,-0.395657,0.223080,0.185647,0.679451,-12.975644
1790549054.5667,-0.044870,-0.050228,0.926372,-0.048501,-0.051607,0.926372,-0.464175,-0.820607,0.102880,2.408670,-0.398769,-14.644525
1790549054.5806,-0.040691,-0.044456,0.937925,-0.043034,-0.046601,0.937925,-0.546737,-0.507358,0.119878,3.750150,-1.253909,-10.996273
1790549054.5943,-0.032397,-0.036696,0.952073,-0.035588,-0.039668,0.952073,-0.751927,-0.858245,0.108950,2.906934,-1.439808,-6.998721
1790549054.6084,-0.018071,-0.022476,0.970353,-0.023326,-0.027634,0.970353,-1.113741,-1.334189,0.280144,2.753622,-0.287229,-5.795574
1790549054.6223,0.004549,0.001556,0.980517,-0.003813,-0.007201,0.980517,-1.708671,-1.778565,0.258290,0.798895,1.125611,-6.183686
1790549054.6363,0.024983,0.029435,0.986573,0.016344,0.018444,0.986573,-2.202826,-1.572161,0.072526,0.645583,-1.402628,-6.921098
1790549054.6508,0.000815,0.038165,0.981154,0.005474,0.032248,0.981154,-0.840559,1.596750,-0.260149,4.861661,-3.633428,-19.107812
1790549054.6651,-0.003130,0.024169,0.959185,-0.000549,0.026593,0.959185,0.923589,0.754135,-1.482790,-7.364965,2.910251,-21.281238
1790549054.6791,0.014482,0.035182,0.944053,0.009973,0.032606,0.944053,-0.537024,-0.984516,-1.657626,0.032335,4.657711,-5.873196
1790549054.6932,0.006206,0.042600,0.932942,0.007336,0.039602,0.932942,-0.350046,0.612081,-1.095479,2.140375,3.691031,-5.679140
1790549054.7076,0.005831,0.037991,0.911031,0.006282,0.038474,0.911031,0.403937,0.425103,-1.123404,-2.650623,3.170511,-7.658511
1790549054.7215,0.023436,0.033198,0.889906,0.018290,0.034781,0.889906,0.408793,-0.776898,-1.178040,-4.758662,3.170511,-8.085434
1790549054.7354,0.030371,0.027798,0.876987,0.026747,0.029893,0.876987,0.456145,-0.257245,-1.178040,-0.772552,3.207691,-7.969000
1790549054.7490,0.029057,0.024706,0.870602,0.028364,0.026262,0.870602,0.289807,0.190773,-0.868434,0.453943,2.835891,-7.813756
1790549054.7630,0.032865,0.019099,0.860211,0.031515,0.021248,0.860211,0.419720,-0.086051,-0.557614,-1.960720,2.538451,-9.715504
1790549054.7775,0.034271,0.012269,0.857691,0.033444,0.014962,0.857691,0.565417,-0.001061,-0.160589,-1.577440,3.170511,-8.745224
1790549054.7915,0.034379,0.009627,0.858150,0.034099,0.011228,0.858150,0.310448,0.063288,0.088310,-1.769080,3.244871,-8.589979
1790549054.8055,0.025797,0.006000,0.859345,0.028288,0.007568,0.859345,0.326231,0.636363,0.367563,-2.957247,4.397451,-16.740329
1790549054.8194,0.017779,0.006454,0.858446,0.020932,0.006788,0.858446,-0.014942,0.624222,0.654100,-4.567022,2.687171,-16.313406
1790549054.8334,0.012785,0.010213,0.856841,0.015229,0.009185,0.856841,-0.291767,0.448171,0.952779,-4.643678,0.939711,-10.297672
1790549054.8473,0.001574,0.011564,0.863882,0.005671,0.010850,0.863882,-0.148498,0.687357,1.125187,-0.772552,0.344831,-6.921098
1790549054.8612,-0.001399,0.016966,0.874407,0.000722,0.015132,0.874407,-0.323335,0.326757,1.019557,-2.650623,1.311511,-4.786483
1790549054.8751,-0.004968,0.024136,0.907050,-0.003261,0.021434,0.907050,-0.249272,0.211414,1.063266,-1.654096,3.393591,-5.096972
1790549054.8891,-0.008843,0.013654,0.918828,-0.007169,0.015988,0.918828,0.673476,0.046290,1.376515,-0.350944,0.419191,-16.391028
1790549054.9031,-0.011356,0.004415,0.936336,-0.010100,0.007887,0.936336,0.610341,-0.076338,1.646054,-0.619240,1.125611,-17.400119
1790549054.9171,-0.019831,0.004868,0.964168,-0.016912,0.005774,0.964168,-0.053795,0.234482,1.676408,1.488799,0.976891,-8.939280
1790549054.9311,-0.016584,-0.001010,0.966010,-0.016682,0.001025,0.966010,0.266739,-0.262102,1.273313,-1.884064,-0.547489,-6.494175
1790549054.9451,-0.013305,-0.008020,0.966202,-0.014318,-0.005306,0.966202,0.419720,-0.185611,0.741518,-1.999048,0.158931,-7.231588
1790549054.9589,-0.027665,-0.015747,0.979045,-0.023661,-0.012615,0.979045,0.488927,0.806343,0.742733,2.255358,0.196111,-9.987182
1790549054.9725,-0.038838,-0.026515,0.983109,-0.034285,-0.022345,0.983109,0.742682,0.755349,0.649244,-0.044320,0.865351,-12.432287
1790549054.9861,-0.042697,-0.031126,0.995225,-0.040173,-0.028492,0.995225,0.407579,0.245410,0.549684,-0.350944,2.947431,-11.694875
1790549055.0001,-0.050422,-0.037015,1.003907,-0.047348,-0.034458,1.003907,0.431862,0.457885,0.397916,1.220503,1.608951,-10.918651
1790549055.0141,-0.040818,-0.037916,1.005324,-0.042777,-0.036879,1.005324,-0.000373,-0.713763,0.304427,-0.005993,0.382011,-10.841028
1790549055.0286,-0.028504,-0.037887,1.004475,-0.032786,-0.037585,1.004475,-0.106003,-0.889813,0.180585,0.377287,-0.510309,-11.617252
1790549055.0426,-0.021983,-0.034535,1.010181,-0.025224,-0.035450,1.010181,-0.403468,-0.634843,0.169658,2.638638,-1.700068,-10.685784
1790549055.0566,-0.016536,-0.023576,1.021220,-0.019142,-0.027138,1.021220,-0.907337,-0.616631,0.207296,3.060246,-0.844929,-9.172147
1790549055.0705,-0.006244,-0.007682,1.029383,-0.010113,-0.013519,1.029383,-1.297076,-0.955377,0.082239,2.408670,-0.882109,-7.774944
1790549055.0844,0.003881,0.015747,1.044447,-0.000317,0.006967,1.044447,-1.753594,-1.030654,-0.034318,2.715294,0.233291,-5.368651
1790549055.0983,0.019157,0.041400,1.048471,0.013315,0.031070,1.048471,-1.969711,-1.261341,-0.170302,1.450471,-0.175689,-5.562707
1790549055.1126,0.007969,0.035499,1.038080,0.009573,0.034170,1.038080,0.242456,0.812414,-0.653531,2.370342,-0.733389,-13.945924
1790549055.1267,0.018717,0.027166,1.029919,0.015974,0.029267,1.029919,0.685618,-0.500074,-0.868434,-4.145415,7.223130,-17.594175
1790549055.1408,0.009659,0.017369,1.014860,0.011554,0.020939,1.014860,0.746325,0.758992,-1.173184,1.527127,3.542311,-10.064805
1790549055.1554,0.002153,0.020699,1.006935,0.004973,0.020771,1.006935,0.051835,0.623008,-1.066339,0.722239,3.802571,-4.165504
1790549055.1694,0.008727,0.018255,0.991819,0.007601,0.019010,0.991819,0.096759,-0.207465,-0.917000,-1.807408,0.753811,-9.094525
1790549055.1833,0.008126,0.010375,0.977375,0.007969,0.012965,0.977375,0.515638,0.212628,-1.016559,-0.120976,1.088431,-8.163056
1790549055.1970,0.014250,0.007862,0.968063,0.012365,0.009393,0.968063,0.317732,-0.311882,-0.921856,-0.120976,3.430771,-7.580888
1790549055.2106,0.015881,0.001491,0.955485,0.014826,0.003862,0.955485,0.522922,0.089999,-0.821082,-1.462456,2.724351,-8.900469
1790549055.2242,0.020932,-0.007102,0.944734,0.019101,-0.003813,0.944734,0.700187,-0.138259,-0.581896,-2.765607,2.910251,-9.482637
1790549055.2382,0.023599,-0.015760,0.939371,0.022249,-0.012176,0.939371,0.683189,-0.058126,-0.277147,-2.114032,2.798711,-10.336483
1790549055.2522,0.027110,-0.025875,0.945820,0.025651,-0.021765,0.945820,0.910234,-0.201395,0.301999,-2.267343,4.657711,-10.297672
1790549055.2662,0.016362,-0.022985,0.952020,0.019149,-0.022619,0.952020,-0.086577,0.749279,0.416128,-1.577440,5.215411,-16.274595
1790549055.2807,0.015103,-0.018323,0.949617,0.016317,-0.019612,0.949617,-0.261413,0.239339,0.593393,-6.176798,3.021791,-13.208511
1790549055.2950,0.009335,-0.012625,0.951621,0.011430,-0.014721,0.951621,-0.413181,0.444529,0.849577,-2.727279,0.828171,-9.327392
1790549055.3090,0.001265,-0.008546,0.961341,0.004315,-0.010399,0.961341,-0.358545,0.429959,1.047482,-0.120976,0.010211,-5.252217
1790549055.3230,-0.000217,-0.001144,0.975197,0.001142,-0.003921,0.975197,-0.410753,0.128852,1.058410,-1.424128,1.348691,-4.010259
1790549055.3368,-0.005454,0.001982,0.991771,-0.003475,0.000211,0.991771,-0.139999,0.251480,1.116688,-0.810880,2.464091,-8.900469
1790549055.3507,-0.007367,-0.005665,1.001496,-0.006200,-0.003902,1.001496,0.441575,-0.026558,1.211391,-0.849208,-0.844929,-18.021098
1790549055.3646,-0.009342,-0.006055,1.013153,-0.008399,-0.005409,1.013153,0.008126,0.088785,1.392299,-2.573967,0.976891,-9.482637
1790549055.3786,-0.011562,-0.007281,1.023929,-0.010613,-0.006719,1.023929,-0.039225,-0.010774,1.332806,-0.542584,-0.696209,-9.831937
1790549055.3924,-0.016837,-0.016002,1.026824,-0.014970,-0.013217,1.026824,0.463430,0.306117,0.838650,-0.657568,-1.179549,-9.055714
1790549055.4064,-0.026617,-0.022153,1.037191,-0.023123,-0.019472,1.037191,0.430648,0.550159,0.645601,0.952207,0.976891,-8.240679
1790549055.4203,-0.039790,-0.029769,1.043852,-0.034790,-0.026680,1.043852,0.487712,0.816056,0.592179,0.952207,0.344831,-8.240679
1790549055.4340,-0.047129,-0.039809,1.047480,-0.043427,-0.035870,1.047480,0.679547,0.507664,0.544827,-0.312616,0.605091,-11.267951
1790549055.4476,-0.052425,-0.046329,1.055059,-0.049725,-0.043191,1.055059,0.515638,0.399606,0.480478,-0.695896,1.943571,-10.297672
1790549055.4615,-0.053404,-0.049174,1.058017,-0.052300,-0.047379,1.058017,0.169607,0.098498,0.419771,-0.887536,0.790991,-10.375294
1790549055.4754,-0.047941,-0.051170,1.061033,-0.049249,-0.050033,1.061033,0.084617,-0.404156,0.405201,-0.312616,0.456371,-12.315854
1790549055.4893,-0.036109,-0.048304,1.063401,-0.040051,-0.048823,1.063401,-0.320906,-0.918953,0.326282,0.837223,-0.807749,-13.402567
1790549055.5032,-0.025915,-0.039265,1.069431,-0.030156,-0.042132,1.069431,-0.759212,-0.886171,0.203654,2.676966,-0.770569,-12.587532
1790549055.5173,-0.022288,-0.023790,1.093240,-0.024649,-0.029293,1.093240,-1.167163,-0.578993,0.180585,3.750150,-0.101329,-6.765853
1790549055.5319,-0.010112,-0.004344,1.102773,-0.014473,-0.011828,1.102773,-1.460986,-1.058579,0.060385,1.948735,-0.398769,-5.562707
1790549055.5459,0.006986,0.017931,1.109557,0.000548,0.009003,1.109557,-1.678317,-1.414323,-0.039175,1.680439,0.084571,-5.912007
1790549055.5600,0.027179,0.045862,1.119739,0.019190,0.034804,1.119739,-1.928430,-1.655937,-0.053745,2.293686,2.055111,-7.231588
1790549055.5740,0.006870,0.040659,1.111997,0.010566,0.038903,1.111997,0.236385,1.451053,-0.396133,3.175230,0.344831,-21.281238
1790549055.5880,0.013980,0.028581,1.102395,0.012956,0.031677,1.102395,0.941802,-0.149186,-0.943711,-6.636734,6.814150,-17.671798
1790549055.6020,0.007108,0.023927,1.082057,0.008863,0.026252,1.082057,0.295878,0.711640,-1.395372,0.683911,2.575631,-12.975644
1790549055.6159,-0.001442,0.033605,1.079797,0.001650,0.031399,1.079797,-0.337904,0.705570,-1.290955,1.182175,3.876931,-3.039979
1790549055.6299,0.000348,0.035228,1.068735,0.000738,0.034079,1.068735,-0.175209,0.035363,-0.755519,-0.312616,0.753811,-6.300119
1790549055.6440,-0.001554,0.034214,1.052383,-0.000866,0.034174,1.052383,0.125898,0.559872,-0.649888,-2.420655,1.348691,-4.049070
1790549055.6577,-0.000036,0.031555,1.039160,-0.000285,0.032341,1.039160,0.287379,0.236911,-0.799228,-3.302199,3.505131,-8.861658
1790549055.6713,0.001582,0.031660,1.031037,0.001022,0.031864,1.031037,0.151395,0.167705,-0.703311,-2.612295,4.397451,-8.473546
1790549055.6849,0.001925,0.028549,1.024833,0.001654,0.029544,1.024833,0.297092,0.127638,-0.489622,-1.347472,3.542311,-10.879840
1790549055.6989,-0.000561,0.026083,1.024119,0.000103,0.027121,1.024119,0.242456,0.261194,0.088310,-2.037376,3.319231,-10.879840
1790549055.7129,0.010332,0.016698,1.027079,0.007263,0.019825,1.027079,0.776678,-0.644556,0.430698,-4.260399,3.356411,-9.443825
1790549055.7269,0.013502,0.004271,1.040923,0.011631,0.008937,1.040923,1.051074,-0.258459,0.658957,-1.807408,4.025651,-9.637881
1790549055.7408,0.021523,-0.003833,1.062883,0.018555,-0.000002,1.062883,0.819173,-0.657912,0.833793,-1.270816,4.323091,-8.046623
1790549055.7548,0.007888,-0.005657,1.094104,0.011088,-0.003960,1.094104,0.384510,0.723782,1.086335,1.067191,4.843611,-8.667602
1790549055.7690,-0.001492,0.000433,1.104761,0.002282,-0.000885,1.104761,-0.285696,0.604796,1.113046,-2.420655,4.471811,-11.539630
1790549055.7836,-0.007996,0.005167,1.115712,-0.004912,0.003352,1.115712,-0.234702,0.365610,1.410511,-2.842263,3.467951,-11.229140
1790549055.7976,-0.011995,-0.003342,1.114949,-0.009870,-0.001334,1.114949,0.510781,0.236911,1.423866,-2.075704,-0.026969,-7.386832
1790549055.8117,-0.018690,-0.005794,1.137570,-0.016044,-0.004456,1.137570,0.196318,0.233268,1.550137,0.070663,0.976891,-5.523895
1790549055.8257,-0.027858,-0.014044,1.154076,-0.024314,-0.011167,1.154076,0.442789,0.392321,1.557422,0.568927,-0.696209,-8.201867
1790549055.8399,-0.030188,-0.024146,1.159697,-0.028426,-0.020252,1.159697,0.545991,0.069359,1.412939,-1.807408,-1.439808,-12.626343
1790549055.8538,-0.032679,-0.032996,1.159526,-0.031403,-0.029173,1.159526,0.499854,0.211414,1.054767,-2.842263,-0.733389,-11.151518
1790549055.8679,-0.043203,-0.040686,1.165992,-0.039663,-0.037232,1.165992,0.451288,0.665503,0.972205,-0.235960,-0.064149,-10.724595
1790549055.8818,-0.052108,-0.050812,1.173982,-0.048375,-0.046738,1.173982,0.674690,0.582941,0.924854,-0.274288,0.530731,-8.473546
1790549055.8954,-0.060720,-0.059705,1.191845,-0.057017,-0.055815,1.191845,0.715971,0.524662,0.753660,0.683911,1.906391,-8.007811
1790549055.9091,-0.068401,-0.065698,1.211493,-0.064986,-0.062733,1.211493,0.556918,0.462741,0.486549,0.952207,2.389731,-7.619700
1790549055.9230,-0.065994,-0.069181,1.212606,-0.065691,-0.067246,1.212606,0.221815,-0.135831,0.407629,-1.040848,1.199971,-14.760958
1790549055.9370,-0.051897,-0.065444,1.215989,-0.056036,-0.065984,1.215989,-0.296623,-1.047652,0.117449,1.143847,0.902531,-15.770049
1790549055.9510,-0.047982,-0.057794,1.226752,-0.050398,-0.060251,1.226752,-0.629298,-0.457579,0.027603,4.171758,-0.621849,-13.286133
1790549055.9650,-0.041197,-0.051025,1.234681,-0.043957,-0.053793,1.234681,-0.646296,-0.667625,-0.058601,2.408670,-1.328269,-7.076343
1790549055.9788,-0.031252,-0.039143,1.253793,-0.035064,-0.043538,1.253793,-0.965616,-1.022155,0.093167,2.906934,-0.473129,-5.523895
1790549055.9928,-0.015163,-0.021857,1.274084,-0.021133,-0.028361,1.274084,-1.332287,-1.512668,0.197583,2.983590,-0.250049,-4.941727
1790549056.0068,0.010820,0.003826,1.280464,0.001234,-0.005830,1.280464,-1.910218,-1.943689,0.116235,0.338959,0.233291,-7.736133
1790549056.0208,0.031943,0.036779,1.292991,0.022730,0.023996,1.292991,-2.393447,-1.791921,0.030031,2.561982,0.679451,-6.688231
1790549056.0350,-0.002359,0.039599,1.277363,0.005167,0.034918,1.277363,-0.432607,2.472146,-0.813798,3.750150,-2.109048,-15.847672
1790549056.0491,-0.001163,0.035000,1.250686,0.000736,0.034975,1.250686,0.317732,0.361967,-1.303097,-7.211653,4.546171,-20.543826
1790549056.0631,0.001020,0.042160,1.229391,0.000935,0.040005,1.229391,-0.391326,0.092428,-1.644271,1.182175,5.215411,-10.646972
1790549056.0771,-0.010199,0.047392,1.214470,-0.006859,0.045176,1.214470,-0.228631,0.779632,-1.345592,3.481854,3.133331,-5.252217
1790549056.0910,-0.005612,0.038169,1.186372,-0.005986,0.040271,1.186372,0.440361,0.122781,-1.301883,-2.114032,-1.105189,-6.261308
1790549056.1052,0.012660,0.030846,1.162446,0.007066,0.033673,1.162446,0.643123,-0.863102,-1.146472,-3.302199,3.505131,-6.998721
1790549056.1189,0.012513,0.022920,1.146850,0.010879,0.026146,1.146850,0.646765,0.239339,-1.103978,-0.772552,3.914111,-10.646972
1790549056.1326,0.017018,0.017339,1.130026,0.015176,0.019981,1.130026,0.519280,-0.032629,-0.904858,-2.497311,3.876931,-8.784035
1790549056.1466,0.017414,0.010174,1.120337,0.016743,0.013116,1.120337,0.542349,0.114282,-0.618321,-1.079176,2.873071,-10.996273
1790549056.1606,0.021023,0.004027,1.113445,0.019739,0.006754,1.113445,0.515638,-0.122475,-0.337854,-1.769080,3.058971,-9.599070
1790549056.1745,0.020529,-0.000983,1.113102,0.020292,0.001338,1.113102,0.464644,0.093642,0.101666,-2.152360,4.323091,-12.820399
1790549056.1884,0.011397,-0.001172,1.111265,0.014065,-0.000419,1.111265,0.060334,0.728638,0.474407,-4.260399,3.579491,-16.080539
1790549056.2024,0.007337,0.003881,1.108922,0.009355,0.002591,1.108922,-0.346403,0.425103,0.815581,-5.946830,1.943571,-11.966553
1790549056.2165,-0.003257,0.007641,1.111410,0.000527,0.006126,1.111410,-0.339118,0.731067,0.955207,-1.769080,0.196111,-8.279490
1790549056.2303,-0.003807,0.009188,1.116649,-0.002507,0.008269,1.116649,-0.161854,0.062074,1.077836,-2.152360,0.382011,-6.067252
1790549056.2443,0.000931,0.009248,1.135166,-0.000101,0.008955,1.135166,0.111328,-0.416298,1.143399,-1.347472,1.943571,-5.756762
1790549056.2582,-0.009350,0.006442,1.173093,-0.006575,0.007196,1.173093,0.306805,0.318258,1.604773,2.332014,2.649991,-9.133336
1790549056.2724,-0.018431,0.001867,1.192722,-0.014874,0.003466,1.192722,0.264310,0.382608,1.758970,-0.465928,0.642271,-12.509909
1790549056.2867,-0.023923,-0.006950,1.212785,-0.021208,-0.003825,1.212785,0.499854,0.136137,1.927735,-0.734224,-0.361589,-9.987182
1790549056.3008,-0.024305,-0.013319,1.226596,-0.023376,-0.010471,1.226596,0.376011,-0.022916,1.638769,-2.918919,0.344831,-9.055714
1790549056.3147,-0.034250,-0.019565,1.231733,-0.030988,-0.016837,1.231733,0.316518,0.678858,1.102119,-1.654096,-0.510309,-9.521448
1790549056.3287,-0.049134,-0.026616,1.240722,-0.043690,-0.023682,1.240722,0.413650,0.920473,0.900571,0.875551,0.084571,-10.064805
1790549056.3426,-0.056449,-0.033323,1.253500,-0.052621,-0.030431,1.253500,0.484070,0.412961,0.826508,0.453943,1.534591,-8.939280
1790549056.3562,-0.066245,-0.040090,1.264859,-0.062158,-0.037192,1.264859,0.497426,0.610866,0.722092,0.952207,1.534591,-9.987182
1790549056.3698,-0.068132,-0.047427,1.266406,-0.066340,-0.044357,1.266406,0.471929,0.178632,0.487763,-1.117504,0.493551,-11.035084
1790549056.3837,-0.066553,-0.052991,1.267573,-0.066489,-0.050401,1.267573,0.312876,-0.081195,0.453767,-0.887536,0.047391,-10.530539
1790549056.3975,-0.057745,-0.053072,1.270237,-0.060369,-0.052270,1.270237,-0.115716,-0.680981,0.431912,0.377287,-0.696209,-12.820399
1790549056.4115,-0.042647,-0.048434,1.276345,-0.047963,-0.049585,1.276345,-0.433821,-1.199419,0.303213,1.872079,-0.473129,-12.432287
1790549056.4254,-0.034650,-0.036124,1.294819,-0.038644,-0.040162,1.294819,-0.946189,-0.832748,0.280144,3.520182,0.047391,-8.745224
1790549056.4393,-0.025169,-0.019692,1.312571,-0.029212,-0.025833,1.312571,-1.320145,-0.963876,0.193940,2.983590,-0.770569,-6.688231
1790549056.4532,-0.011315,0.001828,1.331082,-0.016684,-0.006470,1.331082,-1.657677,-1.322048,0.156302,2.446998,-0.175689,-4.864105
1790549056.4671,0.004560,0.027069,1.341911,-0.001813,0.017007,1.341911,-1.930859,-1.393682,0.031245,1.795423,-0.138509,-4.864105
1790549056.4810,0.020446,0.053621,1.347072,0.013768,0.042637,1.347072,-1.963640,-1.297765,-0.109595,1.143847,0.567911,-5.252217
1790549056.4949,0.005843,0.037631,1.339959,0.008221,0.039133,1.339959,1.070501,1.117164,-0.320856,0.300631,1.906391,-21.281238
1790549056.5089,0.012751,0.019226,1.327511,0.011392,0.025198,1.327511,1.398319,-0.133403,-0.981349,-5.525222,5.810290,-14.760958
1790549056.5230,0.015187,0.031941,1.333311,0.014049,0.029918,1.333311,-0.426537,-0.025344,-1.025058,0.262303,8.821870,-3.428091
1790549056.5375,0.008676,0.032324,1.311030,0.010288,0.031602,1.311030,-0.155783,0.772347,-1.067553,-2.305671,0.307651,-10.724595
1790549056.5516,0.013918,0.027962,1.292815,0.012829,0.029054,1.292815,0.271595,0.032935,-0.706953,-3.148887,0.902531,-5.717951
1790549056.5657,0.016317,0.027250,1.285213,0.015271,0.027791,1.285213,0.131969,0.020793,-0.589181,-1.615768,3.207691,-8.628791
1790549056.5795,0.015521,0.025863,1.279964,0.015446,0.026441,1.279964,0.235171,0.223555,-0.590395,-1.309144,4.434631,-9.366203
1790549056.5946,0.016009,0.025576,1.270974,0.015840,0.025836,1.270974,0.136825,0.206557,-0.530902,-3.033903,4.434631,-9.405014
1790549056.6092,0.012301,0.023614,1.267595,0.013363,0.024280,1.267595,0.193890,0.344969,-0.215226,-1.155832,3.021791,-9.754315
1790549056.6235,0.010078,0.020921,1.268271,0.011063,0.021929,1.268271,0.265524,0.230840,0.298357,-2.497311,3.058971,-9.831937
1790549056.6375,0.014171,0.014873,1.271831,0.013239,0.016989,1.271831,0.519280,-0.234176,0.456195,-3.570495,3.876931,-12.548721
1790549056.6522,0.015044,0.005675,1.282697,0.014502,0.009069,1.282697,0.779106,-0.054483,0.555755,-2.152360,4.062831,-9.366203
1790549056.6660,0.016189,0.001658,1.300812,0.015683,0.003882,1.300812,0.570274,-0.083623,0.791298,-2.305671,4.992331,-7.542077
1790549056.6796,0.008519,0.000716,1.314296,0.010669,0.001666,1.314296,0.147753,0.433602,0.927282,-0.657568,3.207691,-13.169700
1790549056.6937,0.005477,0.003029,1.321364,0.007035,0.002620,1.321364,-0.107217,0.182274,1.194393,-3.263871,2.575631,-11.539630
1790549056.7078,0.004450,0.000236,1.334473,0.005225,0.000951,1.334473,0.238813,-0.047199,1.443293,-2.152360,1.906391,-10.646972
1790549056.7217,-0.004362,-0.002653,1.351009,-0.001486,-0.001572,1.351009,0.190248,0.415390,1.610844,-0.350944,0.493551,-5.834385
1790549056.7356,-0.007986,-0.010388,1.363258,-0.006036,-0.007743,1.363258,0.471929,0.085143,1.698262,-0.810880,-0.101329,-6.261308
1790549056.7496,-0.008969,-0.016938,1.378184,-0.008089,-0.014180,1.378184,0.437933,-0.067839,1.738329,-1.309144,0.493551,-6.959909
1790549056.7634,-0.016001,-0.025476,1.392354,-0.013627,-0.022088,1.392354,0.492569,0.293975,1.514927,0.223975,-1.105189,-13.907112
1790549056.7777,-0.021254,-0.033590,1.397624,-0.018966,-0.030139,1.397624,0.440361,0.318258,1.210177,-2.190688,-1.068009,-13.363756
1790549056.7921,-0.030587,-0.041661,1.409004,-0.027101,-0.038204,1.409004,0.498640,0.538018,1.193179,-0.350944,0.307651,-11.927742
1790549056.8061,-0.042401,-0.049887,1.430199,-0.037811,-0.046382,1.430199,0.578773,0.637578,1.227175,1.105519,0.939711,-7.930189
1790549056.8197,-0.050878,-0.058155,1.447940,-0.046958,-0.054623,1.447940,0.641908,0.501594,0.989203,0.453943,1.534591,-7.852567
1790549056.8334,-0.058520,-0.062754,1.468526,-0.055052,-0.060315,1.468526,0.451288,0.456670,0.700238,0.645583,2.278191,-7.270399
1790549056.8472,-0.057549,-0.070532,1.464744,-0.056800,-0.067467,1.464744,0.399080,-0.010774,0.547256,-1.999048,-2.034688,-15.110259
1790549056.8612,-0.052502,-0.068118,1.469515,-0.053791,-0.067923,1.469515,-0.210419,-0.427225,0.225508,1.642111,0.642271,-15.575993
1790549056.8751,-0.045887,-0.062273,1.472744,-0.048258,-0.063968,1.472744,-0.500599,-0.563209,0.085882,2.293686,-0.510309,-14.838581
1790549056.8890,-0.038868,-0.056070,1.494167,-0.041685,-0.058440,1.494167,-0.651153,-0.799967,-0.000322,3.826806,-2.146228,-6.727042
1790549056.9029,-0.025808,-0.045957,1.504430,-0.030571,-0.049702,1.504430,-0.764068,-1.107145,0.170872,1.258831,0.270471,-5.213406
1790549056.9169,-0.010287,-0.028902,1.523075,-0.016372,-0.035142,1.523075,-1.199945,-1.364543,0.350565,1.872079,0.828171,-5.485084
1790549056.9308,0.008824,-0.003672,1.535241,0.001265,-0.013113,1.535241,-1.909004,-1.600086,0.198797,2.523654,-0.175689,-9.327392
1790549056.9447,0.019520,0.024451,1.541217,0.014043,0.013182,1.541217,-2.202826,-0.971161,-0.187300,3.481854,-1.253909,-10.414105
1790549056.9586,-0.009755,0.014306,1.532425,-0.002616,0.013969,1.532425,0.518066,2.062980,-0.484765,5.359925,-3.224448,-21.281238
1790549056.9725,0.007669,0.010709,1.507575,0.004583,0.011687,1.507575,0.325017,-0.738045,-1.386873,-7.326637,4.174371,-11.966553
1790549056.9864,0.003508,0.020945,1.503460,0.003831,0.018168,1.503460,-0.447177,0.275763,-1.133117,3.251886,6.367990,-6.571797
1790549057.0002,-0.004722,0.026741,1.494546,-0.002156,0.024169,1.494546,-0.150926,0.581727,-1.066339,1.373815,2.575631,-2.962357
1790549057.0142,0.009210,0.018211,1.474005,0.005800,0.019998,1.474005,0.508353,-0.674910,-0.903644,-3.493839,0.307651,-11.112707
1790549057.0282,0.025296,0.012700,1.455700,0.019447,0.014890,1.455700,0.465858,-0.838819,-0.910929,-3.225543,3.319231,-9.249770
1790549057.0421,0.025481,0.008612,1.447292,0.023671,0.010495,1.447292,0.325017,0.082715,-0.819868,0.185647,2.389731,-8.318301
1790549057.0558,0.028302,0.007695,1.432474,0.026913,0.008535,1.432474,0.197532,0.057218,-0.601323,-2.497311,3.356411,-7.153965
1790549057.0698,0.031938,0.000788,1.419095,0.030430,0.003112,1.419095,0.518066,-0.042342,-0.478694,-2.650623,2.241011,-9.016902
1790549057.0838,0.038289,-0.007177,1.411315,0.035931,-0.004091,1.411315,0.660121,-0.270601,-0.224939,-2.803935,2.910251,-8.473546
1790549057.0979,0.029040,-0.006277,1.414825,0.031108,-0.005621,1.414825,0.101615,0.694642,0.108950,-1.769080,5.550031,-12.082986
1790549057.1119,0.020951,-0.002391,1.408589,0.023998,-0.003360,1.408589,-0.267484,0.687357,0.304427,-5.065286,3.021791,-17.943476
1790549057.1259,0.016620,0.003897,1.398489,0.018833,0.001720,1.398489,-0.505456,0.488238,0.474407,-6.215126,0.605091,-13.169700
1790549057.1399,0.011862,0.003998,1.398041,0.013953,0.003314,1.398041,-0.099932,0.327971,0.716021,-1.539112,-0.175689,-8.163056
1790549057.1537,0.005756,0.007740,1.409025,0.008215,0.006413,1.409025,-0.178852,0.387464,0.850791,-0.772552,1.385871,-4.786483
1790549057.1677,0.001731,0.005003,1.413065,0.003677,0.005426,1.413065,0.102829,0.216270,0.962492,-1.117504,-0.138509,-7.503266
1790549057.1815,-0.001821,-0.002400,1.426943,-0.000172,-0.000052,1.426943,0.487712,0.056004,1.227175,-0.044320,0.456371,-11.112707
1790549057.1956,-0.012627,-0.007090,1.446167,-0.008890,-0.004979,1.446167,0.325017,0.525877,1.419010,0.530599,1.274331,-11.733686
1790549057.2096,-0.015105,-0.009982,1.460277,-0.013240,-0.008481,1.460277,0.162322,0.092428,1.537996,-2.535639,0.716631,-10.452916
1790549057.2234,-0.008499,-0.021131,1.469961,-0.009922,-0.017336,1.469961,0.612769,-0.463649,1.246602,-3.225543,-1.923148,-9.172147
1790549057.2374,-0.015021,-0.025937,1.480099,-0.013491,-0.023356,1.480099,0.269167,0.329185,1.048696,-0.044320,0.010211,-9.754315
1790549057.2514,-0.033661,-0.028926,1.493652,-0.027610,-0.027255,1.493652,0.204817,1.164515,0.973420,0.722239,0.865351,-7.348021
1790549057.2652,-0.040202,-0.035427,1.501945,-0.036424,-0.032975,1.501945,0.423363,0.444529,0.935781,-1.002520,0.642271,-8.861658
1790549057.2789,-0.044964,-0.039734,1.512612,-0.042402,-0.037706,1.512612,0.325017,0.292761,0.779157,-0.312616,1.460231,-8.900469
1790549057.2931,-0.047731,-0.039345,1.516538,-0.046133,-0.038854,1.516538,-0.138785,0.187131,0.712379,-1.117504,-0.361589,-11.539630
1790549057.3073,-0.044582,-0.040260,1.526756,-0.045047,-0.039838,1.526756,-0.045296,-0.347092,0.901785,0.875551,-0.361589,-16.701518
1790549057.3213,-0.038242,-0.030034,1.537312,-0.040284,-0.032975,1.537312,-0.730072,-0.560781,0.524187,1.105519,1.943571,-13.208511
1790549057.3353,-0.034560,-0.019106,1.558395,-0.036277,-0.023266,1.558395,-0.870913,-0.549853,0.405201,2.983590,-0.175689,-7.270399
1790549057.3493,-0.022763,-0.003800,1.581943,-0.026818,-0.009640,1.581943,-0.981400,-1.074363,0.297142,1.335487,1.460231,-4.204315
1790549057.3633,-0.005833,0.013228,1.609996,-0.012129,0.006368,1.609996,-1.068818,-1.492028,0.255862,1.412143,1.608951,-3.660958
1790549057.3773,0.015188,0.035378,1.631601,0.006993,0.026675,1.631601,-1.496196,-1.782208,0.343280,2.600310,2.984611,-9.210958
1790549057.3912,0.019376,0.059860,1.639606,0.015661,0.049905,1.639606,-1.759665,-0.445437,0.098023,1.872079,2.389731,-12.277042
1790549057.4052,-0.003609,0.048591,1.626423,0.002172,0.048985,1.626423,0.571488,1.757017,-0.597680,1.488799,-3.001368,-20.815504
1790549057.4191,0.016243,0.040713,1.611290,0.012021,0.043194,1.611290,0.824030,-0.963876,-1.380802,-4.950302,7.929550,-8.978091
1790549057.4330,0.015227,0.046071,1.614903,0.014266,0.045208,1.614903,0.029981,0.245410,-1.190182,0.338959,5.029511,-2.884734
1790549057.4469,0.002410,0.043828,1.606008,0.005966,0.044242,1.606008,0.082189,0.990893,-1.057840,1.987063,1.051251,-8.163056
1790549057.4609,0.002450,0.040345,1.588854,0.003505,0.041514,1.588854,0.207246,0.245410,-0.800442,-1.500784,1.534591,-9.521448
1790549057.4748,0.006949,0.041284,1.573070,0.005916,0.041353,1.573070,-0.025870,-0.065411,-0.920642,-1.884064,3.728211,-11.811308
1790549057.4887,0.001668,0.039926,1.556774,0.002942,0.040354,1.556774,0.122256,0.623008,-0.977707,-0.964192,3.133331,-10.802217
1790549057.5023,-0.000061,0.045050,1.535998,0.000840,0.043641,1.535998,-0.246844,0.495523,-0.881790,-2.535639,3.542311,-7.115154
1790549057.5161,-0.001134,0.049355,1.519941,-0.000542,0.047641,1.519941,-0.197064,0.387464,-0.655959,-2.535639,3.616671,-7.813756
1790549057.5300,0.000099,0.044419,1.509620,-0.000093,0.045385,1.509620,0.355371,0.073002,-0.228581,-2.075704,2.241011,-10.142427
1790549057.5444,0.006654,0.034268,1.502912,0.004630,0.037604,1.502912,0.735397,-0.320381,0.004534,-2.957247,2.724351,-10.763406
1790549057.5585,0.009104,0.028202,1.512217,0.007762,0.031022,1.512217,0.570274,-0.195324,0.343280,-1.155832,4.062831,-9.521448
1790549057.5723,0.006388,0.023533,1.529743,0.006800,0.025780,1.529743,0.451288,0.019579,0.649244,0.568927,3.282051,-9.599070
1790549057.5862,0.011460,0.010368,1.540890,0.010062,0.014992,1.540890,0.994010,-0.481861,0.922426,-1.309144,2.426911,-11.694875
1790549057.6002,0.014157,0.000308,1.563112,0.012928,0.004713,1.563112,0.913876,-0.359233,1.117903,-0.695896,3.765391,-8.512357
1790549057.6142,0.006177,0.001091,1.578364,0.008202,0.002177,1.578364,0.033623,0.422674,1.230818,-1.309144,3.542311,-13.751868
1790549057.6282,0.004710,0.000683,1.593562,0.005758,0.001131,1.593562,0.087045,-0.048413,1.562279,-2.190688,2.538451,-12.587532
1790549057.6421,0.001268,-0.002695,1.609085,0.002615,-0.001547,1.609085,0.294664,0.091214,1.710404,-1.884064,1.869211,-9.870749
1790549057.6562,-0.007148,-0.006760,1.624558,-0.004219,-0.005196,1.624558,0.178106,0.369252,1.740757,-0.312616,-0.398769,-5.523895
1790549057.6701,-0.006548,-0.014590,1.636837,-0.005849,-0.011772,1.636837,0.468286,-0.195324,1.666695,-1.002520,-0.250049,-6.532986
1790549057.6840,-0.011969,-0.020588,1.656384,-0.010133,-0.017943,1.656384,0.391795,0.171347,1.700691,-0.312616,0.456371,-9.172147
1790549057.6979,-0.018368,-0.027233,1.658979,-0.015898,-0.024446,1.658979,0.386939,0.496737,1.307309,-4.796990,-0.250049,-14.372847
1790549057.7120,-0.026598,-0.028959,1.662584,-0.023388,-0.027606,1.662584,0.034837,0.559872,0.977062,-1.807408,-0.026969,-12.587532
1790549057.7260,-0.030083,-0.035303,1.664751,-0.028074,-0.032994,1.664751,0.352943,0.227198,0.730591,-1.155832,-0.287229,-12.354665
1790549057.7395,-0.039536,-0.038081,1.687270,-0.036097,-0.036555,1.687270,0.257025,0.479739,0.736662,1.488799,1.385871,-6.688231
1790549057.7532,-0.043404,-0.045211,1.688264,-0.041212,-0.042614,1.688264,0.456145,0.297618,0.576395,-0.695896,0.233291,-7.270399
1790549057.7672,-0.048872,-0.054155,1.698580,-0.046574,-0.050693,1.698580,0.654050,0.309759,0.569110,0.607255,1.497411,-9.987182
1790549057.7813,-0.041401,-0.049515,1.705945,-0.042953,-0.049868,1.705945,-0.325763,-0.593562,0.270431,1.220503,2.055111,-16.546273
1790549057.7960,-0.030762,-0.037417,1.715887,-0.034419,-0.041152,1.715887,-0.875769,-0.852175,0.170872,2.753622,0.382011,-14.722147
1790549057.8101,-0.028474,-0.025926,1.758877,-0.030258,-0.030494,1.758877,-0.946189,-0.583849,0.079811,3.175230,-0.733389,-3.816203
1790549057.8242,-0.018592,-0.010231,1.784047,-0.022092,-0.016310,1.784047,-1.136810,-1.058579,0.153874,1.718767,0.270471,-2.845923
1790549057.8383,0.001204,0.006033,1.802435,-0.005785,-0.000670,1.802435,-1.191446,-1.702074,0.215795,2.102047,0.530731,-5.485084
1790549057.8522,0.024179,0.026957,1.815271,0.015190,0.018669,1.815271,-1.524121,-1.827131,0.203654,1.948735,1.423051,-12.859210
1790549057.8663,-0.000545,0.022585,1.803637,0.004175,0.021410,1.803637,0.128326,1.849291,-0.592824,1.527127,-1.662888,-21.281238
1790549057.8802,0.014274,0.017088,1.780564,0.011244,0.018384,1.780564,0.427005,-0.697979,-0.880575,-6.636734,4.360271,-15.692427
1790549057.8941,0.015951,0.016033,1.755190,0.014539,0.016739,1.755190,-0.047724,0.249052,-1.054198,-1.577440,0.121751,-4.631238
1790549057.9081,0.004403,0.016166,1.737559,0.007444,0.016338,1.737559,0.077332,1.060099,-1.170755,-0.197632,1.311511,-3.234035
1790549057.9221,0.005480,0.014171,1.723258,0.006069,0.014821,1.723258,0.165965,0.132494,-0.866006,-0.772552,1.571771,-6.222497
1790549057.9361,0.008891,0.010826,1.706268,0.008044,0.012025,1.706268,0.300734,0.031721,-0.942497,-2.075704,2.947431,-8.978091
1790549057.9501,0.011086,0.006432,1.691193,0.010173,0.008109,1.691193,0.376011,0.071787,-1.055412,-1.270816,3.319231,-10.103616
1790549057.9636,0.017445,0.004999,1.677245,0.015263,0.005932,1.677245,0.224244,-0.198966,-0.892717,-2.190688,3.579491,-8.240679
1790549057.9773,0.021491,0.000524,1.667753,0.019623,0.002147,1.667753,0.372369,-0.135831,-0.651103,-1.462456,2.910251,-10.452916
1790549057.9912,0.025490,-0.007200,1.658214,0.023730,-0.004396,1.658214,0.604270,-0.099407,-0.237080,-2.650623,2.241011,-8.589979
1790549058.0050,0.033932,-0.016803,1.649967,0.030871,-0.013081,1.649967,0.765751,-0.384730,-0.019749,-4.758662,2.984611,-10.297672
1790549058.0190,0.031855,-0.021133,1.658002,0.031560,-0.018717,1.658002,0.539920,0.233268,0.050672,-2.650623,6.256450,-10.802217
1790549058.0331,0.025592,-0.023524,1.661595,0.027382,-0.022082,1.661595,0.263096,0.466384,0.278930,-1.960720,3.876931,-13.868301
1790549058.0474,0.014462,-0.020742,1.661031,0.018338,-0.021144,1.661031,-0.170353,0.817271,0.617676,-3.417183,2.278191,-14.722147
1790549058.0614,0.012854,-0.017553,1.660201,0.014499,-0.018630,1.660201,-0.250486,0.164062,0.881145,-3.263871,0.790991,-10.724595
1790549058.0754,0.010011,-0.015906,1.662029,0.011358,-0.016723,1.662029,-0.159425,0.202915,0.981919,-1.922392,0.307651,-7.852567
1790549058.0894,0.010959,-0.015721,1.671278,0.011079,-0.016022,1.671278,-0.017371,-0.140688,1.193179,-1.117504,0.530731,-6.067252
1790549058.1033,0.009071,-0.021218,1.691044,0.009674,-0.019659,1.691044,0.391795,-0.101835,1.387442,0.377287,0.567911,-9.055714
1790549058.1173,-0.003050,-0.025757,1.712739,0.000767,-0.023928,1.712739,0.295878,0.601153,1.591418,0.875551,0.270471,-10.918651
1790549058.1313,-0.006799,-0.028536,1.725112,-0.004529,-0.027154,1.725112,0.134397,0.190773,1.669123,-2.880591,-0.026969,-12.082986
1790549058.1452,-0.004939,-0.036583,1.733709,-0.004816,-0.033754,1.733709,0.462215,-0.190467,1.391084,-2.535639,-1.179549,-12.509909
1790549058.1590,-0.014553,-0.043359,1.743726,-0.011632,-0.040478,1.743726,0.431862,0.581727,1.077836,-0.159304,0.084571,-9.366203
1790549058.1729,-0.032194,-0.047025,1.761824,-0.026026,-0.045061,1.761824,0.272809,1.074669,0.994060,1.258831,1.051251,-8.473546
1790549058.1865,-0.039397,-0.054183,1.769850,-0.035385,-0.051446,1.769850,0.537492,0.536804,0.813153,-1.002520,1.162791,-8.046623
1790549058.2001,-0.048012,-0.061100,1.789931,-0.044224,-0.058204,1.789931,0.572702,0.467598,0.746375,1.488799,1.869211,-8.667602
1790549058.2137,-0.052391,-0.065767,1.797778,-0.049941,-0.063498,1.797778,0.352943,0.298832,0.622533,-0.235960,1.460231,-10.569350
1790549058.2275,-0.048151,-0.068105,1.807804,-0.048688,-0.066723,1.807804,0.127112,-0.385944,0.695381,0.798895,0.865351,-14.877392
1790549058.2415,-0.040197,-0.063874,1.813614,-0.042745,-0.064729,1.813614,-0.387684,-0.642128,0.465908,0.837223,-0.287229,-13.169700
1790549058.2553,-0.033805,-0.059936,1.824863,-0.036487,-0.061374,1.824863,-0.413181,-0.627558,0.482906,2.293686,-1.216729,-11.190329
1790549058.2692,-0.023806,-0.052014,1.845200,-0.027610,-0.054822,1.845200,-0.620799,-0.980874,0.378490,2.178703,0.084571,-6.028441
1790549058.2833,-0.013108,-0.036675,1.879097,-0.017459,-0.042119,1.879097,-1.102814,-1.149640,0.566682,3.251886,0.382011,-5.601518
1790549058.2979,0.003334,-0.011665,1.893717,-0.002904,-0.020801,1.893717,-1.756022,-1.312335,0.512046,1.603783,0.456371,-10.025993
1790549058.3120,0.016878,0.018251,1.905955,0.010943,0.006535,1.905955,-2.239251,-1.181207,0.191512,2.600310,-0.361589,-10.452916
1790549058.3261,0.005956,0.028225,1.903086,0.007452,0.021718,1.903086,-0.901266,0.724996,-0.313571,2.446998,-1.737248,-14.023546
1790549058.3400,-0.011990,0.022019,1.893882,-0.006157,0.021929,1.893882,0.518066,1.339352,-0.824725,2.140375,3.691031,-10.685784
1790549058.3540,0.012094,0.029042,1.879510,0.006618,0.026908,1.879510,-0.226203,-1.419179,-1.099121,-2.957247,7.892370,-9.210958
1790549058.3678,0.001752,0.025434,1.879520,0.003212,0.025876,1.879520,0.379654,0.658218,-1.067553,2.868606,2.612811,-5.174595
1790549058.3818,0.009281,0.022865,1.861571,0.007460,0.023768,1.861571,0.215745,-0.275457,-1.063911,-1.500784,2.687171,-9.521448
1790549058.3957,0.015932,0.019331,1.854557,0.013391,0.020662,1.854557,0.181749,-0.393229,-0.676599,0.147319,0.939711,-10.258860
1790549058.4097,0.017583,0.017278,1.838931,0.016325,0.018293,1.838931,0.169607,0.108212,-0.829581,-1.232488,1.943571,-7.192776
1790549058.4233,0.018420,0.019328,1.824743,0.017792,0.019017,1.824743,-0.033155,0.177418,-0.539401,-2.267343,3.430771,-7.852567
1790549058.4369,0.019462,0.018474,1.810772,0.018961,0.018637,1.810772,0.141682,0.170133,-0.421630,-3.033903,3.244871,-9.094525
1790549058.4508,0.023666,0.015264,1.803812,0.022254,0.016276,1.803812,0.325017,-0.143116,-0.105953,-2.880591,3.505131,-9.754315
1790549058.4647,0.019868,0.014697,1.805963,0.020584,0.015171,1.805963,0.236385,0.335256,0.198797,-1.539112,3.839751,-7.076343
1790549058.4785,0.015719,0.016167,1.813999,0.017178,0.015868,1.813999,0.072476,0.268478,0.614034,-1.500784,4.285911,-9.133336
1790549058.4925,0.010924,0.017312,1.818421,0.012800,0.016879,1.818421,0.116185,0.378965,0.635888,-3.110559,5.624391,-10.491728
1790549058.5065,0.014084,0.006783,1.823138,0.013699,0.009812,1.823138,0.831315,-0.243890,0.669884,-2.727279,3.765391,-13.868301
1790549058.5205,0.007434,0.007997,1.839321,0.009314,0.008541,1.839321,0.134397,0.378965,0.994060,-1.424128,4.992331,-9.288581
1790549058.5344,0.000648,0.014860,1.850482,0.003248,0.012964,1.850482,-0.317264,0.425103,1.183466,-1.922392,3.505131,-7.542077
1790549058.5493,-0.002035,0.008741,1.868012,-0.000450,0.010008,1.868012,0.363870,-0.048413,1.462719,-0.389272,0.344831,-8.784035
1790549058.5638,-0.005064,0.002280,1.891937,-0.003680,0.004598,1.891937,0.473143,-0.061768,1.642412,-0.082648,1.199971,-7.309210
1790549058.5777,-0.020777,-0.004121,1.927506,-0.015648,-0.001506,1.927506,0.453716,0.707998,1.842745,2.102047,1.051251,-9.521448
1790549058.5917,-0.023781,-0.012888,1.941348,-0.021341,-0.009474,1.941348,0.516852,0.058432,1.737115,-1.539112,-0.250049,-10.491728
1790549058.6057,-0.026750,-0.020250,1.947997,-0.025127,-0.017017,1.947997,0.413650,0.154349,1.304880,-2.305671,-0.361589,-12.626343
1790549058.6201,-0.038499,-0.024280,1.953040,-0.034487,-0.022101,1.953040,0.197532,0.777204,1.038983,-1.232488,0.196111,-9.715504
1790549058.6341,-0.047792,-0.031225,1.963047,-0.043800,-0.028488,1.963047,0.446432,0.557444,0.859290,0.262303,0.716631,-9.405014
1790549058.6479,-0.053603,-0.037371,1.976170,-0.050662,-0.034706,1.976170,0.484070,0.315830,0.801011,0.338959,1.683311,-7.542077
1790549058.6616,-0.064669,-0.044195,1.990341,-0.060467,-0.041348,1.990341,0.488927,0.652147,0.635888,1.757095,1.423051,-10.491728
1790549058.6771,-0.064913,-0.050378,1.997452,-0.063579,-0.047669,1.997452,0.374797,-0.033843,0.490191,0.492271,1.311511,-13.014455
1790549058.6923,-0.059130,-0.049597,2.004059,-0.060465,-0.049018,2.004059,-0.103575,-0.433296,0.403987,0.683911,0.642271,-13.130889
1790549058.7068,-0.047591,-0.045417,2.011828,-0.051453,-0.046497,2.011828,-0.413181,-0.884957,0.264361,1.488799,-1.068009,-12.509909
1790549058.7213,-0.034422,-0.038453,2.023441,-0.039531,-0.040866,2.023441,-0.606230,-1.046437,0.264361,1.910407,-0.956469,-10.608161
1790549058.7364,-0.024454,-0.025964,2.048389,-0.028977,-0.030435,2.048389,-0.951046,-0.949306,0.254647,3.443526,-0.844929,-7.386832
1790549058.7503,-0.013315,-0.007063,2.070961,-0.018014,-0.014075,2.070961,-1.437917,-1.130213,0.261932,3.060246,0.121751,-6.571797
1790549058.7639,0.002447,0.017248,2.084937,-0.003691,0.007851,2.084937,-1.902933,-1.385183,0.047029,1.948735,-0.138509,-6.571797
1790549058.7779,0.016536,0.047414,2.097801,0.010468,0.035546,2.097801,-2.253820,-1.252842,-0.135092,2.983590,0.084571,-7.425644
1790549058.7921,-0.004729,0.049095,2.090444,-0.000170,0.045030,2.090444,-0.301480,1.537257,-0.691169,4.516709,-1.253909,-21.281238
1790549058.8063,0.018656,0.035563,2.053827,0.013008,0.038403,2.053827,1.072929,-1.141141,-1.157400,-9.664644,7.446210,-14.838581
1790549058.8203,0.003002,0.037528,2.040839,0.006004,0.037791,2.040839,0.083403,1.124449,-1.084551,3.251886,5.587211,-6.882287
1790549058.8343,-0.014370,0.043739,2.024174,-0.008258,0.041955,2.024174,-0.217704,1.307784,-1.156186,1.527127,2.984611,-3.971448
1790549058.8482,-0.008023,0.043089,2.002428,-0.008094,0.042749,2.002428,0.016625,-0.123690,-0.878147,-2.957247,1.757671,-11.112707
1790549058.8622,-0.009485,0.039970,1.985877,-0.009068,0.040804,1.985877,0.219387,0.342541,-0.893931,-0.887536,1.943571,-9.288581
1790549058.8760,-0.006748,0.042170,1.961571,-0.007444,0.041760,1.961571,-0.010086,0.138565,-0.923070,-2.190688,3.988471,-7.891378
1790549058.8896,-0.001991,0.043778,1.942642,-0.003627,0.043172,1.942642,-0.005229,-0.062982,-0.767660,-2.190688,3.876931,-9.016902
1790549058.9032,-0.001090,0.044692,1.921807,-0.001851,0.044236,1.921807,0.067619,0.266050,-0.629248,-3.033903,3.988471,-8.163056
1790549058.9171,-0.001165,0.044885,1.919003,-0.001371,0.044690,1.919003,0.157466,0.082715,-0.124165,-1.002520,4.769251,-8.861658
1790549058.9311,0.008713,0.038997,1.906165,0.005688,0.040705,1.906165,0.508353,-0.470934,0.036102,-5.716862,4.583351,-12.044175
1790549058.9452,0.009534,0.028631,1.912656,0.008380,0.032253,1.912656,0.934517,-0.069053,0.406415,-1.462456,4.917971,-9.016902
1790549058.9591,0.006898,0.023751,1.923995,0.007342,0.026301,1.923995,0.606698,0.147064,0.598250,-1.424128,5.735931,-8.589979
1790549058.9730,0.005379,0.016476,1.930866,0.005968,0.019424,1.930866,0.617626,0.040220,0.740304,-1.309144,3.319231,-10.491728
1790549058.9870,0.004416,0.006955,1.939429,0.004882,0.010695,1.939429,0.773036,-0.015631,0.980704,-1.730752,3.282051,-11.423196
1790549059.0008,-0.001877,0.006457,1.951000,0.000151,0.007729,1.951000,0.155037,0.344969,1.151898,-1.692424,4.174371,-12.315854
1790549059.0149,-0.004075,0.004869,1.960557,-0.002807,0.005727,1.960557,0.146538,0.056004,1.457862,-2.229015,1.906391,-9.987182
1790549059.0288,-0.007490,0.000908,1.973003,-0.006085,0.002354,1.973003,0.286165,0.104569,1.584133,-1.424128,1.088431,-8.046623
1790549059.0428,-0.012086,-0.003874,1.993265,-0.010286,-0.002006,1.993265,0.303163,0.088785,1.609630,-0.120976,0.382011,-5.795574
1790549059.0571,-0.008307,-0.013013,2.011510,-0.008901,-0.009711,2.011510,0.618840,-0.450294,1.508856,-0.427600,0.530731,-5.717951
1790549059.0711,-0.017720,-0.021961,2.043671,-0.015075,-0.018286,2.043671,0.583630,0.331614,1.609630,1.948735,0.196111,-11.384385
1790549059.0852,-0.023208,-0.028821,2.052279,-0.020768,-0.025661,2.052279,0.382082,0.332828,1.238103,-2.382327,-0.621849,-15.420749
1790549059.0992,-0.033631,-0.034031,2.064143,-0.029772,-0.031520,2.064143,0.269167,0.633935,1.091191,-0.235960,-0.435949,-13.829490
1790549059.1129,-0.040576,-0.041856,2.070345,-0.037335,-0.038755,2.070345,0.467072,0.470026,0.858076,-0.695896,-0.287229,-9.987182
1790549059.1265,-0.052833,-0.047090,2.086941,-0.048184,-0.044589,2.086941,0.386939,0.731067,0.830151,1.105519,1.125611,-7.619700
1790549059.1406,-0.058358,-0.054585,2.088082,-0.055306,-0.051586,2.088082,0.533850,0.429959,0.505975,-0.734224,1.014071,-7.619700
1790549059.1544,-0.058821,-0.063895,2.095035,-0.057767,-0.060202,2.095035,0.593343,-0.031415,0.403987,0.760567,-0.101329,-9.909560
1790549059.1684,-0.047608,-0.063817,2.097253,-0.050656,-0.062733,2.097253,-0.058652,-0.806037,0.213367,-0.044320,0.419191,-17.865854
1790549059.1823,-0.041513,-0.057501,2.114255,-0.044256,-0.059071,2.114255,-0.595302,-0.612989,0.159944,3.558510,-1.885968,-13.441378
1790549059.1962,-0.037751,-0.049114,2.135978,-0.039702,-0.052101,2.135978,-0.782280,-0.498859,0.085882,3.558510,-1.997508,-9.793126
1790549059.2101,-0.034670,-0.033295,2.195204,-0.036180,-0.038937,2.195204,-1.260652,-0.791468,0.230365,4.401726,-0.547489,-3.195224
1790549059.2239,-0.013495,-0.010639,2.197719,-0.020301,-0.019128,2.197719,-1.691673,-1.517525,0.090738,-0.389272,0.344831,-5.601518
1790549059.2378,0.011299,0.017745,2.208051,0.001819,0.006683,2.208051,-2.132406,-1.926691,-0.126593,0.837223,0.158931,-4.708860
1790549059.2517,0.015216,0.040292,2.216230,0.011197,0.030210,2.216230,-1.718384,-0.434510,-0.146019,4.823333,1.014071,-19.884036
1790549059.2654,0.002007,0.032833,2.190086,0.004764,0.032046,2.190086,0.526565,1.342994,-0.654745,-8.093197,3.951291,-19.340679
1790549059.2793,0.017173,0.023382,2.172910,0.013451,0.025981,2.172910,0.663763,-0.833963,-1.256959,-1.845736,3.802571,-18.253966
1790549059.2934,-0.005639,0.020786,2.163061,0.000088,0.022344,2.163061,0.425791,1.404915,-1.235105,5.091629,3.876931,-2.613056
1790549059.3078,-0.008440,0.030947,2.133235,-0.005882,0.028366,2.133235,-0.594088,0.548945,-1.113691,-1.539112,2.538451,-5.950818
1790549059.3218,-0.011528,0.028339,2.124558,-0.009834,0.028347,2.124558,0.076118,0.354682,-0.703311,-0.044320,0.158931,-9.443825
1790549059.3358,-0.011304,0.026758,2.098582,-0.010863,0.027235,2.098582,0.306805,0.296404,-0.912143,-1.845736,4.174371,-7.153965
1790549059.3494,-0.012436,0.026078,2.081028,-0.011964,0.026425,2.081028,0.173250,0.310973,-0.838080,-1.002520,3.542311,-8.551168
1790549059.3630,-0.008165,0.025997,2.056051,-0.009305,0.026125,2.056051,0.161108,0.051147,-0.725165,-3.302199,3.914111,-7.813756
1790549059.3768,-0.010083,0.022109,2.042119,-0.009849,0.023314,2.042119,0.349300,0.337684,-0.433771,-2.190688,3.505131,-11.267951
1790549059.3907,-0.008807,0.020304,2.030692,-0.009120,0.021207,2.030692,0.269167,0.115496,-0.059815,-3.685479,4.694891,-10.375294
1790549059.4046,0.002551,0.007464,2.025075,-0.000951,0.011587,2.025075,0.966084,-0.690694,0.214581,-4.107087,3.207691,-13.480189
1790549059.4185,0.005309,-0.002611,2.034958,0.003431,0.001649,2.034958,0.996438,-0.181968,0.378490,-1.577440,5.512851,-7.930189
1790549059.4327,0.005777,-0.008356,2.045187,0.005073,-0.005355,2.045187,0.593343,-0.077552,0.716021,-1.500784,4.843611,-10.181238
1790549059.4466,-0.003054,-0.005638,2.052111,-0.000616,-0.005553,2.052111,-0.030726,0.621794,0.962492,-2.650623,4.992331,-11.617252
1790549059.4606,-0.004704,-0.003331,2.059230,-0.003477,-0.003998,2.059230,-0.106003,0.081501,1.302452,-3.455511,3.021791,-12.859210
1790549059.4745,-0.003997,-0.009336,2.070835,-0.003841,-0.007734,2.070835,0.399080,-0.163756,1.485788,-1.769080,0.605091,-9.676693
1790549059.4884,-0.009934,-0.011005,2.089938,-0.008106,-0.010024,2.089938,0.151395,0.228412,1.598703,-0.427600,1.125611,-6.571797
1790549059.5024,-0.014790,-0.019174,2.100703,-0.012785,-0.016429,2.100703,0.430648,0.280620,1.561064,-2.229015,-1.216729,-9.094525
1790549059.5165,-0.017357,-0.030816,2.116807,-0.015985,-0.026500,2.116807,0.674690,0.043862,1.455434,-0.887536,-1.402628,-10.258860
1790549059.5304,-0.022523,-0.043100,2.122828,-0.020561,-0.038120,2.122828,0.758466,0.369252,1.034127,-2.458983,-1.179549,-13.441378
1790549059.5445,-0.034434,-0.047664,2.129731,-0.030272,-0.044800,2.129731,0.269167,0.802701,0.854434,-0.580912,0.344831,-10.724595
1790549059.5589,-0.045053,-0.056430,2.136728,-0.040619,-0.052941,2.136728,0.516852,0.687357,0.771872,-0.235960,-0.250049,-10.297672
1790549059.5726,-0.052513,-0.066002,2.147589,-0.048945,-0.062084,2.147589,0.697759,0.449386,0.628603,0.760567,0.976891,-8.589979
1790549059.5862,-0.059438,-0.073304,2.154377,-0.056290,-0.069938,2.154377,0.593343,0.500380,0.502332,-0.159304,1.794851,-8.628791
1790549059.6003,-0.058925,-0.082281,2.156741,-0.058135,-0.078578,2.156741,0.538706,-0.007132,0.514474,-0.734224,-0.584669,-10.530539
1790549059.6143,-0.053124,-0.083555,2.163189,-0.054627,-0.082062,2.163189,0.026338,-0.447865,0.507189,0.377287,0.010211,-14.256413
1790549059.6283,-0.045811,-0.081202,2.177643,-0.048456,-0.081460,2.177643,-0.294195,-0.668839,0.407629,2.676966,-1.588528,-13.208511
1790549059.6421,-0.044083,-0.075407,2.197805,-0.045395,-0.077223,2.197805,-0.540666,-0.337379,0.433126,3.060246,-1.179549,-10.064805
1790549059.6562,-0.037789,-0.066087,2.245818,-0.040071,-0.069428,2.245818,-0.896410,-0.852175,0.298357,3.213558,-1.774428,-4.204315
1790549059.6707,-0.025709,-0.047835,2.268132,-0.030018,-0.054313,2.268132,-1.333501,-1.119286,0.346922,2.178703,-0.026969,-5.096972
1790549059.6846,-0.007745,-0.022221,2.280926,-0.014427,-0.031849,2.280926,-1.889578,-1.461674,0.246148,1.028863,0.270471,-5.252217
1790549059.6985,0.017929,0.008401,2.292559,0.008222,-0.003674,2.292559,-2.275675,-1.981327,0.203654,0.913879,0.233291,-9.909560
1790549059.7125,0.028749,0.028030,2.302771,0.022591,0.018519,2.302771,-1.545976,-0.934736,-0.136306,4.478381,-1.291089,-18.680889
1790549059.7266,0.008243,0.017577,2.288908,0.012547,0.017859,2.288908,0.601842,1.642887,-0.759161,-1.232488,0.084571,-21.281238
1790549059.7406,0.035917,0.019213,2.256537,0.028906,0.018807,2.256537,0.106472,-1.394896,-1.386873,-8.476477,7.557750,-7.736133
1790549059.7546,0.023357,0.026686,2.260972,0.025022,0.024323,2.260972,-0.345189,0.732281,-0.884218,3.328542,3.653851,-4.631238
1790549059.7686,0.020510,0.022185,2.244069,0.021863,0.022826,2.244069,0.305591,0.445743,-0.832010,-1.539112,1.869211,-8.589979
1790549059.7826,0.026559,0.023378,2.231438,0.025150,0.023213,2.231438,0.025124,-0.248746,-0.628034,-1.347472,3.244871,-7.503266
1790549059.7966,0.028171,0.021267,2.214358,0.027265,0.021850,2.214358,0.127112,0.142208,-0.787086,-2.190688,1.906391,-9.249770
1790549059.8108,0.029272,0.023451,2.194884,0.028670,0.022971,2.194884,-0.000373,0.245410,-0.772517,-3.148887,4.508991,-7.697322
1790549059.8246,0.028486,0.022508,2.183750,0.028541,0.022647,2.183750,0.122256,0.230840,-0.530902,-1.692424,3.170511,-9.715504
1790549059.8386,0.020999,0.021745,2.177544,0.023262,0.022016,2.177544,0.186605,0.647291,-0.177587,-1.577440,4.137191,-9.094525
1790549059.8526,0.029858,0.019556,2.178231,0.027879,0.020294,2.178231,0.361442,-0.547425,0.328710,-3.148887,5.029511,-9.094525
1790549059.8665,0.033705,0.009444,2.180994,0.031957,0.012699,2.180994,0.875024,-0.243890,0.518116,-3.263871,4.732071,-12.005364
1790549059.8804,0.036218,0.000818,2.191370,0.034940,0.004382,2.191370,0.899307,-0.175898,0.798583,-2.995575,5.810290,-8.978091
1790549059.8944,0.022909,0.001066,2.207522,0.026518,0.002061,2.207522,0.264310,0.852481,0.979490,-1.385800,5.921830,-9.210958
1790549059.9091,0.016422,0.004255,2.213789,0.019451,0.003596,2.213789,-0.130286,0.411747,1.196822,-3.647151,3.058971,-12.044175
1790549059.9233,0.016014,0.004792,2.224069,0.017045,0.004434,2.224069,0.063977,-0.038700,1.358303,-3.187215,3.021791,-11.112707
1790549059.9377,0.005905,0.003101,2.243562,0.009247,0.003501,2.243562,0.169607,0.477311,1.409297,-0.120976,1.051251,-5.756762
1790549059.9517,0.000012,-0.001090,2.265724,0.002782,0.000287,2.265724,0.271595,0.151921,1.578062,0.108991,0.382011,-7.464455
1790549059.9657,-0.006086,-0.014236,2.288856,-0.003426,-0.009879,2.288856,0.824030,0.165276,1.556208,0.338959,-0.696209,-8.046623
1790549059.9800,-0.013029,-0.025256,2.301099,-0.010148,-0.020643,2.301099,0.683189,0.383822,1.366802,-1.615768,-0.398769,-11.927742
1790549059.9940,-0.019240,-0.032139,2.302313,-0.016512,-0.028690,2.302313,0.422149,0.529519,1.004987,-4.030431,0.121751,-11.772497
1790549060.0080,-0.030239,-0.038976,2.309990,-0.026121,-0.035890,2.309990,0.419720,0.723782,0.866575,-0.465928,0.121751,-11.927742
1790549060.0220,-0.042847,-0.048324,2.327800,-0.037829,-0.044594,2.327800,0.697759,0.715283,0.782799,1.373815,1.460231,-8.046623
1790549060.0358,-0.052198,-0.056576,2.339402,-0.047888,-0.052981,2.339402,0.640694,0.582941,0.682025,0.530599,1.385871,-7.115154
1790549060.0496,-0.056270,-0.063605,2.345214,-0.053755,-0.060418,2.345214,0.566632,0.279406,0.462266,-0.082648,1.757671,-8.085434
1790549060.0639,-0.053736,-0.070755,2.349690,-0.053742,-0.067654,2.349690,0.451288,-0.196538,0.417343,0.070663,0.456371,-14.683336
1790549060.0782,-0.041282,-0.067973,2.353813,-0.045020,-0.067877,2.353813,-0.260199,-0.887385,0.299571,0.108991,-0.064149,-16.196973
1790549060.0925,-0.034576,-0.060660,2.367751,-0.037709,-0.062825,2.367751,-0.653581,-0.631201,0.191512,2.446998,-1.514168,-10.181238
1790549060.1066,-0.028125,-0.050803,2.396390,-0.031000,-0.054410,2.396390,-0.846630,-0.787825,0.146589,3.826806,-1.216729,-6.959909
1790549060.1207,-0.017183,-0.034349,2.425949,-0.021328,-0.040368,2.425949,-1.284935,-1.159353,0.309284,3.596838,-0.547489,-5.950818
1790549060.1350,0.003782,-0.012371,2.440095,-0.003751,-0.020770,2.440095,-1.617610,-1.646224,0.178157,1.182175,-0.026969,-5.640329
1790549060.1491,0.020824,0.015832,2.461995,0.013451,0.004851,2.461995,-2.086269,-1.598872,0.037316,2.945262,0.047391,-4.631238
1790549060.1633,0.034083,0.047049,2.480906,0.027894,0.034390,2.480906,-2.257463,-1.326904,0.132019,2.255358,0.158931,-3.660958
1790549060.1774,0.006171,0.048141,2.468651,0.012687,0.044016,2.468651,-0.178852,2.151613,-0.454411,-1.654096,2.055111,-21.281238
1790549060.1914,0.031843,0.036785,2.440474,0.026096,0.038954,2.440474,0.786391,-1.360900,-1.034771,-12.922523,3.914111,-21.281238
1790549060.2054,0.031837,0.031739,2.419711,0.030115,0.033904,2.419711,0.369941,0.208985,-1.627273,2.178703,6.219270,-16.973196
1790549060.2193,0.021200,0.045997,2.375758,0.023875,0.042369,2.375758,-0.528525,0.933828,-1.367446,0.913879,4.062831,-0.517252
1790549060.2333,0.031012,0.046638,2.344265,0.028871,0.045357,2.344265,-0.137571,-0.164970,-0.915785,-2.573967,0.307651,-3.544525
1790549060.2472,0.034346,0.041503,2.324050,0.032703,0.042659,2.324050,0.297092,0.110640,-0.732450,-2.995575,1.051251,-7.658511
1790549060.2608,0.030841,0.038184,2.305957,0.031400,0.039526,2.305957,0.363870,0.558658,-0.761589,-2.267343,3.802571,-7.425644
1790549060.2745,0.030816,0.043084,2.292291,0.030991,0.042017,2.292291,-0.141213,0.286691,-0.706953,-2.650623,5.810290,-7.774944
1790549060.2883,0.027862,0.044973,2.279622,0.028801,0.044086,2.279622,-0.076864,0.420246,-0.465339,-2.267343,3.691031,-10.181238
1790549060.3025,0.019315,0.052360,2.279372,0.022160,0.049878,2.279372,-0.220132,0.741994,-0.127807,-1.692424,5.550031,-5.679140
1790549060.3176,0.030446,0.037562,2.273273,0.027961,0.041257,2.273273,0.932088,-0.621488,0.335995,-4.950302,0.902531,-12.548721
1790549060.3316,0.028218,0.031731,2.289204,0.028141,0.034589,2.289204,0.726898,0.087571,0.628603,-1.117504,5.029511,-6.261308
1790549060.3456,0.018842,0.031960,2.303573,0.021632,0.032749,2.303573,0.153823,0.506450,0.866575,-0.389272,4.955151,-11.190329
1790549060.3598,0.013026,0.033255,2.310729,0.015608,0.033103,2.310729,0.000841,0.324329,1.003773,-2.382327,3.802571,-12.471098
1790549060.3739,0.014398,0.028516,2.323176,0.014761,0.029892,2.323176,0.467072,-0.229320,1.258743,-2.075704,3.505131,-9.793126
1790549060.3879,0.005912,0.028679,2.339072,0.008566,0.029043,2.339072,0.100401,0.408105,1.389870,-0.695896,2.129471,-6.649420
1790549060.4018,0.002155,0.024886,2.350896,0.004078,0.026133,2.350896,0.241242,0.105783,1.411725,-1.155832,0.605091,-7.309210
1790549060.4159,0.001091,0.017576,2.373139,0.001987,0.020143,2.373139,0.524137,-0.209894,1.436008,0.108991,0.865351,-6.338930
1790549060.4302,-0.008481,0.010764,2.400504,-0.005341,0.013577,2.400504,0.430648,0.327971,1.540424,1.105519,0.419191,-9.599070
1790549060.4441,-0.010367,0.002664,2.413658,-0.008859,0.005938,2.413658,0.499854,0.000153,1.487002,-2.075704,0.047391,-12.044175
1790549060.4580,-0.014032,-0.003317,2.419193,-0.012480,-0.000541,2.419193,0.366298,0.244196,1.123973,-2.918919,0.493551,-12.005364
1790549060.4720,-0.019637,-0.007742,2.424684,-0.017490,-0.005582,2.424684,0.232743,0.353468,0.794941,-1.117504,0.121751,-10.646972
1790549060.4861,-0.029217,-0.018007,2.437278,-0.025699,-0.014279,2.437278,0.634624,0.521020,0.623747,0.952207,-0.101329,-8.046623
1790549060.4999,-0.041545,-0.026214,2.454763,-0.036791,-0.022633,2.454763,0.646765,0.688572,0.584894,1.680439,1.683311,-7.425644
1790549060.5137,-0.043754,-0.032968,2.455459,-0.041665,-0.029868,2.455459,0.524137,0.187131,0.334781,-0.657568,1.608951,-8.007811
1790549060.5278,-0.037993,-0.039603,2.461245,-0.039095,-0.036682,2.461245,0.412436,-0.460007,0.346922,0.377287,0.493551,-14.139979
1790549060.5419,-0.029745,-0.034527,2.467478,-0.032550,-0.035174,2.467478,-0.435036,-0.645771,0.300785,0.530599,0.158931,-14.955014
1790549060.5563,-0.022316,-0.026436,2.482730,-0.025386,-0.029057,2.482730,-0.703361,-0.679767,0.309284,2.370342,-1.439808,-12.432287
1790549060.5705,-0.017629,-0.017120,2.510473,-0.019956,-0.020701,2.510473,-0.788351,-0.654270,0.232793,3.290214,-0.696209,-6.882287
1790549060.5845,-0.007604,0.000650,2.534379,-0.011310,-0.005756,2.534379,-1.310432,-1.041581,0.189084,2.906934,0.530731,-6.183686
1790549060.5985,0.004610,0.020786,2.560968,-0.000166,0.012824,2.560968,-1.510765,-1.262555,0.226722,3.175230,0.233291,-5.601518
1790549060.6126,0.027802,0.047217,2.574299,0.019411,0.036899,2.574299,-1.933287,-1.811347,0.003320,0.683911,0.307651,-3.932637
1790549060.6268,0.012268,0.051898,2.577327,0.014411,0.047399,2.577327,-0.503028,1.007891,-0.374278,4.286742,-0.621849,-15.731238
1790549060.6410,0.002261,0.038035,2.557989,0.005906,0.040844,2.557989,0.901735,1.015176,-0.885432,-3.877119,2.092291,-19.379490
1790549060.6553,0.022185,0.039425,2.541578,0.017301,0.039851,2.541578,-0.028298,-1.223702,-1.498574,1.373815,3.951291,-9.754315
1790549060.6694,0.010115,0.041936,2.529154,0.012271,0.041310,2.529154,-0.184922,0.893762,-1.267887,3.673494,2.910251,-9.715504
1790549060.6838,0.014516,0.043173,2.504562,0.013843,0.042614,2.504562,-0.025870,0.025650,-1.074838,-1.884064,2.947431,-7.969000
1790549060.6978,0.024620,0.040180,2.488607,0.021387,0.040911,2.488607,0.201175,-0.463649,-0.861149,-1.654096,1.869211,-8.279490
1790549060.7118,0.029881,0.036179,2.462454,0.027333,0.037598,2.462454,0.401508,-0.021702,-0.969208,-2.497311,3.616671,-7.231588
1790549060.7256,0.030327,0.034612,2.444226,0.029429,0.035508,2.444226,0.223029,0.200486,-0.868434,-1.347472,4.137191,-8.706413
1790549060.7395,0.029747,0.034791,2.429829,0.029652,0.035006,2.429829,0.080975,0.225983,-0.677814,-1.194160,3.839751,-8.978091
1790549060.7541,0.025947,0.033234,2.417491,0.027058,0.033765,2.417491,0.179320,0.421460,-0.319642,-1.884064,3.356411,-9.249770
1790549060.7693,0.031656,0.029376,2.408427,0.030276,0.030693,2.408427,0.345658,-0.229320,0.090738,-3.723807,3.728211,-10.297672
1790549060.7839,0.033460,0.016227,2.408766,0.032505,0.020567,2.408766,0.981868,-0.100621,0.480478,-3.033903,3.616671,-12.587532
1790549060.7989,0.027393,0.017536,2.408642,0.028926,0.018445,2.408642,-0.000373,0.459099,0.819224,-4.873646,3.505131,-12.509909
1790549060.8149,0.017170,0.025583,2.416380,0.020697,0.023441,2.416380,-0.416823,0.585369,1.114260,-3.072231,3.021791,-10.685784
1790549060.8293,0.010372,0.023147,2.424956,0.013469,0.023235,2.424956,0.059120,0.414175,1.210177,-2.229015,-0.584669,-7.813756
1790549060.8432,0.009019,0.021462,2.438491,0.010354,0.021994,2.438491,0.165965,-0.043556,1.380157,-1.232488,1.199971,-6.222497
1790549060.8572,0.000982,0.017154,2.461695,0.003794,0.018606,2.461695,0.321375,0.258765,1.443293,0.453943,0.828171,-5.873196
1790549060.8713,-0.006405,0.011101,2.480557,-0.003345,0.013352,2.480557,0.390581,0.290333,1.457862,-0.389272,0.790991,-11.811308
1790549060.8852,-0.012038,0.004835,2.499556,-0.009430,0.007390,2.499556,0.367512,0.193202,1.548923,-0.849208,0.010211,-11.888930
1790549060.8990,-0.010522,-0.002236,2.515863,-0.010194,0.000652,2.515863,0.417292,-0.231748,1.504000,-2.037376,-0.175689,-10.258860
1790549060.9130,-0.015906,-0.009355,2.527650,-0.014193,-0.006353,2.527650,0.414864,0.295190,1.121545,-1.309144,-0.175689,-10.375294
1790549060.9269,-0.026735,-0.016291,2.541009,-0.022973,-0.013310,2.541009,0.435504,0.603582,0.835007,0.913879,0.382011,-9.366203
1790549060.9409,-0.038781,-0.025668,2.551278,-0.034038,-0.021961,2.551278,0.626125,0.734709,0.696595,0.760567,0.605091,-9.016902
1790549060.9543,-0.050942,-0.032701,2.563916,-0.045871,-0.029479,2.563916,0.556918,0.724996,0.618890,1.718767,1.832031,-8.939280
1790549060.9680,-0.055845,-0.039328,2.566068,-0.052853,-0.036373,2.566068,0.499854,0.383822,0.417343,-0.849208,1.794851,-10.802217
1790549060.9820,-0.052780,-0.043818,2.568278,-0.052802,-0.041585,2.568278,0.291021,-0.205037,0.285001,-0.542584,1.014071,-12.354665
1790549060.9959,-0.047589,-0.041602,2.574888,-0.049153,-0.041597,2.574888,-0.260199,-0.456364,0.164801,1.795423,-0.584669,-14.489280
1790549061.0098,-0.043653,-0.036897,2.585198,-0.045303,-0.038307,2.585198,-0.486030,-0.423583,0.163587,2.408670,-1.328269,-11.617252
1790549061.0238,-0.034511,-0.029019,2.595800,-0.037748,-0.031805,2.595800,-0.724001,-0.801181,0.026389,2.178703,-1.291089,-9.133336
1790549061.0378,-0.028820,-0.013856,2.620255,-0.031499,-0.019241,2.620255,-1.156236,-0.795110,0.074954,3.941790,0.084571,-5.407462
1790549061.0516,-0.013221,0.007572,2.632110,-0.018705,-0.000472,2.632110,-1.605469,-1.356044,-0.051316,2.600310,0.493551,-7.076343
1790549061.0657,0.008478,0.028525,2.642763,0.000323,0.019826,2.642763,-1.561759,-1.744569,-0.131450,2.063719,0.493551,-6.959909
1790549061.0799,0.030201,0.053160,2.650502,0.021237,0.043159,2.650502,-1.621252,-1.744569,-0.079242,1.297159,1.646131,-4.049070
1790549061.0939,0.008709,0.044876,2.648960,0.012468,0.044361,2.648960,0.369941,1.559111,-0.369422,1.910407,-1.997508,-17.283686
1790549061.1078,0.029585,0.024087,2.624305,0.024450,0.030169,2.624305,1.511234,-0.954163,-0.980135,-9.204708,2.761531,-10.569350
1790549061.1217,0.038163,0.014410,2.608730,0.034049,0.019138,2.608730,0.688046,-0.503716,-1.408727,2.523654,4.583351,-15.692427
1790549061.1357,0.034074,0.017035,2.591920,0.034067,0.017666,2.591920,-0.131500,0.343755,-1.377159,2.293686,3.430771,-7.813756
1790549061.1496,0.038400,0.016211,2.583123,0.037100,0.016648,2.583123,0.026338,-0.254817,-0.886646,0.760567,1.646131,-8.124245
1790549061.1635,0.048604,0.013626,2.555949,0.045152,0.014532,2.555949,0.350514,-0.324023,-0.952210,-2.842263,3.058971,-4.786483
1790549061.1771,0.056698,0.008630,2.531663,0.053234,0.010401,2.531663,0.486498,-0.211108,-1.067553,-2.880591,3.282051,-6.067252
1790549061.1906,0.059866,0.004976,2.511079,0.057876,0.006603,2.511079,0.395438,0.051147,-1.106406,-2.037376,4.248731,-7.542077
1790549061.2042,0.065097,-0.000507,2.493990,0.062931,0.001626,2.493990,0.413650,-0.156471,-1.033557,-2.152360,3.467951,-11.035084
1790549061.2181,0.051909,-0.001954,2.478882,0.055215,-0.000880,2.478882,0.151395,1.114735,-0.785872,-1.654096,4.880791,-13.092077
1790549061.2320,0.039398,0.004840,2.466086,0.044143,0.003124,2.466086,-0.529739,1.083168,-0.411917,-3.723807,2.612811,-16.507462
1790549061.2459,0.033614,0.016842,2.451654,0.036773,0.012726,2.451654,-0.919478,0.732281,-0.220082,-7.326637,1.534591,-13.790679
1790549061.2598,0.029290,0.028234,2.439272,0.031535,0.023581,2.439272,-0.881840,0.598725,-0.189729,-4.643678,0.902531,-9.599070
1790549061.2738,0.023388,0.035982,2.429145,0.025832,0.032262,2.429145,-0.558878,0.665503,-0.125379,-2.497311,1.311511,-6.144874
1790549061.2878,0.024033,0.035134,2.429319,0.024573,0.034272,2.429319,0.147753,-0.020487,-0.099882,-0.350944,2.055111,-5.756762
