t,imu_roll,imu_pitch,imu_yaw,lpf_roll,lpf_pitch,lpf_yaw,gyro_x,gyro_y,gyro_z,acc_x,acc_y,acc_z
1790547836.0196,-0.003903,-0.019780,-0.007704,-0.002732,-0.013846,-0.007704,-0.005233,-0.003285,-0.003958,0.300631,1.348691,-9.831937
1790547836.0351,0.006996,-0.021057,-0.004210,0.004078,-0.018894,-0.004210,0.017836,0.006428,0.003327,0.070663,1.348691,-9.870749
1790547836.0490,0.010778,-0.019896,-0.003022,0.008768,-0.019595,-0.003022,-0.012518,0.000358,-0.005172,0.070663,1.385871,-9.831937
1790547836.0630,0.011118,-0.020878,-0.003187,0.010413,-0.020493,-0.003187,-0.029516,-0.014212,-0.000316,0.147319,1.385871,-10.375294
1790547836.0770,0.008817,-0.025619,-0.004871,0.009296,-0.024081,-0.004871,-0.014946,0.000358,-0.003958,0.262303,1.125611,-9.987182
1790547836.0909,0.006445,-0.023723,-0.006012,0.007301,-0.023831,-0.006012,0.004480,0.023426,-0.003958,0.300631,1.460231,-10.064805
1790547836.1050,0.006759,-0.022400,-0.005429,0.006921,-0.022829,-0.005429,-0.029516,0.071992,0.010612,0.108991,1.423051,-10.025993
1790547836.1199,0.005856,-0.022209,-0.004460,0.006176,-0.022395,-0.004460,-0.107221,0.103560,0.062820,0.147319,1.274331,-10.064805
1790547836.1340,0.009068,-0.021678,-0.000238,0.008200,-0.021894,-0.000238,-0.130290,0.104774,0.146596,-0.235960,1.274331,-10.064805
1790547836.1480,0.008736,-0.017568,0.004721,0.008575,-0.018866,0.004721,-0.153358,0.033139,0.261939,0.108991,1.534591,-9.599070
1790547836.1622,0.003388,-0.013072,0.009608,0.004944,-0.014810,0.009608,-0.187354,0.022212,0.403994,0.607255,1.534591,-9.249770
1790547836.1763,-0.004117,-0.014248,0.015834,-0.001399,-0.014417,0.015834,-0.127861,0.054994,0.571545,0.913879,1.125611,-9.948371
1790547836.1902,-0.009796,-0.014950,0.023664,-0.007277,-0.014790,0.023664,-0.051370,0.045281,0.678390,0.837223,1.348691,-10.375294
1790547836.2045,-0.009191,-0.014555,0.033861,-0.008616,-0.014625,0.033861,-0.079296,-0.021497,0.615254,0.147319,1.385871,-9.987182
1790547836.2187,-0.001752,-0.014226,0.044945,-0.003812,-0.014346,0.044945,-0.197067,-0.275253,0.411278,-0.389272,1.274331,-11.306763
1790547836.2326,0.002335,-0.018284,0.050752,0.000491,-0.017102,0.050752,-0.118148,-0.175693,0.218230,-0.082648,0.567911,-10.220049
1790547836.2466,0.007683,-0.020050,0.055784,0.005526,-0.019166,0.055784,-0.074439,-0.291037,0.161165,-0.082648,1.014071,-10.763406
1790547836.2605,0.002752,-0.021570,0.043150,0.003584,-0.020849,0.043150,-0.029516,-0.100416,0.138097,1.258831,1.051251,-10.103616
1790547836.2742,-0.000013,-0.019785,0.038211,0.001066,-0.020104,0.038211,0.060331,0.059851,0.071319,0.492271,1.571771,-8.395923
1790547836.2878,-0.000341,-0.016975,0.036992,0.000081,-0.017914,0.036992,-0.005233,0.063493,-0.006386,0.147319,1.757671,-9.016902
1790547836.3018,-0.000589,-0.013518,0.032603,-0.000388,-0.014837,0.032603,-0.044085,-0.080990,-0.031883,0.530599,1.943571,-9.560259
1790547836.3158,0.000562,-0.007193,0.028390,0.000277,-0.009486,0.028390,-0.172785,-0.193905,0.021539,0.607255,2.501271,-10.569350
1790547836.3296,0.001257,0.001154,0.026351,0.000963,-0.002038,0.026351,-0.342764,-0.368742,0.122313,1.297159,2.687171,-11.035084
1790547836.3436,0.003474,0.010650,0.025322,0.002721,0.006843,0.025322,-0.462965,-0.423378,0.119884,1.067191,2.538451,-10.452916
1790547836.3577,-0.009364,0.008291,0.027792,-0.005739,0.007856,0.027792,0.333513,0.456875,-0.045239,2.485326,2.835891,-12.509909
1790547836.3721,-0.007014,0.011412,-0.033444,-0.006631,0.010346,-0.033444,0.728109,0.512726,-0.403411,-1.807408,5.029511,-9.133336
1790547836.3860,0.000686,0.022423,-0.018903,-0.001509,0.018800,-0.018903,0.587268,0.325748,-0.732443,-2.190688,5.215411,-6.144874
1790547836.4000,0.013180,0.019524,-0.075201,0.008773,0.019307,-0.075201,0.553272,-0.207261,-0.978914,-1.577440,3.021791,-9.560259
1790547836.4140,0.031783,0.025229,-0.105475,0.024880,0.023452,-0.105475,-0.000376,-0.739055,-1.316446,-1.539112,3.691031,-10.336483
1790547836.4280,0.025410,0.024315,-0.058238,0.025251,0.024056,-0.058238,0.240024,0.250471,-1.403864,1.488799,2.575631,-10.297672
1790547836.4419,0.035299,0.022712,-0.170076,0.032284,0.023115,-0.170076,-0.107221,0.340317,-1.426933,-2.957247,1.199971,-10.336483
1790547836.4560,0.033833,0.019568,-0.185942,0.033369,0.020632,-0.185942,-0.137574,0.211618,-1.409935,0.530599,0.270471,-9.831937
1790547836.4699,0.026941,0.017403,-0.190524,0.028869,0.018372,-0.190524,0.012979,0.533366,-1.456072,0.952207,1.199971,-10.608161
1790547836.4839,0.017211,0.022246,-0.198411,0.020709,0.021084,-0.198411,-0.283271,0.842972,-1.589628,0.645583,1.943571,-9.443825
1790547836.4974,0.009735,0.025442,-0.210254,0.013027,0.024134,-0.210254,-0.300269,0.683920,-1.420862,0.722239,1.423051,-9.754315
1790547836.5111,0.001652,0.028609,-0.225791,0.005064,0.027267,-0.225791,-0.292985,0.759196,-1.246025,0.492271,1.237151,-8.473546
1790547836.5251,-0.002127,0.028996,-0.243721,0.000031,0.028477,-0.243721,-0.138789,0.450804,-0.954631,0.300631,1.125611,-9.288581
1790547836.5390,-0.003931,0.031021,-0.256981,-0.002742,0.030258,-0.256981,-0.098722,0.322105,-0.709375,0.032335,1.869211,-9.133336
1790547836.5529,-0.006138,0.032507,-0.263001,-0.005119,0.031832,-0.263001,-0.114506,0.223760,-0.495686,0.453943,1.683311,-9.366203
1790547836.5669,-0.001282,0.027718,-0.274143,-0.002433,0.028952,-0.274143,0.277662,-0.218188,-0.383985,-0.044320,2.241011,-15.071448
1790547836.5808,0.002746,0.017138,-0.249930,0.001193,0.020682,-0.249930,0.793673,-0.578788,-0.085306,2.102047,2.278191,-11.850119
1790547836.5948,-0.000233,0.008406,-0.181050,0.000194,0.012089,-0.181050,0.901731,-0.496227,0.414921,3.213558,2.910251,-8.318301
1790547836.6088,-0.002571,-0.003275,-0.145059,-0.001742,0.001334,-0.145059,1.036501,-0.383311,0.582473,2.408670,2.464091,-8.279490
1790547836.6232,-0.013329,-0.004070,-0.115141,-0.009853,-0.002449,-0.115141,0.082185,0.326962,0.705101,2.945262,2.501271,-13.130889
1790547836.6375,-0.019398,-0.008824,-0.082639,-0.016534,-0.006912,-0.082639,0.048189,0.122986,1.069344,1.220503,0.084571,-10.103616
1790547836.6516,-0.019954,-0.014098,-0.052384,-0.018928,-0.011942,-0.052384,0.138036,-0.231544,1.318243,0.492271,0.233291,-5.717951
1790547836.6662,-0.016879,-0.015925,-0.056334,-0.017493,-0.014730,-0.056334,0.057902,-0.124699,1.273319,-0.810880,0.865351,-6.610609
1790547836.6805,-0.016826,-0.021944,-0.053460,-0.017026,-0.019780,-0.053460,-0.050156,0.051352,0.967356,-0.849208,-1.551348,-10.646972
1790547836.6946,-0.018760,-0.029603,-0.045567,-0.018240,-0.026656,-0.045567,0.190244,0.181265,0.869010,-0.734224,-0.956469,-12.548721
1790547836.7085,-0.018034,-0.038940,-0.036708,-0.018095,-0.035255,-0.036708,0.412432,0.029497,0.968570,-1.002520,-0.250049,-11.500819
1790547836.7225,-0.023297,-0.047076,-0.028406,-0.021737,-0.043529,-0.028406,0.467068,0.448376,0.844727,-0.542584,0.530731,-8.551168
1790547836.7363,-0.023486,-0.047925,-0.030928,-0.022961,-0.046607,-0.030928,0.216955,0.257756,0.638323,-1.270816,1.869211,-7.813756
1790547836.7499,-0.020708,-0.046803,-0.033340,-0.021384,-0.046744,-0.033340,-0.005233,0.063493,0.518123,-1.347472,1.423051,-7.736133
1790547836.7638,-0.020450,-0.046572,-0.028692,-0.020730,-0.046623,-0.028692,-0.021017,0.010071,0.448917,-0.082648,1.311511,-10.608161
1790547836.7777,-0.020522,-0.047870,-0.023686,-0.020585,-0.047496,-0.023686,0.094327,-0.005713,0.378497,0.262303,1.311511,-10.608161
1790547836.7916,-0.019883,-0.048119,-0.018063,-0.020094,-0.047932,-0.018063,0.134393,-0.043352,0.218230,0.262303,2.017931,-9.987182
1790547836.8056,-0.014342,-0.039071,-0.006563,-0.016068,-0.041729,-0.006563,-0.460536,-0.572718,0.140525,1.795423,3.021791,-11.306763
1790547836.8196,-0.009204,-0.029810,0.000901,-0.011263,-0.033386,0.000901,-0.722791,-0.663778,-0.016100,3.750150,1.199971,-14.489280
1790547836.8336,-0.007192,-0.019184,0.000318,-0.008413,-0.023445,0.000318,-0.914625,-0.679562,-0.129015,4.018446,0.047391,-8.163056
1790547836.8475,-0.002867,-0.011592,-0.001393,-0.004531,-0.015148,-0.001393,-0.698508,-0.736627,-0.392484,2.255358,0.084571,-5.407462
1790547836.8615,-0.003864,-0.011878,-0.001677,-0.004064,-0.012859,-0.001677,-0.149716,-0.063992,-0.621956,1.987063,0.010211,-9.560259
1790547836.8759,-0.002105,-0.015615,-0.016063,-0.002693,-0.014788,-0.016063,0.280090,0.126628,-0.865999,-0.964192,1.832031,-13.324944
1790547836.8901,-0.001101,-0.015984,-0.034669,-0.001579,-0.015625,-0.034669,0.060331,0.115701,-1.311589,0.377287,1.943571,-13.713056
1790547836.9040,-0.002587,-0.013304,-0.052751,-0.002285,-0.014000,-0.052751,-0.170356,0.176408,-1.346799,1.373815,1.423051,-10.569350
1790547836.9179,0.004449,-0.015156,-0.071951,0.002429,-0.014809,-0.071951,0.122252,-0.101630,-1.026266,-1.309144,0.753811,-6.804665
1790547836.9319,0.008526,-0.021881,-0.086533,0.006697,-0.019760,-0.086533,0.440357,-0.045780,-1.159821,-0.504256,0.790991,-9.443825
1790547836.9459,0.016130,-0.025675,-0.110880,0.013300,-0.023900,-0.110880,0.425787,-0.325033,-1.295805,-0.274288,2.092291,-8.357112
1790547836.9595,0.023542,-0.029601,-0.126775,0.020469,-0.027891,-0.126775,0.294660,-0.516867,-1.314017,1.258831,1.385871,-10.724595
1790547836.9730,0.023232,-0.031566,-0.145180,0.022403,-0.030464,-0.145180,0.246094,0.018570,-1.084545,1.182175,2.017931,-9.521448
1790547836.9871,0.031250,-0.035618,-0.160703,0.028596,-0.034072,-0.160703,0.293446,-0.363885,-0.975272,-0.810880,1.237151,-9.715504
1790547837.0013,0.034807,-0.040294,-0.176751,0.032944,-0.038427,-0.176751,0.399076,-0.130770,-0.869641,-0.235960,1.794851,-9.676693
1790547837.0152,0.030784,-0.039355,-0.201943,0.031432,-0.039076,-0.201943,0.269163,0.238329,-0.626813,0.990535,3.616671,-8.085434
1790547837.0291,0.015819,-0.032558,-0.218597,0.020503,-0.034514,-0.218597,-0.346407,1.142865,-0.597674,0.262303,3.244871,-12.859210
1790547837.0432,0.009137,-0.022102,-0.237700,0.012547,-0.025826,-0.237700,-0.835706,0.839330,-0.439835,-3.340527,0.530731,-12.898021
1790547837.0570,0.006939,-0.013156,-0.246758,0.008622,-0.016957,-0.246758,-0.891557,0.540651,-0.283211,-2.842263,-0.919289,-9.443825
1790547837.0709,0.007599,-0.004382,-0.252318,0.007906,-0.008154,-0.252318,-0.754359,0.164267,-0.124158,-0.580912,0.121751,-3.622147
1790547837.0849,0.009892,-0.008748,-0.242437,0.009296,-0.008570,-0.242437,0.282519,-0.403952,0.027610,2.178703,1.125611,-9.172147
1790547837.0988,-0.001365,-0.012055,-0.224158,0.001833,-0.011009,-0.224158,0.284947,0.425307,0.792519,3.520182,2.464091,-11.733686
1790547837.1130,-0.008849,-0.019148,-0.206876,-0.005644,-0.016706,-0.206876,0.402719,0.337889,1.038990,0.798895,0.790991,-10.452916
1790547837.1276,-0.006429,-0.027573,-0.192358,-0.006193,-0.024313,-0.192358,0.386935,-0.067634,0.986782,-1.922392,-0.287229,-9.288581
1790547837.1415,-0.008131,-0.033970,-0.180988,-0.007550,-0.031073,-0.180988,0.220597,0.166695,0.672319,-0.772552,-0.733389,-8.279490
1790547837.1555,-0.024914,-0.041400,-0.171501,-0.019705,-0.038302,-0.171501,0.389363,0.953459,0.771879,2.332014,0.010211,-11.035084
1790547837.1693,-0.031862,-0.051703,-0.158775,-0.028214,-0.047683,-0.158775,0.717182,0.467802,0.952786,-0.082648,1.162791,-9.172147
1790547837.1832,-0.046685,-0.062254,-0.148264,-0.041144,-0.057883,-0.148264,0.777889,0.887895,0.995281,1.565455,1.683311,-9.754315
1790547837.1969,-0.052356,-0.068255,-0.139258,-0.048992,-0.065144,-0.139258,0.486495,0.513940,0.803446,-0.964192,2.017931,-10.297672
1790547837.2105,-0.056937,-0.074916,-0.129771,-0.054553,-0.071984,-0.129771,0.538703,0.317249,0.801018,0.377287,2.092291,-10.685784
1790547837.2244,-0.051187,-0.079662,-0.119216,-0.052197,-0.077359,-0.119216,0.186601,-0.437948,0.702673,0.568927,-0.250049,-13.324944
1790547837.2385,-0.044550,-0.079892,-0.109691,-0.046844,-0.079132,-0.109691,-0.188568,-0.573932,0.570331,1.412143,-0.993649,-10.957462
1790547837.2525,-0.041271,-0.079404,-0.101740,-0.042943,-0.079322,-0.101740,-0.292985,-0.536293,0.543620,3.366870,-1.588528,-9.521448
1790547837.2664,-0.038973,-0.073397,-0.095081,-0.040164,-0.075175,-0.095081,-0.617161,-0.493798,0.628610,3.558510,-0.733389,-9.560259
1790547837.2804,-0.035380,-0.060841,-0.091679,-0.036815,-0.065141,-0.091679,-1.070036,-0.691703,0.529050,4.095102,-0.584669,-7.852567
1790547837.2943,-0.027724,-0.046672,-0.080676,-0.030451,-0.052213,-0.080676,-1.220589,-0.845899,0.436775,2.830278,-0.696209,-8.589979
1790547837.3083,-0.018173,-0.031565,-0.071315,-0.021856,-0.037760,-0.071315,-1.274011,-0.944245,0.293507,2.638638,-0.584669,-9.133336
1790547837.3223,-0.006430,-0.013219,-0.078036,-0.011058,-0.020581,-0.078036,-1.425779,-1.207714,0.161165,3.366870,0.121751,-8.085434
1790547837.3361,-0.000906,0.001153,-0.084774,-0.003951,-0.005367,-0.084774,-1.072464,-0.621283,0.067676,2.906934,1.348691,-11.578441
1790547837.3501,-0.014436,-0.007120,-0.074561,-0.011291,-0.006595,-0.074561,0.434286,0.971671,-0.441049,2.446998,-0.435949,-18.486833
1790547837.3641,-0.001312,-0.010911,-0.078912,-0.004305,-0.009616,-0.078912,0.473139,-0.470730,-0.845359,-4.030431,3.691031,-9.793126
1790547837.3787,-0.006313,-0.004584,-0.166977,-0.005711,-0.006094,-0.166977,-0.008875,-0.062778,-0.445906,3.213558,2.910251,-3.971448
1790547837.3926,-0.003327,-0.011709,-0.161944,-0.004042,-0.010025,-0.161944,0.462212,-0.116200,-0.396126,-0.082648,0.567911,-6.300119
1790547837.4066,0.018152,-0.022898,-0.144231,0.011494,-0.019036,-0.144231,0.802172,-1.147007,-0.784651,-3.148887,1.423051,-9.443825
1790547837.4203,0.029059,-0.032008,-0.172322,0.023790,-0.028116,-0.172322,0.847095,-0.691703,-0.876926,-0.044320,2.687171,-8.395923
1790547837.4340,0.033091,-0.035162,-0.203202,0.030301,-0.033048,-0.203202,0.486495,-0.241257,-0.794365,0.300631,2.984611,-7.115154
1790547837.4481,0.042035,-0.041364,-0.217978,0.038515,-0.038870,-0.217978,0.477996,-0.440376,-0.890282,-0.964192,1.311511,-7.697322
1790547837.4621,0.051805,-0.048713,-0.235279,0.047818,-0.045760,-0.235279,0.598196,-0.496227,-0.870856,-1.385800,1.943571,-9.055714
1790547837.4761,0.039476,-0.052125,-0.255071,0.041979,-0.050215,-0.255071,0.351725,0.968029,-0.671736,-0.389272,3.616671,-14.566903
1790547837.4901,0.023475,-0.040658,-0.253270,0.029026,-0.043525,-0.253270,-0.828421,1.477968,-0.636526,-5.410238,2.129471,-17.400119
1790547837.5039,0.025623,-0.026067,-0.225551,0.026644,-0.031305,-0.225551,-1.121030,0.302679,-0.541823,-6.291782,0.790991,-12.238231
1790547837.5178,0.024844,-0.015652,-0.158867,0.025384,-0.020348,-0.158867,-0.987474,0.737342,-0.459261,-3.340527,-0.882109,-3.078790
1790547837.5318,0.010995,0.005671,-0.189748,0.015312,-0.002135,-0.189748,-1.110102,1.084586,-0.460476,0.032335,3.728211,-4.631238
1790547837.5460,0.005861,0.018828,-0.205940,0.008696,0.012539,-0.205940,-0.759215,0.652352,-0.386413,-1.385800,2.055111,-5.174595
1790547837.5609,0.012226,0.009697,-0.205308,0.011167,0.010549,-0.205308,0.613980,-0.435519,-0.082877,0.607255,2.835891,-16.235784
1790547837.5754,0.008623,0.011431,-0.197506,0.009386,0.011166,-0.197506,-0.107221,0.166695,0.618897,-0.082648,2.724351,-13.674245
1790547837.5898,0.006290,0.007911,-0.183231,0.007219,0.008887,-0.183231,0.102826,-0.046994,0.869010,1.297159,0.084571,-13.324944
1790547837.6040,0.003987,0.000421,-0.180108,0.004957,0.002961,-0.180108,0.491351,0.224974,0.584901,-1.615768,1.199971,-9.327392
1790547837.6185,-0.014167,-0.009002,-0.168648,-0.008430,-0.005413,-0.168648,0.662545,1.009310,0.611612,1.872079,1.385871,-7.425644
1790547837.6327,-0.029854,-0.023060,-0.157376,-0.023427,-0.017766,-0.157376,0.969723,0.902465,0.705101,2.178703,1.497411,-10.685784
1790547837.6462,-0.045919,-0.033462,-0.146105,-0.039172,-0.028753,-0.146105,0.800957,1.022665,0.952786,1.143847,2.017931,-8.667602
1790547837.6599,-0.057709,-0.038481,-0.139203,-0.052148,-0.035562,-0.139203,0.407575,0.856328,1.046275,-0.619240,2.798711,-10.569350
1790547837.6740,-0.056376,-0.047472,-0.133089,-0.055107,-0.043899,-0.133089,0.650404,-0.020283,1.066915,-1.577440,2.241011,-9.210958
1790547837.6879,-0.046898,-0.049905,-0.118750,-0.049361,-0.048103,-0.118750,0.090684,-0.781550,1.002566,0.607255,1.199971,-11.151518
1790547837.7019,-0.040106,-0.048362,-0.106786,-0.042883,-0.048284,-0.106786,-0.235920,-0.576360,0.830158,0.683911,0.307651,-10.918651
1790547837.7158,-0.037240,-0.048394,-0.081382,-0.038933,-0.048361,-0.081382,-0.268702,-0.531437,0.957642,2.945262,-1.439808,-8.279490
1790547837.7297,-0.032333,-0.041261,-0.060281,-0.034313,-0.043391,-0.060281,-0.692437,-0.713558,0.872652,3.673494,-0.435949,-9.055714
1790547837.7435,-0.024205,-0.029227,-0.043311,-0.027237,-0.033476,-0.043311,-1.043324,-0.878681,0.725741,3.405198,-0.473129,-11.035084
1790547837.7575,-0.017096,-0.012376,-0.032773,-0.020139,-0.018706,-0.032773,-1.338361,-0.872611,0.508410,3.903462,-0.026969,-8.745224
1790547837.7714,-0.006795,0.007113,-0.026023,-0.010798,-0.000633,-0.026023,-1.484058,-1.034091,0.308076,2.791950,0.679451,-8.085434
1790547837.7854,0.004939,0.025793,-0.026667,0.000218,0.017866,-0.026667,-1.300723,-1.040162,0.164808,1.757095,1.683311,-7.231588
1790547837.7994,-0.003347,0.018100,-0.031479,-0.002277,0.018030,-0.031479,0.549630,0.795621,-0.246787,-2.458983,2.426911,-14.799770
1790547837.8134,0.008058,0.009964,-0.047127,0.004958,0.012384,-0.047127,0.613980,-0.395453,-1.016553,-4.796990,2.575631,-14.295224
1790547837.8274,0.012633,0.010281,-0.062967,0.010331,0.010912,-0.062967,0.072472,-0.193905,-0.801649,0.108991,3.096151,-10.957462
1790547837.8413,0.016879,0.006058,-0.061010,0.014915,0.007514,-0.061010,0.197529,-0.146554,-0.291710,-1.270816,0.196111,-9.094525
1790547837.8552,0.027281,-0.006286,-0.066483,0.023571,-0.002146,-0.066483,0.813099,-0.406380,-0.637740,-3.800463,0.493551,-11.035084
1790547837.8694,0.047623,-0.022027,-0.076458,0.040408,-0.016062,-0.076458,1.116634,-1.164005,-0.852643,-2.612295,1.757671,-10.841028
1790547837.8836,0.056339,-0.026630,-0.096798,0.051559,-0.023460,-0.096798,0.521705,-0.526580,-1.035979,0.262303,3.467951,-7.425644
1790547837.8976,0.059283,-0.029547,-0.115050,0.056966,-0.027721,-0.115050,0.399076,-0.131984,-0.970415,0.185647,2.724351,-5.989630
1790547837.9117,0.064095,-0.037462,-0.128977,0.061957,-0.034540,-0.128977,0.535060,-0.241257,-1.071189,0.032335,1.199971,-8.745224
1790547837.9258,0.072556,-0.040803,-0.146742,0.069376,-0.038924,-0.146742,0.356581,-0.463445,-0.969201,-0.810880,3.319231,-9.599070
1790547837.9398,0.060299,-0.042706,-0.151366,0.063022,-0.041571,-0.151366,0.002052,0.857542,-0.799221,2.102047,-0.250049,-17.283686
1790547837.9538,0.052869,-0.028942,-0.169906,0.055915,-0.032731,-0.169906,-1.012971,0.833259,-0.666880,-4.490366,1.646131,-13.519000
1790547837.9677,0.045669,-0.015237,-0.181590,0.048743,-0.020485,-0.181590,-1.215733,0.825974,-0.568534,-2.842263,-1.439808,-8.279490
1790547837.9817,0.036985,-0.002825,-0.191414,0.040512,-0.008123,-0.191414,-1.080963,1.026308,-0.450762,-3.033903,-0.770569,-5.912007
1790547837.9960,0.025403,0.015635,-0.198455,0.029936,0.008507,-0.198455,-1.180522,1.033592,-0.614672,-0.964192,1.980751,-5.756762
1790547838.0102,0.012159,0.027660,-0.207288,0.017492,0.021914,-0.207288,-0.847848,1.012952,-0.438621,0.185647,1.051251,-5.912007
1790547838.0244,0.021368,0.015480,-0.209489,0.020205,0.017410,-0.209489,0.770604,-0.592144,-0.005172,-1.539112,0.976891,-17.865854
1790547838.0384,0.015234,0.011200,-0.203166,0.016725,0.013063,-0.203166,0.263092,0.294180,0.606755,0.837223,1.311511,-11.345574
1790547838.0524,0.013356,0.009298,-0.191085,0.014366,0.010427,-0.191085,0.128323,-0.033638,0.860511,0.453943,1.720491,-10.025993
1790547838.0668,0.022757,0.002833,-0.186983,0.020240,0.005111,-0.186983,0.322585,-0.586073,0.410064,-1.615768,-0.138509,-7.852567
1790547838.0809,0.009445,-0.005549,-0.179790,0.012683,-0.002351,-0.179790,0.582412,0.598930,0.502339,3.635166,1.125611,-8.201867
1790547838.0949,-0.006744,-0.018285,-0.172805,-0.000916,-0.013505,-0.172805,0.892018,0.981384,0.684460,1.642111,1.460231,-10.763406
1790547838.1086,-0.021105,-0.029549,-0.160709,-0.015048,-0.024736,-0.160709,0.865307,0.925534,0.905434,0.492271,1.980751,-8.357112
1790547838.1225,-0.032312,-0.036218,-0.145445,-0.027133,-0.032773,-0.145445,0.560557,0.755554,0.981925,-0.350944,3.244871,-10.569350
1790547838.1372,-0.035041,-0.040087,-0.129369,-0.032668,-0.037893,-0.129369,0.337155,0.176408,0.927289,-0.849208,2.910251,-9.172147
1790547838.1517,-0.032169,-0.045664,-0.118074,-0.032319,-0.043332,-0.118074,0.325014,-0.252184,0.825301,-0.044320,1.274331,-12.626343
1790547838.1659,-0.024537,-0.046980,-0.103658,-0.026872,-0.045886,-0.103658,0.055474,-0.690489,0.842299,1.680439,1.683311,-13.169700
1790547838.1799,-0.022036,-0.041554,-0.088126,-0.023486,-0.042853,-0.088126,-0.511530,-0.469515,0.895721,3.750150,-0.026969,-11.539630
1790547838.1941,-0.016720,-0.034971,-0.074502,-0.018750,-0.037336,-0.074502,-0.643872,-0.662564,0.784020,3.213558,-0.956469,-9.637881
1790547838.2081,-0.010783,-0.022342,-0.065027,-0.013173,-0.026840,-0.065027,-1.028755,-0.775479,0.510838,4.056774,-0.287229,-8.434735
1790547838.2222,-0.003547,-0.003880,-0.059044,-0.006435,-0.010768,-0.059044,-1.420923,-0.800976,0.278937,3.251886,0.121751,-8.318301
1790547838.2361,0.007446,0.015913,-0.055408,0.003282,0.007909,-0.055408,-1.501056,-1.089942,0.162379,3.213558,0.493551,-7.697322
1790547838.2500,0.019758,0.033693,-0.053541,0.014815,0.025958,-0.053541,-1.318935,-1.109368,0.027610,2.332014,0.902531,-7.348021
1790547838.2643,0.000467,0.028017,-0.044981,0.004771,0.027400,-0.044981,0.175674,1.172005,-0.167867,3.711822,-1.551348,-9.172147
1790547838.2784,0.017221,0.018429,-0.061983,0.013486,0.021120,-0.061983,0.825240,-0.907821,-0.722730,-3.685479,5.587211,-14.256413
1790547838.2924,0.008297,0.014176,-0.078845,0.009854,0.016260,-0.078845,0.308016,0.547936,-0.655952,3.865134,1.794851,-11.229140
1790547838.3065,0.006376,0.011114,-0.081107,0.007419,0.012658,-0.081107,0.159890,0.182479,-0.535752,0.760567,0.642271,-8.395923
1790547838.3207,0.016056,0.006218,-0.086276,0.013465,0.008150,-0.086276,0.363866,-0.541150,-0.526039,-0.925864,1.980751,-10.802217
1790547838.3343,0.021760,-0.003512,-0.091941,0.019272,-0.000013,-0.091941,0.709897,-0.104059,-0.864785,-1.960720,1.125611,-7.619700
1790547838.3483,0.027458,-0.011117,-0.118598,0.025002,-0.007786,-0.118598,0.690470,-0.309249,-0.924278,0.338959,2.426911,-6.688231
1790547838.3621,0.040524,-0.012643,-0.144161,0.035868,-0.011186,-0.144161,0.272806,-0.740269,-1.025052,-0.772552,2.501271,-6.222497
1790547838.3761,0.044205,-0.020490,-0.159917,0.041704,-0.017699,-0.159917,0.576341,-0.164766,-0.958274,0.338959,1.794851,-9.560259
1790547838.3907,0.050938,-0.027064,-0.173995,0.048168,-0.024255,-0.173995,0.493779,-0.167194,-0.853858,-3.225543,2.278191,-9.909560
1790547838.4047,0.036006,-0.024830,-0.189427,0.039654,-0.024657,-0.189427,-0.102364,1.097942,-0.727587,1.412143,3.244871,-13.286133
1790547838.4186,0.020178,-0.013723,-0.202227,0.026021,-0.017003,-0.202227,-0.788355,1.289776,-0.659595,-1.194160,2.649991,-16.701518
1790547838.4327,0.014867,-0.002132,-0.204930,0.018214,-0.006593,-0.204930,-0.909769,0.682705,-0.751870,-1.845736,0.084571,-6.688231
1790547838.4469,0.009574,0.010712,-0.207123,0.012166,0.005520,-0.207123,-0.975332,0.722772,-0.617100,-2.152360,0.233291,-5.834385
1790547838.4610,0.002894,0.022548,-0.204992,0.005675,0.017440,-0.204992,-0.948621,0.932819,-0.459261,-2.382327,-0.101329,-3.932637
1790547838.4749,0.005561,0.020859,-0.208342,0.005595,0.019833,-0.208342,-0.011304,0.037996,-0.354845,-3.493839,-0.547489,-15.149070
1790547838.4890,0.004836,0.014742,-0.205045,0.005063,0.016269,-0.205045,0.423359,-0.083418,0.338430,2.370342,3.021791,-17.555364
1790547838.5032,-0.003840,0.012595,-0.197268,-0.001169,0.013697,-0.197268,0.167175,0.377956,0.774307,2.485326,2.798711,-12.471098
1790547838.5171,-0.005607,0.003753,-0.183975,-0.004276,0.006736,-0.183975,0.600624,0.122986,0.813160,-1.040848,0.939711,-6.338930
1790547838.5311,-0.013077,-0.007133,-0.178702,-0.010437,-0.002972,-0.178702,0.763319,0.569790,0.365141,-0.964192,1.534591,-10.763406
1790547838.5452,-0.032982,-0.018165,-0.176786,-0.026218,-0.013607,-0.176786,0.759677,1.226641,0.502339,2.332014,1.199971,-9.210958
1790547838.5594,-0.048686,-0.033985,-0.167993,-0.041946,-0.027872,-0.167993,1.105707,1.011738,0.757309,0.798895,1.683311,-9.676693
1790547838.5732,-0.062971,-0.044797,-0.156277,-0.056663,-0.039719,-0.156277,0.867735,0.991098,0.890865,0.108991,2.538451,-7.503266
1790547838.5869,-0.070245,-0.050144,-0.144007,-0.066170,-0.047016,-0.144007,0.509563,0.492085,0.862939,0.147319,4.323091,-10.297672
1790547838.6009,-0.061985,-0.058511,-0.133334,-0.063241,-0.055063,-0.133334,0.418503,-0.565433,0.917576,-1.155832,-0.398769,-11.578441
1790547838.6149,-0.051787,-0.059421,-0.123024,-0.055223,-0.058113,-0.123024,-0.061083,-0.771837,0.767022,0.223975,0.158931,-11.423196
1790547838.6291,-0.045853,-0.061151,-0.115365,-0.048664,-0.060240,-0.115365,-0.130290,-0.679562,0.750024,3.941790,-2.332128,-10.258860
1790547838.6435,-0.040108,-0.057872,-0.105768,-0.042675,-0.058582,-0.105768,-0.420470,-0.668635,0.779164,3.405198,-1.142369,-8.978091
1790547838.6577,-0.035135,-0.044697,-0.097956,-0.037397,-0.048863,-0.097956,-1.049395,-0.720843,0.729384,4.785005,-0.101329,-8.434735
1790547838.6717,-0.024016,-0.025568,-0.089434,-0.028030,-0.032556,-0.089434,-1.490129,-1.017094,0.495054,2.446998,-0.138509,-8.240679
1790547838.6857,-0.015236,-0.004561,-0.084071,-0.019074,-0.012960,-0.084071,-1.623684,-0.983098,0.334788,4.516709,-0.250049,-8.046623
1790547838.6996,0.003488,0.014691,-0.076772,-0.003281,0.006396,-0.076772,-1.502270,-1.602310,0.227943,2.485326,0.084571,-7.464455
1790547838.7135,0.018973,0.030980,-0.077215,0.012297,0.023605,-0.077215,-1.190236,-1.344912,0.214587,2.025391,1.162791,-7.270399
1790547838.7275,0.005135,0.017774,-0.069472,0.007284,0.019523,-0.069472,0.824026,0.896394,0.093173,2.830278,-0.138509,-16.546273
1790547838.7413,0.005304,0.007141,-0.076662,0.005898,0.010855,-0.076662,0.860450,0.237115,-0.658381,-2.458983,3.691031,-12.820399
1790547838.7552,0.016809,0.012209,-0.101533,0.013536,0.011803,-0.101533,-0.205566,-0.762124,-0.772510,0.798895,3.728211,-9.172147
1790547838.7691,0.012980,0.009209,-0.112056,0.013147,0.009987,-0.112056,0.212098,0.214047,-0.490829,1.795423,1.125611,-7.386832
1790547838.7831,0.025595,-0.001594,-0.089749,0.021860,0.001881,-0.089749,0.754820,-0.501083,-0.586746,-4.298727,1.125611,-8.007811
1790547838.7966,0.036331,-0.010586,-0.109234,0.031990,-0.006846,-0.109234,0.814313,-0.650423,-0.744585,-0.580912,3.021791,-7.774944
1790547838.8103,0.043229,-0.015919,-0.131406,0.039857,-0.013197,-0.131406,0.549630,-0.406380,-0.776152,-0.044320,2.947431,-7.153965
1790547838.8243,0.048202,-0.022112,-0.149317,0.045698,-0.019438,-0.149317,0.528990,-0.265540,-0.789508,0.032335,3.096151,-10.452916
1790547838.8383,0.057722,-0.029632,-0.160997,0.054115,-0.026574,-0.160997,0.543559,-0.496227,-0.859928,-1.615768,1.794851,-10.530539
1790547838.8522,0.048119,-0.034599,-0.180720,0.049918,-0.032192,-0.180720,0.552058,0.778623,-0.647453,-0.274288,4.955151,-10.142427
1790547838.8662,0.020523,-0.024232,-0.182265,0.029342,-0.026620,-0.182265,-0.759215,1.881064,-0.569748,4.133430,1.757671,-13.907112
1790547838.8802,0.018747,-0.010754,-0.175397,0.021926,-0.015514,-0.175397,-1.093104,0.415594,-0.682664,-3.647151,-0.844929,-12.121798
1790547838.8948,0.009358,0.005212,-0.175337,0.013129,-0.001006,-0.175337,-1.214518,0.930390,-0.664451,-1.999048,-0.324409,-7.503266
1790547838.9090,-0.000622,0.020266,-0.191138,0.003503,0.013885,-0.191138,-0.943765,0.772552,-0.569748,0.415615,1.646131,-4.786483
1790547838.9233,-0.013576,0.033517,-0.205119,-0.008452,0.027627,-0.205119,-0.825993,1.055447,-0.455619,-0.235960,2.501271,-7.503266
1790547838.9372,-0.002096,0.030795,-0.206272,-0.004003,0.029845,-0.206272,0.159890,-0.590930,-0.385199,-4.337055,2.092291,-17.594175
1790547838.9512,-0.001761,0.034901,-0.204389,-0.002434,0.033384,-0.204389,-0.180069,-0.148982,0.397923,1.220503,4.546171,-11.151518
1790547838.9652,-0.003648,0.030154,-0.189295,-0.003284,0.031123,-0.189295,0.226668,-0.038495,0.713600,0.875551,0.456371,-10.103616
1790547838.9793,-0.007395,0.020883,-0.173615,-0.006162,0.023955,-0.173615,0.476781,0.116915,0.475628,0.798895,-0.510309,-5.950818
1790547838.9933,-0.022858,0.008823,-0.175104,-0.017849,0.013363,-0.175104,0.918729,0.912178,0.418563,2.140375,2.278191,-7.969000
1790547839.0072,-0.039700,-0.006603,-0.170866,-0.033145,-0.000613,-0.170866,1.100850,1.096728,0.529050,1.412143,1.646131,-9.948371
1790547839.0211,-0.058118,-0.018356,-0.165521,-0.050626,-0.013034,-0.165521,0.851951,1.239997,0.833800,0.377287,2.017931,-8.745224
1790547839.0348,-0.067862,-0.027096,-0.161783,-0.062691,-0.022877,-0.161783,0.695327,0.725200,0.900578,-1.002520,3.170511,-9.521448
1790547839.0484,-0.071039,-0.032583,-0.154026,-0.068535,-0.029672,-0.154026,0.414860,0.130271,0.929717,0.722239,2.612811,-9.288581
1790547839.0625,-0.063959,-0.037589,-0.144028,-0.065331,-0.035214,-0.144028,0.329870,-0.595786,0.864153,0.837223,2.835891,-12.936833
1790547839.0766,-0.054073,-0.037754,-0.128595,-0.057451,-0.036992,-0.128595,-0.124219,-0.785192,0.777949,0.645583,0.270471,-11.694875
1790547839.0905,-0.049740,-0.039905,-0.102456,-0.052053,-0.039031,-0.102456,-0.070797,-0.543578,0.856869,2.983590,-1.365448,-10.608161
1790547839.1045,-0.049292,-0.042152,-0.076712,-0.050121,-0.041216,-0.076712,-0.085366,-0.366313,0.826515,4.018446,-1.625708,-8.201867
1790547839.1184,-0.036646,-0.031805,-0.065596,-0.040688,-0.034628,-0.065596,-0.824779,-1.151863,0.733026,2.140375,0.567911,-6.882287
1790547839.1326,-0.028074,-0.017472,-0.051292,-0.031858,-0.022619,-0.051292,-1.163525,-0.900536,0.605541,4.593365,-0.473129,-11.306763
1790547839.1473,-0.018669,0.003133,-0.048966,-0.022626,-0.004593,-0.048966,-1.480416,-0.950316,0.355428,4.785005,0.530731,-9.637881
1790547839.1617,-0.003785,0.022447,-0.045788,-0.009437,0.014335,-0.045788,-1.395426,-1.276920,0.166022,3.213558,0.902531,-8.628791
1790547839.1756,-0.002968,0.033973,-0.047272,-0.004909,0.028082,-0.047272,-0.853918,-0.272824,0.116242,2.255358,0.976891,-6.571797
1790547839.1897,-0.012801,0.029261,-0.059760,-0.010433,0.028907,-0.059760,0.425787,0.989883,-0.427694,-3.685479,3.839751,-12.548721
1790547839.2037,-0.000519,0.022193,-0.065434,-0.003493,0.024208,-0.065434,0.537489,-0.435519,-1.048120,-5.141942,2.352551,-12.277042
1790547839.2177,0.004307,0.024395,-0.096778,0.001967,0.024339,-0.096778,0.017836,-0.343245,-0.756726,1.718767,3.096151,-6.998721
1790547839.2316,0.011091,0.015105,-0.081185,0.008354,0.017875,-0.081185,0.537489,-0.271610,-0.426480,-2.497311,-0.287229,-11.772497
1790547839.2455,0.028035,0.004030,-0.089568,0.022131,0.008184,-0.089568,0.807028,-0.896893,-0.955846,-3.378855,2.017931,-11.578441
1790547839.2592,0.045214,-0.007623,-0.109305,0.038289,-0.002881,-0.109305,0.950297,-1.004952,-1.004411,-1.654096,2.575631,-8.085434
1790547839.2729,0.054527,-0.012376,-0.141995,0.049656,-0.009527,-0.141995,0.566628,-0.550863,-1.004411,-0.044320,3.505131,-6.222497
1790547839.2869,0.057845,-0.018577,-0.166463,0.055388,-0.015862,-0.166463,0.567842,-0.107701,-0.995912,-0.082648,2.612811,-6.532986
1790547839.3010,0.050724,-0.029034,-0.181384,0.052123,-0.025082,-0.181384,0.747535,0.634140,-0.770082,-0.810880,2.464091,-13.984735
1790547839.3149,0.033053,-0.023859,-0.195703,0.038774,-0.024226,-0.195703,-0.414399,1.524106,-0.919421,-3.263871,1.460231,-15.731238
1790547839.3289,0.032365,-0.013502,-0.188766,0.034288,-0.016719,-0.188766,-0.866060,0.460517,-0.793150,-7.288309,-0.807749,-13.402567
1790547839.3428,0.029250,-0.002673,-0.185330,0.030762,-0.006886,-0.185330,-0.968048,0.634140,-0.674165,-3.915447,-1.291089,-7.076343
1790547839.3568,0.023204,0.011886,-0.195336,0.025471,0.006254,-0.195336,-1.068821,0.723986,-0.641383,-2.497311,0.976891,-8.357112
1790547839.3707,0.014034,0.026556,-0.206928,0.017466,0.020465,-0.206928,-1.084605,1.164720,-0.730015,-3.225543,0.567911,-4.825294
1790547839.3847,0.003900,0.038347,-0.217945,0.007970,0.032982,-0.217945,-0.821136,1.124653,-0.655952,-2.612295,1.199971,-5.950818
1790547839.3989,0.011156,0.038126,-0.223783,0.010200,0.036583,-0.223783,-0.073225,-0.514439,-0.189722,1.220503,0.976891,-19.069001
1790547839.4129,0.009178,0.030816,-0.216744,0.009484,0.032546,-0.216744,0.547202,-0.014212,0.461058,1.718767,3.207691,-13.363756
1790547839.4267,-0.002080,0.025330,-0.208206,0.001390,0.027495,-0.208206,0.342012,0.543079,0.882366,2.408670,1.423051,-11.345574
1790547839.4407,0.005185,0.016795,-0.197789,0.004046,0.020005,-0.197789,0.463426,-0.354172,0.565475,-3.263871,-0.435949,-7.076343
1790547839.4545,-0.009192,0.011657,-0.194040,-0.005221,0.014161,-0.194040,0.440357,0.668136,0.454988,1.680439,0.865351,-2.690678
1790547839.4684,-0.024508,0.000195,-0.189817,-0.018722,0.004385,-0.189817,0.819170,0.878182,0.556976,2.983590,1.832031,-10.181238
1790547839.4824,-0.042664,-0.013066,-0.182281,-0.035481,-0.007831,-0.182281,0.957582,1.096728,0.745168,2.332014,2.166651,-9.793126
1790547839.4961,-0.056062,-0.020194,-0.172111,-0.049888,-0.016485,-0.172111,0.596982,0.883039,0.796162,0.683911,3.356411,-9.560259
1790547839.5097,-0.059507,-0.024650,-0.160791,-0.056621,-0.022201,-0.160791,0.418503,0.206762,0.775521,-0.044320,4.323091,-11.073895
1790547839.5236,-0.051169,-0.029338,-0.148635,-0.052804,-0.027197,-0.148635,0.263092,-0.714772,0.776735,1.105519,1.497411,-12.121798
1790547839.5378,-0.038308,-0.027370,-0.139029,-0.042657,-0.027318,-0.139029,-0.214065,-0.973384,0.584901,0.453943,1.088431,-12.199420
1790547839.5520,-0.033019,-0.028119,-0.127206,-0.035911,-0.027879,-0.127206,-0.167928,-0.652851,0.599471,3.980118,-1.885968,-9.793126
1790547839.5659,-0.026755,-0.022599,-0.117361,-0.029501,-0.024183,-0.117361,-0.524886,-0.739055,0.589757,2.983590,-0.175689,-7.348021
1790547839.5798,-0.018933,-0.013413,-0.109104,-0.022103,-0.016644,-0.109104,-0.772571,-0.866540,0.497483,3.098574,0.010211,-7.115154
1790547839.5938,-0.008231,-0.002501,-0.101273,-0.012393,-0.006744,-0.101273,-0.891557,-1.053518,0.383353,4.478381,-0.064149,-10.724595
1790547839.6079,0.001102,0.012402,-0.099123,-0.002947,0.006659,-0.099123,-1.122244,-0.955172,0.218230,3.826806,0.642271,-8.395923
1790547839.6217,0.011665,0.027235,-0.097114,0.007281,0.021062,-0.097114,-1.117387,-1.009809,0.118670,3.328542,0.976891,-8.861658
1790547839.6368,0.004820,0.030061,-0.091067,0.005559,0.027361,-0.091067,-0.306340,0.461732,-0.294138,1.948735,-0.287229,-15.614805
1790547839.6526,0.010603,0.022613,-0.103897,0.009089,0.024037,-0.103897,0.487709,-0.165980,-0.926706,-0.542584,2.464091,-13.014455
1790547839.6675,0.021391,0.021414,-0.156021,0.017701,0.022201,-0.156021,0.373579,-0.779122,-0.823504,2.217030,4.100011,-5.213406
1790547839.6820,0.021552,0.014278,-0.162235,0.020397,0.016655,-0.162235,0.480424,-0.000857,-0.578247,1.488799,1.423051,-9.366203
1790547839.6965,0.038028,0.001822,-0.169307,0.032739,0.006272,-0.169307,0.860450,-0.896893,-0.841716,-2.114032,1.832031,-10.491728
1790547839.7109,0.049995,-0.008446,-0.194074,0.044818,-0.004031,-0.194074,0.817955,-0.688061,-1.028694,-0.120976,2.798711,-7.969000
1790547839.7244,0.053210,-0.016231,-0.216232,0.050693,-0.012571,-0.216232,0.672258,-0.176907,-1.051763,0.760567,2.166651,-6.494175
1790547839.7379,0.060371,-0.022465,-0.233799,0.057468,-0.019497,-0.233799,0.464640,-0.372384,-1.096686,-0.389272,1.385871,-7.425644
1790547839.7520,0.068971,-0.032749,-0.247776,0.065520,-0.028773,-0.247776,0.698969,-0.474372,-1.011696,-0.427600,0.976891,-7.309210
1790547839.7658,0.053053,-0.039412,-0.267976,0.056793,-0.036220,-0.267976,0.559343,1.222999,-0.720302,0.185647,4.025651,-13.868301
1790547839.7798,0.042509,-0.026467,-0.259113,0.046794,-0.029393,-0.259113,-0.965619,1.121011,-0.628027,-7.020013,1.423051,-13.169700
1790547839.7937,0.041220,-0.013022,-0.241486,0.042892,-0.017933,-0.241486,-1.135599,0.407095,-0.504185,-4.720334,-1.291089,-10.685784
1790547839.8077,0.034245,0.000844,-0.233261,0.036839,-0.004789,-0.233261,-1.185379,0.823546,-0.556393,-2.995575,-1.179549,-7.270399
1790547839.8216,0.019528,0.020389,-0.248665,0.024721,0.012836,-0.248665,-1.236373,1.224213,-0.349989,-0.657568,1.906391,-4.010259
1790547839.8356,0.000266,0.030145,-0.254239,0.007602,0.024952,-0.254239,-0.817494,1.678302,-0.476259,-1.922392,-0.212869,-6.921098
1790547839.8494,-0.014963,0.042196,-0.265130,-0.008194,0.037023,-0.265130,-0.825993,1.382051,-0.513898,-1.539112,1.646131,-6.998721
1790547839.8634,-0.008490,0.038193,-0.266453,-0.008401,0.037842,-0.266453,0.203599,-0.350529,-0.245572,-1.654096,1.088431,-20.815504
1790547839.8774,-0.005439,0.039914,-0.261000,-0.006328,0.039292,-0.261000,-0.098722,-0.274039,0.349357,0.032335,3.207691,-12.160609
1790547839.8915,-0.009306,0.037959,-0.251359,-0.008413,0.038359,-0.251359,0.077329,0.054994,0.706315,1.948735,1.497411,-11.345574
1790547839.9059,-0.002763,0.033121,-0.241617,-0.004458,0.034692,-0.241617,0.231525,-0.538722,0.499911,-0.044320,0.233291,-4.825294
1790547839.9200,-0.016150,0.019900,-0.238226,-0.012642,0.024338,-0.238226,0.919943,0.696061,0.533907,1.220503,0.605091,-3.622147
1790547839.9341,-0.031851,0.008077,-0.233563,-0.026088,0.012955,-0.233563,0.828883,0.953459,0.589757,1.833751,1.906391,-10.181238
1790547839.9479,-0.048109,-0.002815,-0.226602,-0.041503,0.001916,-0.226602,0.792458,1.050590,0.785234,1.028863,2.352551,-10.297672
1790547839.9616,-0.059596,-0.009455,-0.219182,-0.054168,-0.006044,-0.219182,0.538703,0.774980,0.845941,-0.044320,3.319231,-9.831937
1790547839.9755,-0.065912,-0.015269,-0.211397,-0.062389,-0.012501,-0.211397,0.477996,0.382812,0.807089,0.223975,3.282051,-9.094525
1790547839.9895,-0.063018,-0.022576,-0.202642,-0.062829,-0.019553,-0.202642,0.545988,-0.304392,0.706315,1.028863,3.430771,-11.966553
1790547840.0034,-0.050829,-0.024405,-0.192590,-0.054429,-0.022950,-0.192590,0.036048,-0.916320,0.583687,0.070663,0.939711,-12.626343
1790547840.0173,-0.041909,-0.020286,-0.181015,-0.045665,-0.021085,-0.181015,-0.390116,-0.803404,0.552119,1.948735,0.605091,-9.831937
1790547840.0313,-0.035348,-0.016732,-0.162162,-0.038443,-0.018038,-0.162162,-0.471464,-0.740269,0.635895,2.791950,-1.179549,-7.736133
1790547840.0452,-0.028456,-0.008455,-0.151083,-0.031452,-0.011330,-0.151083,-0.709435,-0.798548,0.532693,3.136902,0.047391,-7.076343
1790547840.0591,-0.012770,0.003635,-0.140368,-0.018375,-0.000854,-0.140368,-0.976547,-1.291490,0.343287,1.757095,0.307651,-9.366203
1790547840.0732,-0.001672,0.018571,-0.138094,-0.006683,0.012744,-0.138094,-1.133171,-1.086300,0.180591,4.286742,0.567911,-8.861658
1790547840.0872,0.011046,0.034086,-0.139434,0.005727,0.027683,-0.139434,-1.119815,-1.080229,-0.046453,2.485326,1.497411,-8.512357
1790547840.1011,-0.000655,0.030460,-0.147099,0.001260,0.029627,-0.147099,0.233953,0.719130,-0.342704,4.670021,1.608951,-12.626343
1790547840.1150,0.009951,0.027557,-0.160041,0.007343,0.028178,-0.160041,0.276448,-0.371170,-1.063904,-3.953775,3.133331,-11.656063
1790547840.1289,0.025429,0.025232,-0.175755,0.020003,0.026116,-0.175755,0.287375,-0.786407,-0.822290,-3.340527,3.839751,-9.793126
1790547840.1429,0.028340,0.015706,-0.179037,0.025839,0.018829,-0.179037,0.617622,-0.027568,-0.659595,-1.079176,0.790991,-10.220049
1790547840.1569,0.040901,-0.000099,-0.183805,0.036382,0.005579,-0.183805,1.063212,-0.666206,-0.906066,-1.692424,0.567911,-10.025993
1790547840.1712,0.056491,-0.012543,-0.200534,0.050459,-0.007106,-0.200534,0.918729,-0.843471,-1.103971,-1.845736,2.538451,-9.560259
1790547840.1849,0.062157,-0.020993,-0.224983,0.058648,-0.016827,-0.224983,0.708683,-0.312891,-1.235098,0.607255,2.724351,-7.542077
1790547840.1986,0.068432,-0.028180,-0.244400,0.065497,-0.024774,-0.244400,0.542345,-0.291037,-1.186532,-0.465928,1.794851,-7.619700
1790547840.2126,0.078637,-0.039736,-0.258537,0.074695,-0.035247,-0.258537,0.773032,-0.566647,-1.097900,-1.002520,1.051251,-9.482637
1790547840.2265,0.063178,-0.050848,-0.268372,0.066633,-0.046168,-0.268372,0.719610,1.048162,-0.958274,4.018446,0.865351,-15.110259
1790547840.2405,0.050742,-0.041573,-0.278561,0.055509,-0.042951,-0.278561,-0.733718,1.138009,-0.829575,-5.180270,0.790991,-18.253966
1790547840.2546,0.052172,-0.027608,-0.282856,0.053173,-0.032211,-0.282856,-1.100389,0.226188,-0.697233,-6.828373,-0.398769,-14.916203
1790547840.2684,0.046786,-0.011346,-0.289175,0.048702,-0.017606,-0.289175,-1.299508,0.657208,-0.683878,-2.075704,-0.212869,-6.921098
1790547840.2823,0.032055,0.007057,-0.293592,0.037049,-0.000342,-0.293592,-1.471917,1.164720,-0.364558,-0.427600,-0.473129,-6.338930
1790547840.2963,0.020863,0.026206,-0.304222,0.025719,0.018242,-0.304222,-1.346860,1.180504,-0.764011,-2.190688,1.237151,-5.407462
1790547840.3102,-0.001847,0.042443,-0.318000,0.006423,0.035183,-0.318000,-1.017827,1.822785,-0.609815,-0.159304,2.278191,-5.019350
1790547840.3242,0.005279,0.036748,-0.328840,0.005622,0.036278,-0.328840,0.306802,-0.162337,-0.717874,-5.601878,-0.138509,-16.468651
1790547840.3380,0.012013,0.032675,-0.327660,0.010096,0.033756,-0.327660,0.270377,-0.575146,0.110171,1.757095,2.612811,-16.391028
1790547840.3520,0.005385,0.036848,-0.321994,0.006798,0.035920,-0.321994,-0.306340,0.346388,0.535121,0.798895,2.203831,-11.267951
1790547840.3659,0.012049,0.033427,-0.312665,0.010474,0.034175,-0.312665,0.119824,-0.474372,0.571545,-2.075704,0.010211,-10.879840
1790547840.3799,0.002824,0.022579,-0.303151,0.005119,0.026058,-0.303151,0.817955,0.738556,0.473200,-0.580912,0.642271,-2.457811
1790547840.3937,-0.012604,0.010357,-0.304874,-0.007288,0.015067,-0.304874,0.868949,0.839330,0.580044,3.060246,1.423051,-8.434735
1790547840.4074,-0.024921,-0.002587,-0.295357,-0.019631,0.002709,-0.295357,0.998863,0.762839,0.780378,0.798895,2.501271,-8.628791
1790547840.4215,-0.043840,-0.012332,-0.284090,-0.036577,-0.007820,-0.284090,0.723252,1.163506,0.967356,1.335487,2.575631,-8.978091
1790547840.4357,-0.050737,-0.018220,-0.269285,-0.046489,-0.015100,-0.269285,0.447642,0.469016,0.969784,-1.270816,3.282051,-10.530539
1790547840.4496,-0.044688,-0.027411,-0.253684,-0.045228,-0.023718,-0.253684,0.726895,-0.482871,0.884794,-0.465928,3.096151,-8.357112
1790547840.4636,-0.033786,-0.025917,-0.238201,-0.037219,-0.025257,-0.238201,-0.163071,-0.890823,0.977069,0.338959,2.092291,-13.402567
1790547840.4776,-0.029705,-0.021041,-0.226674,-0.031959,-0.022306,-0.226674,-0.475106,-0.582431,0.929717,3.788478,0.233291,-11.578441
1790547840.4915,-0.028284,-0.016852,-0.218436,-0.029386,-0.018489,-0.218436,-0.470249,-0.470730,0.873867,4.938317,-0.807749,-9.948371
1790547840.5054,-0.014733,-0.005086,-0.206940,-0.019129,-0.009107,-0.206940,-0.940122,-1.296346,0.787663,2.715294,0.530731,-7.386832
1790547840.5193,-0.007258,0.008272,-0.197471,-0.010819,0.003059,-0.197471,-1.056680,-0.860469,0.656535,3.251886,0.344831,-8.163056
1790547840.5332,0.004330,0.024102,-0.189963,-0.000215,0.017789,-0.189963,-1.170809,-1.138508,0.558190,2.753622,1.199971,-7.697322
1790547840.5472,0.001299,0.025602,-0.175949,0.000845,0.023258,-0.175949,-0.282057,0.085348,0.450131,1.757095,-1.365448,-15.886483
1790547840.5610,-0.001320,0.019633,-0.180851,-0.000671,0.020720,-0.180851,0.497422,0.374313,-0.317207,-1.922392,2.947431,-10.763406
1790547840.5748,0.014553,0.015094,-0.188724,0.009986,0.016782,-0.188724,0.360224,-0.837400,-0.920635,-3.417183,2.724351,-13.169700
1790547840.5888,0.010988,0.010203,-0.206123,0.010687,0.012177,-0.206123,0.386935,0.141198,-0.608601,3.366870,1.794851,-8.240679
1790547840.6027,0.023245,0.001983,-0.205107,0.019477,0.005041,-0.205107,0.548416,-0.708701,-0.398554,-1.807408,0.828171,-9.482637
1790547840.6167,0.037987,-0.014110,-0.208941,0.032434,-0.008365,-0.208941,1.098422,-0.854398,-0.720302,-2.267343,0.790991,-12.703965
1790547840.6306,0.051568,-0.031484,-0.225110,0.045828,-0.024548,-0.225110,1.360677,-0.736627,-1.082116,-1.539112,2.724351,-7.542077
1790547840.6443,0.065115,-0.039036,-0.247711,0.059329,-0.034690,-0.247711,0.730537,-0.872611,-1.247240,0.070663,3.616671,-7.076343
1790547840.6587,0.066646,-0.045261,-0.265237,0.064451,-0.042090,-0.265237,0.509563,-0.141697,-1.057833,1.833751,2.501271,-7.658511
1790547840.6729,0.056778,-0.056742,-0.278776,0.059080,-0.052346,-0.278776,0.760891,0.787122,-0.915779,-0.197632,1.125611,-13.674245
1790547840.6869,0.040389,-0.056029,-0.293240,0.045996,-0.054924,-0.293240,-0.085366,1.272778,-0.931563,-0.427600,1.646131,-19.340679
1790547840.7009,0.037724,-0.042419,-0.308198,0.040205,-0.046170,-0.308198,-1.003258,0.568576,-0.918207,-5.678534,0.790991,-10.802217
1790547840.7148,0.038656,-0.032792,-0.316230,0.039121,-0.036806,-0.316230,-0.925553,0.275968,-0.782223,-3.953775,-2.480848,-8.395923
1790547840.7288,0.028015,-0.013619,-0.327286,0.031347,-0.020575,-0.327286,-1.442777,1.061518,-0.766439,-1.347472,0.158931,-4.204315
1790547840.7427,0.016843,0.006402,-0.340334,0.021194,-0.001691,-0.340334,-1.581189,1.129510,-0.732443,-1.845736,-0.510309,-5.446273
1790547840.7567,-0.002242,0.022651,-0.356292,0.004789,0.015349,-0.356292,-1.261870,1.638235,-0.772510,-0.887536,-0.101329,-5.368651
1790547840.7706,-0.022660,0.037122,-0.360685,-0.014425,0.030590,-0.360685,-0.949835,1.867708,-0.772510,-2.305671,1.757671,-6.532986
1790547840.7847,-0.007643,0.037220,-0.365177,-0.009678,0.035231,-0.365177,0.019050,-0.913891,-0.651096,-0.964192,4.434631,-21.281238
1790547840.7988,-0.004490,0.033485,-0.358270,-0.006047,0.034009,-0.358270,0.317729,-0.295893,0.213373,1.105519,4.248731,-14.101168
1790547840.8131,-0.016950,0.032351,-0.352334,-0.013679,0.032848,-0.352334,0.044547,0.648709,0.808303,1.795423,1.683311,-9.599070
1790547840.8269,-0.012027,0.022363,-0.346248,-0.012523,0.025509,-0.346248,0.615194,-0.229115,0.556976,-2.535639,0.270471,-6.882287
1790547840.8409,-0.021150,0.012599,-0.368483,-0.018562,0.016472,-0.368483,0.652832,0.180051,0.323860,3.366870,0.344831,-3.311658
1790547840.8547,-0.037753,0.000386,-0.361285,-0.031996,0.005212,-0.361285,0.946654,0.926748,0.632252,2.715294,2.241011,-6.843476
1790547840.8684,-0.051348,-0.011129,-0.349832,-0.045543,-0.006227,-0.349832,0.896875,0.889110,0.754881,0.837223,3.021791,-9.754315
1790547840.8820,-0.064737,-0.017731,-0.333763,-0.058979,-0.014280,-0.333763,0.579984,0.932819,0.826515,-0.044320,3.616671,-8.939280
1790547840.8961,-0.070210,-0.022718,-0.318238,-0.066841,-0.020187,-0.318238,0.385721,0.314820,0.866582,0.300631,3.505131,-10.879840
1790547840.9104,-0.058929,-0.024335,-0.305693,-0.061302,-0.023090,-0.305693,-0.008875,-0.878681,0.852012,0.415615,1.051251,-13.790679
1790547840.9243,-0.047324,-0.020923,-0.293467,-0.051517,-0.021573,-0.293467,-0.299055,-0.966100,0.718456,1.488799,2.017931,-12.703965
1790547840.9383,-0.042972,-0.017113,-0.283607,-0.045536,-0.018451,-0.283607,-0.420470,-0.583645,0.792519,3.865134,-0.138509,-11.306763
1790547840.9522,-0.036240,-0.010265,-0.273082,-0.039029,-0.012721,-0.273082,-0.619589,-0.737841,0.773093,1.987063,0.196111,-6.882287
1790547840.9660,-0.028253,-0.004762,-0.265487,-0.031486,-0.007150,-0.265487,-0.513958,-0.766980,0.532693,2.255358,0.196111,-10.103616
1790547840.9799,-0.018255,0.004626,-0.260511,-0.022225,0.001093,-0.260511,-0.777427,-0.906607,0.320218,2.753622,0.344831,-10.996273
1790547840.9938,-0.005086,0.021464,-0.259161,-0.010227,0.015352,-0.259161,-1.248514,-1.132437,0.071319,2.983590,1.199971,-9.715504
1790547841.0079,-0.000965,0.033051,-0.260106,-0.003743,0.027741,-0.260106,-0.862417,-0.501083,-0.014885,3.635166,1.199971,-9.405014
1790547841.0218,-0.009170,0.027974,-0.266110,-0.007542,0.027904,-0.266110,0.291018,0.636568,-0.527253,2.063719,0.456371,-14.450469
1790547841.0356,0.004071,0.025762,-0.265211,0.000587,0.026405,-0.265211,0.229096,-0.488942,-1.014124,-5.371910,2.798711,-10.375294
1790547841.0496,0.005602,0.024929,-0.290410,0.004097,0.025372,-0.290410,0.343226,-0.207261,-0.757940,2.140375,3.133331,-3.893825
1790547841.0634,0.009317,0.016541,-0.299295,0.007751,0.019190,-0.299295,0.629763,-0.220616,-0.632884,1.028863,1.720491,-8.706413
1790547841.0774,0.022913,0.004123,-0.308407,0.018364,0.008643,-0.308407,0.875020,-0.740269,-0.938848,-1.615768,1.497411,-11.617252
1790547841.0913,0.038007,-0.006479,-0.324898,0.032114,-0.001943,-0.324898,0.879877,-0.842257,-1.134324,-1.040848,2.501271,-6.843476
1790547841.1049,0.043353,-0.014387,-0.341502,0.039981,-0.010653,-0.341502,0.669830,-0.325033,-1.168320,0.952207,2.055111,-6.300119
1790547841.1187,0.050894,-0.022467,-0.355895,0.047620,-0.018923,-0.355895,0.583626,-0.396667,-1.044478,-0.312616,1.423051,-8.357112
1790547841.1335,0.061615,-0.035404,-0.369670,0.057416,-0.030460,-0.369670,0.838596,-0.560576,-1.005625,-1.040848,1.051251,-9.754315
1790547841.1482,0.047012,-0.040288,-0.385114,0.050133,-0.037339,-0.385114,0.281305,1.127081,-0.959488,-0.887536,1.794851,-21.281238
1790547841.1625,0.038808,-0.028660,-0.394451,0.042206,-0.031264,-0.394451,-0.847848,0.883039,-0.709375,-5.026958,1.051251,-12.277042
1790547841.1766,0.037765,-0.017705,-0.398048,0.039097,-0.021772,-0.398048,-0.960763,0.416808,-0.680235,-4.873646,-1.923148,-10.414105
1790547841.1907,0.030592,-0.001932,-0.406049,0.033144,-0.007884,-0.406049,-1.338361,0.867255,-0.698447,-2.343999,-1.253909,-5.096972
1790547841.2047,0.013228,0.017584,-0.414361,0.019203,0.009943,-0.414361,-1.233945,1.288562,-0.626813,0.607255,1.980751,-4.243126
1790547841.2187,-0.000753,0.029578,-0.427947,0.005234,0.023687,-0.427947,-1.003258,1.295847,-0.611029,-1.884064,-0.659029,-7.580888
1790547841.2328,-0.004313,0.034936,-0.436207,-0.001449,0.031562,-0.436207,-0.445967,0.522439,-0.569748,-4.260399,0.865351,-18.525644
1790547841.2467,0.001142,0.033791,-0.437939,0.000364,0.033122,-0.437939,0.003266,-0.363885,-0.006386,-0.580912,1.199971,-18.098721
1790547841.2606,-0.002194,0.038064,-0.430197,-0.001426,0.036581,-0.430197,-0.268702,0.175194,0.397923,0.147319,3.170511,-11.423196
1790547841.2746,-0.003717,0.028730,-0.431555,-0.003030,0.031085,-0.431555,0.465854,-0.032424,0.632252,0.415615,-0.882109,-7.348021
1790547841.2885,-0.010952,0.020818,-0.434993,-0.008575,0.023898,-0.434993,0.594553,0.139984,0.328717,2.676966,1.014071,-3.893825
1790547841.3025,-0.026984,0.009675,-0.434207,-0.021462,0.013942,-0.434207,0.824026,0.954673,0.462272,2.753622,2.352551,-9.909560
1790547841.3165,-0.039380,-0.003695,-0.425900,-0.034005,0.001596,-0.425900,0.953939,0.768910,0.729384,0.990535,2.389731,-11.423196
1790547841.3300,-0.055001,-0.012892,-0.414900,-0.048702,-0.008545,-0.414900,0.745107,1.010524,0.850798,1.143847,3.058971,-8.822846
1790547841.3437,-0.062872,-0.018627,-0.400244,-0.058621,-0.015603,-0.400244,0.493779,0.467802,0.893293,0.645583,3.542311,-9.094525
1790547841.3577,-0.064374,-0.023849,-0.385997,-0.062648,-0.021375,-0.385997,0.383293,0.000358,0.900578,0.492271,2.129471,-7.348021
1790547841.3717,-0.065384,-0.027680,-0.372319,-0.064563,-0.025789,-0.372319,0.297088,-0.051851,0.854440,0.990535,2.649991,-8.667602
1790547841.3855,-0.055316,-0.031954,-0.359405,-0.058090,-0.030104,-0.359405,0.216955,-0.785192,0.835014,-0.159304,1.497411,-13.984735
1790547841.3995,-0.046418,-0.029805,-0.347469,-0.049920,-0.029895,-0.347469,-0.261417,-0.851970,0.713600,3.903462,0.679451,-13.984735
1790547841.4138,-0.040190,-0.020436,-0.335418,-0.043109,-0.023274,-0.335418,-0.793211,-0.718415,0.605541,4.938317,-0.361589,-11.578441
1790547841.4279,-0.032009,-0.005248,-0.326645,-0.035339,-0.010656,-0.326645,-1.184165,-0.832544,0.459844,3.520182,0.344831,-9.676693
1790547841.4418,-0.015831,0.012997,-0.320924,-0.021683,0.005901,-0.320924,-1.343218,-1.427474,0.272866,2.485326,0.939711,-6.106063
1790547841.4558,0.000964,0.028108,-0.312917,-0.005830,0.021446,-0.312917,-1.124672,-1.510035,0.282579,2.868606,0.790991,-6.144874
1790547841.4698,0.017963,0.041800,-0.313466,0.010825,0.035694,-0.313466,-0.892771,-1.350983,0.187876,1.297159,3.319231,-9.133336
1790547841.4840,-0.003006,0.029531,-0.315674,0.001143,0.031380,-0.315674,0.821598,1.490110,-0.138728,2.217030,1.869211,-19.224245
1790547841.4979,0.002249,0.023272,-0.328688,0.001917,0.025704,-0.328688,0.556915,-0.038495,-0.884211,-4.337055,5.029511,-14.760958
1790547841.5119,0.007971,0.023552,-0.334940,0.006155,0.024198,-0.334940,-0.082938,-0.442804,-1.022623,3.711822,0.419191,-9.482637
1790547841.5257,0.016842,0.016446,-0.333898,0.013636,0.018772,-0.333898,0.396648,-0.428235,-0.833217,-0.772552,-0.212869,-7.076343
1790547841.5397,0.032382,0.007421,-0.341696,0.026758,0.010826,-0.341696,0.718396,-0.647994,-0.738514,-2.650623,1.125611,-3.544525
1790547841.5533,0.045107,-0.009936,-0.349913,0.039603,-0.003707,-0.349913,1.228335,-0.730556,-0.915779,-1.309144,0.865351,-9.793126
1790547841.5669,0.060480,-0.022133,-0.369019,0.054217,-0.016606,-0.369019,1.018289,-0.830116,-1.258167,-2.190688,3.282051,-8.046623
1790547841.5805,0.070690,-0.032992,-0.388584,0.065748,-0.028076,-0.388584,0.855594,-0.722057,-1.260595,1.603783,2.798711,-9.094525
1790547841.5945,0.055268,-0.037997,-0.405861,0.058412,-0.035021,-0.405861,0.301945,1.131938,-1.134324,2.332014,1.571771,-14.334035
1790547841.6085,0.035436,-0.028472,-0.421806,0.042328,-0.030436,-0.421806,-0.732504,1.622451,-1.016553,-1.692424,1.460231,-16.196973
1790547841.6224,0.036388,-0.021177,-0.428673,0.038170,-0.023955,-0.428673,-0.690009,0.268683,-0.852643,-5.295254,-1.997508,-13.053266
1790547841.6364,0.036660,-0.014157,-0.438070,0.037113,-0.017097,-0.438070,-0.686367,0.320891,-0.870856,-3.033903,-1.328269,-7.697322
1790547841.6504,0.019110,0.006834,-0.450205,0.024511,-0.000345,-0.450205,-1.448848,1.401478,-0.698447,-0.159304,1.051251,-4.165504
1790547841.6650,0.012336,0.028582,-0.464630,0.015988,0.019904,-0.464630,-1.490129,0.934033,-0.960702,-3.072231,0.865351,-5.485084
1790547841.6791,-0.002995,0.043264,-0.477558,0.002700,0.036256,-0.477558,-1.004472,1.497395,-0.833217,-2.114032,1.311511,-5.756762
1790547841.6931,0.011251,0.036383,-0.494393,0.008685,0.036345,-0.494393,0.342012,-0.711130,-0.802864,-5.525222,-1.774428,-20.388581
1790547841.7071,0.005331,0.032289,-0.493081,0.006337,0.033506,-0.493081,0.345654,0.268683,0.243727,2.945262,4.025651,-13.596623
1790547841.7213,-0.002527,0.028392,-0.488301,0.000132,0.029927,-0.488301,0.184173,0.500584,0.614040,-0.849208,0.790991,-14.062357
1790547841.7364,-0.007546,0.017115,-0.486593,-0.005242,0.020959,-0.486593,0.618836,0.249257,0.566689,0.032335,-0.212869,-8.900469
1790547841.7510,-0.024973,0.006289,-0.496897,-0.019054,0.010690,-0.496897,0.855594,0.685134,0.229157,2.523654,0.865351,-1.371098
1790547841.7660,-0.048684,-0.008346,-0.494702,-0.039795,-0.002636,-0.494702,1.004933,1.372338,0.575188,3.213558,2.241011,-9.288581
1790547841.7805,-0.063669,-0.020966,-0.484592,-0.056507,-0.015467,-0.484592,0.918729,0.960744,0.735454,0.492271,2.984611,-9.521448
1790547841.7954,-0.077733,-0.029654,-0.471412,-0.071365,-0.025398,-0.471412,0.663759,0.869683,0.824087,0.530599,3.542311,-8.667602
1790547841.8092,-0.081729,-0.036299,-0.456496,-0.078620,-0.033029,-0.456496,0.522919,0.237115,0.933360,0.032335,3.430771,-9.482637
1790547841.8232,-0.071395,-0.039338,-0.443817,-0.073563,-0.037445,-0.443817,0.146535,-0.833758,0.794947,1.258831,2.166651,-14.101168
1790547841.8373,-0.058865,-0.035628,-0.433116,-0.063274,-0.036173,-0.433116,-0.353692,-0.996453,0.646822,1.527127,1.162791,-13.053266
1790547841.8513,-0.057104,-0.034400,-0.419246,-0.058955,-0.034932,-0.419246,-0.245633,-0.422164,0.759737,4.325070,-0.398769,-9.793126
1790547841.8652,-0.049428,-0.032452,-0.407080,-0.052286,-0.033196,-0.407080,-0.280843,-0.731770,0.720885,1.335487,-0.026969,-6.144874
1790547841.8793,-0.035944,-0.023784,-0.397334,-0.040846,-0.026608,-0.397334,-0.704579,-1.074158,0.526622,1.067191,0.530731,-8.512357
1790547841.8933,-0.022151,-0.008105,-0.389735,-0.027760,-0.013656,-0.389735,-1.229088,-1.229568,0.342072,4.593365,-0.101329,-11.966553
1790547841.9078,-0.013343,0.009512,-0.385169,-0.017668,0.002562,-0.385169,-1.333504,-0.905392,0.153880,5.091629,-0.250049,-9.482637
1790547841.9226,-0.002172,0.030113,-0.385398,-0.006821,0.021848,-0.385398,-1.446420,-1.031663,0.008183,3.865134,0.605091,-7.115154
1790547841.9360,0.003531,0.037174,-0.371364,0.000425,0.032576,-0.371364,-0.704579,-0.456160,-0.037954,1.028863,-1.030829,-14.101168
1790547841.9490,-0.000326,0.032436,-0.365291,-0.000100,0.032478,-0.365291,0.284947,0.540651,-0.441049,-2.612295,0.716631,-13.053266
1790547841.9620,0.014983,0.024801,-0.375974,0.010458,0.027104,-0.375974,0.752392,-0.827687,-0.694805,-4.298727,4.806431,-10.336483
1790547841.9757,0.013914,0.019964,-0.397528,0.012878,0.022106,-0.397528,0.465854,0.036782,-0.580676,2.753622,3.802571,-10.375294
1790547841.9897,0.018593,0.010530,-0.401473,0.016878,0.014003,-0.401473,0.667402,-0.073705,-0.708161,-2.190688,1.385871,-9.521448
1790547842.0037,0.036391,-0.001655,-0.409887,0.030537,0.003043,-0.409887,0.867735,-1.018308,-1.000769,-1.845736,1.608951,-10.103616
1790547842.0173,0.048749,-0.013419,-0.423757,0.043286,-0.008481,-0.423757,0.915087,-0.624926,-1.168320,-1.577440,1.757671,-6.959909
1790547842.0309,0.056419,-0.024725,-0.441075,0.052479,-0.019852,-0.441075,0.885947,-0.440376,-1.079688,0.032335,1.869211,-6.843476
1790547842.0449,0.069974,-0.032608,-0.457398,0.064726,-0.028781,-0.457398,0.617622,-0.775479,-1.114898,-1.155832,2.203831,-7.813756
1790547842.0587,0.079379,-0.038299,-0.473781,0.074983,-0.035443,-0.473781,0.473139,-0.565433,-1.020195,-0.427600,2.724351,-8.978091
1790547842.0726,0.040266,-0.034633,-0.491187,0.050681,-0.034876,-0.491187,-0.296627,2.925226,-0.880569,-0.235960,2.910251,-21.281238
1790547842.0866,0.041033,-0.016548,-0.505214,0.043927,-0.022046,-0.505214,-1.301937,0.312392,-0.980128,-6.100142,2.055111,-13.751868
1790547842.1007,0.036660,-0.003523,-0.514533,0.038840,-0.009080,-0.514533,-1.122244,0.615928,-0.719088,-3.915447,-1.960328,-11.267951
1790547842.1146,0.032100,0.014593,-0.523136,0.034122,0.007491,-0.523136,-1.406353,0.787122,-0.748227,-3.455511,-0.175689,-5.329839
1790547842.1286,0.016030,0.030691,-0.539674,0.021458,0.023731,-0.539674,-1.266727,1.260637,-0.625599,0.185647,0.010211,-3.738581
1790547842.1425,-0.001115,0.043602,-0.544875,0.005657,0.037640,-0.544875,-0.898842,1.694086,-0.762797,-2.229015,0.976891,-4.553616
1790547842.1565,-0.001025,0.032295,-0.556130,0.000980,0.033899,-0.556130,0.713539,0.364600,-0.631670,-5.946830,-0.101329,-14.683336
1790547842.1708,0.004138,0.025547,-0.553864,0.003190,0.028053,-0.553864,0.502278,-0.420950,0.050678,1.718767,4.360271,-18.059910
1790547842.1847,-0.003150,0.025100,-0.554591,-0.001248,0.025986,-0.554591,-0.030730,0.373099,0.485341,1.757095,1.274331,-12.742777
1790547842.1988,-0.003254,0.018624,-0.549156,-0.002652,0.020833,-0.549156,0.362652,-0.093131,0.669891,-0.082648,0.493551,-9.948371
1790547842.2126,-0.009353,0.008728,-0.538897,-0.007343,0.012359,-0.538897,0.702612,0.507869,0.400351,-1.615768,1.460231,-9.172147
1790547842.2265,-0.023945,-0.002967,-0.539560,-0.018965,0.001631,-0.539560,0.790030,0.923106,0.496268,1.258831,0.865351,-8.745224
1790547842.2405,-0.035942,-0.016716,-0.526004,-0.030848,-0.011212,-0.526004,1.020717,0.738556,0.774307,0.837223,2.501271,-9.405014
1790547842.2542,-0.053374,-0.026182,-0.509692,-0.046616,-0.021691,-0.509692,0.722038,1.124653,1.012279,1.067191,2.389731,-8.551168
1790547842.2680,-0.062172,-0.031835,-0.488046,-0.057505,-0.028792,-0.488046,0.429430,0.560077,1.075414,-0.005993,3.058971,-10.336483
1790547842.2820,-0.059688,-0.034375,-0.467759,-0.059033,-0.032700,-0.467759,0.195100,-0.180550,0.896935,-0.810880,2.278191,-8.124245
1790547842.2959,-0.047363,-0.037072,-0.452324,-0.050864,-0.035761,-0.452324,0.091898,-1.007380,1.037776,0.645583,1.274331,-12.160609
1790547842.3099,-0.037207,-0.034317,-0.445382,-0.041305,-0.034750,-0.445382,-0.339122,-0.878681,0.899364,1.450471,0.047391,-11.617252
1790547842.3239,-0.037421,-0.031223,-0.453641,-0.038586,-0.032281,-0.453641,-0.433825,-0.326247,0.905434,4.593365,-1.402628,-9.870749
1790547842.3378,-0.028518,-0.023041,-0.450201,-0.031538,-0.025813,-0.450201,-0.724005,-0.899322,0.757309,2.830278,-0.064149,-9.133336
1790547842.3518,-0.013346,-0.009074,-0.446001,-0.018804,-0.014096,-0.446001,-1.107674,-1.360696,0.634681,3.405198,0.196111,-9.948371
1790547842.3657,-0.002336,0.009103,-0.440955,-0.007277,0.002144,-0.440955,-1.368715,-1.136079,0.539978,3.558510,0.679451,-7.464455
1790547842.3796,0.009828,0.025096,-0.435292,0.004697,0.018211,-0.435292,-1.203591,-1.166433,0.509624,2.485326,0.902531,-7.503266
1790547842.3936,0.003868,0.025885,-0.435610,0.004117,0.023583,-0.435610,-0.153358,0.356101,0.071319,2.178703,0.382011,-17.206063
1790547842.4076,0.006085,0.017992,-0.433926,0.005494,0.019669,-0.433926,0.578769,0.054994,-0.516326,-2.382327,2.426911,-13.247322
1790547842.4219,0.023656,0.010092,-0.435213,0.018207,0.012965,-0.435213,0.558129,-0.907821,-1.035979,-3.187215,2.055111,-12.393476
1790547842.4360,0.023966,0.006584,-0.444427,0.022238,0.008498,-0.444427,0.399076,-0.095560,-0.408267,1.258831,2.166651,-4.864105
1790547842.4500,0.030541,-0.003051,-0.443064,0.028050,0.000414,-0.443064,0.655260,-0.306820,-0.362130,-1.615768,0.865351,-8.667602
1790547842.4640,0.046717,-0.018776,-0.449460,0.041117,-0.013019,-0.449460,1.082638,-0.977027,-0.822290,-1.539112,1.051251,-11.811308
1790547842.4776,0.057176,-0.030082,-0.464003,0.052359,-0.024963,-0.464003,0.895660,-0.728128,-1.001983,0.990535,2.538451,-9.210958
1790547842.4912,0.059075,-0.033433,-0.479105,0.057060,-0.030892,-0.479105,0.395434,-0.114986,-1.037193,1.028863,3.096151,-6.765853
1790547842.5051,0.064527,-0.037821,-0.493258,0.062287,-0.035742,-0.493258,0.388149,-0.270396,-1.068761,-0.197632,1.906391,-6.183686
1790547842.5191,0.064892,-0.045255,-0.502005,0.064110,-0.042401,-0.502005,0.688042,0.024640,-0.671736,0.070663,4.508991,-10.142427
1790547842.5330,0.035129,-0.040965,-0.514294,0.043824,-0.041396,-0.514294,-0.384045,2.126320,-0.710589,2.753622,0.493551,-17.128441
1790547842.5468,0.039306,-0.028488,-0.518470,0.040661,-0.032360,-0.518470,-0.952264,0.069564,-0.693591,-7.939885,0.753811,-14.566903
1790547842.5608,0.025768,-0.015702,-0.529159,0.030236,-0.020699,-0.529159,-1.110102,1.140437,-0.585532,-0.849208,-1.142369,-6.649420
1790547842.5747,0.026236,-0.001202,-0.530633,0.027436,-0.007051,-0.530633,-1.274011,0.435020,-0.665666,-4.107087,-1.885968,-5.213406
1790547842.5886,0.010921,0.017207,-0.544531,0.015876,0.009929,-0.544531,-1.293438,1.112512,-0.578247,0.990535,1.199971,-5.562707
1790547842.6026,-0.006222,0.026568,-0.553318,0.000407,0.021577,-0.553318,-0.725219,1.452472,-0.505399,-1.347472,0.530731,-8.745224
1790547842.6166,0.001700,0.026857,-0.550097,0.001312,0.025273,-0.550097,-0.025873,-0.338388,-0.330562,-4.260399,2.501271,-15.653616
1790547842.6306,0.007225,0.025853,-0.544699,0.005451,0.025679,-0.544699,-0.024659,-0.292251,0.297149,-2.842263,0.344831,-10.996273
1790547842.6445,0.007217,0.023910,-0.543429,0.006688,0.024441,-0.543429,0.028763,-0.165980,0.718456,0.760567,0.307651,-11.462007
1790547842.6585,0.010110,0.019768,-0.544174,0.009083,0.021170,-0.544174,0.216955,-0.459802,0.705101,1.527127,0.530731,-7.231588
1790547842.6729,-0.000438,0.011511,-0.538748,0.002419,0.014408,-0.538748,0.680757,0.534580,0.485341,1.642111,2.426911,-6.300119
1790547842.6870,-0.018908,-0.000036,-0.538259,-0.012510,0.004297,-0.538259,0.843452,1.113726,0.516909,2.523654,2.203831,-9.637881
1790547842.7008,-0.034188,-0.012661,-0.528008,-0.027685,-0.007573,-0.528008,0.926014,0.966815,0.838657,1.182175,2.687171,-11.772497
1790547842.7144,-0.050181,-0.020395,-0.513619,-0.043432,-0.016549,-0.513619,0.635834,1.026308,0.939430,1.297159,3.430771,-9.987182
1790547842.7281,-0.057949,-0.025415,-0.495598,-0.053594,-0.022755,-0.495598,0.425787,0.466588,0.969784,0.492271,3.616671,-10.181238
1790547842.7420,-0.059735,-0.031571,-0.481418,-0.057893,-0.028926,-0.481418,0.417288,0.053780,0.845941,0.262303,1.832031,-8.900469
1790547842.7559,-0.052980,-0.037264,-0.473971,-0.054454,-0.034763,-0.473971,0.238810,-0.599429,0.760951,1.335487,-0.659029,-13.519000
1790547842.7699,-0.038643,-0.038897,-0.464351,-0.043386,-0.037656,-0.464351,0.031191,-1.121510,0.651679,1.105519,0.976891,-13.868301
1790547842.7838,-0.031517,-0.031571,-0.460486,-0.035078,-0.033396,-0.460486,-0.643872,-0.807047,0.695388,4.823333,-0.026969,-11.423196
1790547842.7978,-0.029584,-0.023900,-0.454794,-0.031232,-0.026749,-0.454794,-0.711864,-0.485299,0.753667,4.708349,-0.807749,-9.327392
1790547842.8117,-0.019546,-0.008659,-0.450405,-0.023051,-0.014086,-0.450405,-1.182951,-1.008595,0.513266,2.791950,0.382011,-6.959909
1790547842.8257,-0.008869,0.008401,-0.447241,-0.013124,0.001655,-0.447241,-1.288581,-1.031663,0.326289,3.251886,0.642271,-8.240679
1790547842.8396,0.007237,0.025833,-0.443830,0.001129,0.018580,-0.443830,-1.304365,-1.375265,0.225515,2.102047,0.790991,-7.192776
1790547842.8536,0.013093,0.036239,-0.445981,0.009504,0.030941,-0.445981,-0.722791,-0.609142,0.152666,2.523654,2.203831,-9.210958
1790547842.8674,-0.000344,0.026197,-0.451431,0.002611,0.027620,-0.451431,0.678329,0.986241,-0.309922,2.370342,1.832031,-19.263056
1790547842.8815,0.011969,0.024870,-0.454019,0.009161,0.025695,-0.454019,0.178103,-0.599429,-0.821076,-3.187215,4.360271,-13.907112
1790547842.8954,0.014370,0.023467,-0.464489,0.012807,0.024135,-0.464489,0.095541,-0.265540,-0.555179,2.945262,1.385871,-8.589979
1790547842.9096,0.019430,0.012075,-0.461156,0.017443,0.015693,-0.461156,0.732965,-0.224259,-0.443478,-0.734224,0.419191,-8.395923
1790547842.9243,0.034993,-0.001965,-0.461522,0.029728,0.003332,-0.461522,0.986721,-0.765766,-0.845359,-2.497311,1.832031,-8.085434
1790547842.9383,0.049719,-0.013907,-0.475359,0.043722,-0.008735,-0.475359,0.913873,-0.885966,-1.008054,-0.427600,1.608951,-5.912007
1790547842.9521,0.057164,-0.020333,-0.493996,0.053132,-0.016854,-0.493996,0.552058,-0.454946,-0.987413,0.453943,3.058971,-9.288581
1790547842.9662,0.062005,-0.027179,-0.510772,0.059343,-0.024081,-0.510772,0.524133,-0.272824,-0.927920,0.453943,2.315371,-9.327392
1790547842.9804,0.069900,-0.034892,-0.524111,0.066733,-0.031649,-0.524111,0.581198,-0.395453,-0.880569,-1.347472,2.501271,-9.987182
1790547842.9946,0.060173,-0.037416,-0.537260,0.062141,-0.035686,-0.537260,0.216955,0.793192,-0.671736,-0.964192,3.393591,-14.217602
1790547843.0085,0.038300,-0.026845,-0.543217,0.045453,-0.029497,-0.543217,-0.768928,1.804573,-0.543037,-4.605350,2.464091,-16.856763
1790547843.0226,0.040003,-0.012107,-0.534388,0.041638,-0.017324,-0.534388,-1.091890,0.255327,-0.510255,-7.326637,0.865351,-12.199420
1790547843.0368,0.034693,-0.001080,-0.532687,0.036777,-0.005953,-0.532687,-0.936480,0.719130,-0.428908,-3.225543,-0.919289,-6.067252
1790547843.0508,0.023425,0.010251,-0.536994,0.027431,0.005390,-0.536994,-0.915840,0.958316,-0.235859,-0.734224,-0.026969,-4.437182
1790547843.0648,0.008152,0.023018,-0.540051,0.013936,0.017730,-0.540051,-0.855132,1.238782,-0.283211,-0.657568,1.571771,-5.717951
1790547843.0789,-0.003812,0.038101,-0.542375,0.001512,0.031990,-0.542375,-1.006900,1.123439,-0.376700,-3.302199,3.058971,-10.879840
1790547843.0932,0.009903,0.035336,-0.549202,0.007386,0.034332,-0.549202,0.014193,-0.855613,-0.101089,-3.493839,-2.369308,-21.281238
1790547843.1071,0.010787,0.035489,-0.550968,0.009766,0.035142,-0.550968,-0.030730,-0.361457,0.508410,4.516709,2.278191,-12.781588
1790547843.1212,0.006139,0.030772,-0.547118,0.007227,0.032083,-0.547118,0.281305,0.082919,0.730598,1.718767,0.976891,-8.357112
1790547843.1355,0.000000,0.025670,-0.544211,0.002168,0.027594,-0.544211,0.454927,0.194620,0.433133,1.642111,1.980751,-5.058161
1790547843.1495,-0.013547,0.016766,-0.541052,-0.008832,0.020014,-0.541052,0.673472,0.779837,0.533907,1.795423,2.203831,-8.201867
1790547843.1633,-0.024393,0.004857,-0.534048,-0.019725,0.009404,-0.534048,0.881091,0.619570,0.712386,1.450471,2.352551,-9.870749
1790547843.1774,-0.043119,-0.006942,-0.525900,-0.036101,-0.002038,-0.525900,0.901731,1.157435,0.815588,1.527127,2.835891,-8.551168
1790547843.1913,-0.055230,-0.015827,-0.514170,-0.049491,-0.011691,-0.514170,0.646761,0.764053,0.922432,0.453943,2.724351,-10.297672
1790547843.2057,-0.060805,-0.023118,-0.500582,-0.057411,-0.019690,-0.500582,0.494994,0.303893,0.939430,0.147319,2.129471,-8.784035
1790547843.2196,-0.051484,-0.026592,-0.485522,-0.053262,-0.024522,-0.485522,0.267949,-0.785192,0.915147,0.760567,3.728211,-12.044175
1790547843.2336,-0.039196,-0.025452,-0.471738,-0.043416,-0.025173,-0.471738,-0.161857,-1.085085,0.810731,2.561982,1.311511,-11.888930
1790547843.2475,-0.036264,-0.019410,-0.454471,-0.038409,-0.021139,-0.454471,-0.573451,-0.563004,0.878723,4.171758,-0.026969,-8.822846
1790547843.2614,-0.027776,-0.012918,-0.437365,-0.030966,-0.015384,-0.437365,-0.666940,-0.842257,0.791305,2.332014,-1.068009,-9.366203
1790547843.2755,-0.017416,-0.000142,-0.430295,-0.021481,-0.004715,-0.430295,-0.955906,-1.019522,0.533907,3.290214,1.162791,-8.667602
1790547843.2893,-0.008320,0.015847,-0.423933,-0.012268,0.009678,-0.423933,-1.216947,-0.972170,0.351786,4.018446,0.753811,-8.357112
1790547843.3033,0.003462,0.032833,-0.419986,-0.001257,0.025887,-0.419986,-1.249729,-1.162791,0.220658,3.941790,1.125611,-7.736133
1790547843.3173,-0.002274,0.030518,-0.414503,-0.001969,0.029129,-0.414503,0.070044,0.390097,-0.091376,1.757095,0.493551,-16.662707
1790547843.3312,-0.005097,0.024228,-0.423242,-0.004158,0.025698,-0.423242,0.493779,0.441091,-0.683878,-1.692424,2.538451,-11.500819
1790547843.3452,0.011765,0.023782,-0.428670,0.006988,0.024357,-0.428670,0.087042,-0.889609,-0.756726,-3.417183,2.687171,-10.297672
1790547843.3592,0.008349,0.019441,-0.430063,0.007941,0.020916,-0.430063,0.209670,0.295394,-0.467760,0.760567,0.010211,-9.405014
1790547843.3732,0.017514,0.012448,-0.432229,0.014642,0.014988,-0.432229,0.475567,-0.444018,-0.636526,-1.807408,1.237151,-10.414105
1790547843.3870,0.031416,-0.000522,-0.440335,0.026384,0.004131,-0.440335,0.944226,-0.685633,-0.995912,-2.343999,1.385871,-8.124245
1790547843.4007,0.038498,-0.008933,-0.467750,0.034864,-0.005013,-0.467750,0.735394,-0.516867,-1.071189,1.565455,2.278191,-6.144874
1790547843.4144,0.044483,-0.008540,-0.498875,0.041597,-0.007482,-0.498875,0.226668,-0.343245,-1.042050,0.492271,3.579491,-5.291028
1790547843.4289,0.050034,-0.016121,-0.511250,0.047503,-0.013529,-0.511250,0.480424,-0.233972,-1.004411,-0.389272,1.125611,-10.879840
1790547843.4427,0.064373,-0.024929,-0.525874,0.059312,-0.021509,-0.525874,0.657689,-0.788835,-1.042050,-2.229015,2.129471,-9.676693
1790547843.4568,0.054877,-0.028977,-0.540447,0.056208,-0.026737,-0.540447,0.463426,0.635354,-0.539395,1.795423,4.843611,-9.676693
1790547843.4707,0.028381,-0.026720,-0.549971,0.036729,-0.026725,-0.549971,-0.193425,1.927201,-0.658381,1.642111,1.385871,-13.014455
1790547843.4848,0.026077,-0.015210,-0.555413,0.029272,-0.018665,-0.555413,-0.906126,0.522439,-0.816219,-5.563550,-0.101329,-12.742777
1790547843.4987,0.021097,-0.005882,-0.557301,0.023549,-0.009717,-0.557301,-0.833278,0.615928,-0.663237,-2.688951,-1.402628,-10.297672
1790547843.5132,0.012751,0.011966,-0.558120,0.015991,0.005461,-0.558120,-1.343218,0.750697,-0.246787,-0.925864,-0.138509,-4.514804
1790547843.5272,0.011976,0.034480,-0.563859,0.013180,0.025774,-0.563859,-1.538694,0.490871,-0.411910,-4.490366,2.017931,-6.106063
1790547843.5413,0.000791,0.049127,-0.572493,0.004508,0.042121,-0.572493,-1.254585,1.059089,-0.263785,-2.229015,-1.402628,-6.959909
1790547843.5556,0.010402,0.046019,-0.573450,0.008634,0.044849,-0.573450,0.055474,-0.675920,0.033680,-0.350944,-1.179549,-17.865854
1790547843.5696,-0.000474,0.043049,-0.573053,0.002258,0.043589,-0.573053,0.124680,0.444734,0.750024,4.670021,0.902531,-13.014455
1790547843.5835,-0.001943,0.038815,-0.561806,-0.000682,0.040247,-0.561806,0.350511,-0.111344,0.867796,1.143847,3.542311,-10.996273
1790547843.5977,-0.005414,0.036107,-0.555857,-0.003995,0.037349,-0.555857,0.235167,0.076849,0.554547,0.952207,2.055111,-6.765853
1790547843.6117,-0.012844,0.029704,-0.551082,-0.010189,0.031997,-0.551082,0.412432,0.295394,0.620111,1.642111,0.939711,-6.571797
1790547843.6252,-0.026609,0.017535,-0.546025,-0.021683,0.021874,-0.546025,0.861664,0.766481,0.740311,2.830278,1.608951,-10.414105
1790547843.6388,-0.038742,0.007528,-0.537507,-0.033624,0.011831,-0.537507,0.811885,0.689990,0.940644,1.450471,3.505131,-9.133336
1790547843.6524,-0.042944,0.004421,-0.525419,-0.040148,0.006644,-0.525419,0.340798,0.190978,0.934574,0.147319,3.876931,-8.201867
1790547843.6664,-0.046211,0.000980,-0.512934,-0.044392,0.002679,-0.512934,0.291018,0.061065,0.985568,0.760567,2.724351,-7.464455
1790547843.6809,-0.055207,-0.003527,-0.500618,-0.051963,-0.001665,-0.500618,0.320157,0.370671,0.892079,2.945262,2.761531,-9.676693
1790547843.6950,-0.054887,-0.006524,-0.492792,-0.054009,-0.005066,-0.492792,0.241238,-0.156267,0.651679,1.450471,3.058971,-10.258860
1790547843.7088,-0.035229,-0.006163,-0.482198,-0.040863,-0.005834,-0.482198,-0.079296,-1.472397,0.566689,-0.235960,2.241011,-14.295224
1790547843.7228,-0.026253,0.006061,-0.468276,-0.030636,0.002493,-0.468276,-0.910983,-0.916320,0.389424,4.631693,1.832031,-11.306763
1790547843.7366,-0.023484,0.014086,-0.450183,-0.025629,0.010608,-0.450183,-0.709435,-0.492584,0.372426,4.593365,-0.175689,-10.181238
1790547843.7505,-0.016444,0.022045,-0.440064,-0.019200,0.018614,-0.440064,-0.643872,-0.899322,0.053107,4.401726,0.307651,-5.291028
1790547843.7645,-0.014495,0.027753,-0.440379,-0.015906,0.025011,-0.440379,-0.413185,-0.282538,-0.023384,3.251886,2.055111,-11.267951
1790547843.7784,-0.013716,0.026927,-0.442070,-0.014373,0.026353,-0.442070,0.037262,-0.003285,-0.374271,0.952207,1.832031,-14.217602
1790547843.7924,-0.011169,0.026678,-0.451539,-0.012130,0.026580,-0.451539,0.032405,0.052566,-0.827146,-1.194160,1.906391,-11.966553
1790547843.8064,-0.007439,0.025514,-0.455981,-0.008846,0.025834,-0.455981,0.016622,-0.097988,-0.963130,0.338959,0.196111,-7.153965
1790547843.8220,0.002391,0.019632,-0.463161,-0.000980,0.021493,-0.463161,0.359010,-0.475586,-0.818647,-0.044320,0.790991,-7.192776
1790547843.8367,0.011306,0.008083,-0.471339,0.007620,0.012106,-0.471339,0.753606,-0.402738,-0.969201,-0.580912,0.828171,-9.637881
1790547843.8513,0.025924,-0.006260,-0.482904,0.020433,-0.000751,-0.482904,0.949083,-0.766980,-1.235098,-0.772552,0.679451,-8.706413
1790547843.8656,0.041207,-0.012984,-0.506761,0.034974,-0.009314,-0.506761,0.539917,-0.843471,-1.331015,-0.657568,2.315371,-8.201867
1790547843.8798,0.049981,-0.017966,-0.527521,0.045479,-0.015370,-0.527521,0.368723,-0.520509,-1.225385,0.875551,1.943571,-9.443825
1790547843.8938,0.057745,-0.026725,-0.544588,0.054065,-0.023319,-0.544588,0.595767,-0.397881,-1.248454,-0.159304,1.311511,-9.405014
1790547843.9075,0.063923,-0.031583,-0.576366,0.060966,-0.029104,-0.576366,0.491351,-0.393024,-1.135539,1.182175,4.546171,-10.802217
1790547843.9216,0.044949,-0.030207,-0.590290,0.049754,-0.029876,-0.590290,-0.155787,1.420904,-1.001983,1.182175,1.237151,-13.596623
1790547843.9359,0.036463,-0.018812,-0.601726,0.040450,-0.022131,-0.601726,-0.825993,0.815047,-0.728801,-3.417183,1.794851,-16.080539
1790547843.9498,0.032510,-0.006917,-0.604410,0.034892,-0.011481,-0.604410,-1.011757,0.683920,-0.721516,-4.375383,-0.993649,-8.085434
1790547843.9636,0.026263,0.006077,-0.606077,0.028852,0.000809,-0.606077,-1.118601,0.772552,-0.495686,-2.918919,-1.105189,-6.998721
1790547843.9776,0.015626,0.024322,-0.608079,0.019594,0.017268,-0.608079,-1.422137,0.999597,-0.264999,-1.960720,-0.101329,-6.804665
1790547843.9915,0.006153,0.037910,-0.611093,0.010185,0.031718,-0.611093,-1.111316,0.881825,-0.295352,-1.692424,-0.435949,-8.357112
1790547844.0056,0.014490,0.036545,-0.610059,0.013199,0.035097,-0.610059,-0.041657,-0.376026,-0.182437,-5.065286,-0.844929,-16.196973
1790547844.0195,0.009181,0.031084,-0.607858,0.010386,0.032287,-0.607858,0.284947,0.203119,0.586115,1.910407,0.307651,-14.683336
1790547844.0335,0.005815,0.029674,-0.590346,0.007186,0.030458,-0.590346,0.072472,0.104774,1.066915,-0.887536,1.869211,-10.724595
1790547844.0474,0.010978,0.027253,-0.582108,0.009841,0.028215,-0.582108,0.244880,-0.089489,0.627396,-2.420655,1.014071,-2.690678
1790547844.0613,0.000441,0.022679,-0.582048,0.003261,0.024340,-0.582048,0.360224,0.567362,0.505982,1.603783,1.943571,-7.697322
1790547844.0752,-0.014015,0.010286,-0.584857,-0.008833,0.014502,-0.584857,0.832525,0.790764,0.644394,3.175230,1.051251,-10.957462
1790547844.0888,-0.026409,-0.000934,-0.579969,-0.021136,0.003696,-0.579969,0.899303,0.675421,0.832586,1.833751,2.724351,-7.697322
1790547844.1025,-0.032081,-0.004972,-0.568825,-0.028797,-0.002371,-0.568825,0.429430,0.263826,0.926075,0.760567,4.285911,-8.900469
1790547844.1165,-0.038974,-0.009438,-0.556806,-0.035921,-0.007318,-0.556806,0.344440,0.322105,0.968570,0.990535,2.464091,-8.473546
1790547844.1303,-0.046801,-0.014862,-0.547075,-0.043537,-0.012599,-0.547075,0.437929,0.358529,0.894507,1.948735,2.910251,-8.939280
1790547844.1442,-0.050686,-0.020384,-0.538481,-0.048541,-0.018048,-0.538481,0.401505,0.125414,0.712386,1.987063,2.687171,-11.462007
1790547844.1582,-0.037627,-0.024801,-0.528163,-0.040901,-0.022775,-0.528163,0.304373,-0.961243,0.618897,-0.695896,2.724351,-13.596623
1790547844.1722,-0.029672,-0.016630,-0.521524,-0.033041,-0.018473,-0.521524,-0.596520,-0.769409,0.410064,3.941790,2.166651,-12.975644
1790547844.1871,-0.022920,-0.007747,-0.513916,-0.025956,-0.010965,-0.513916,-0.708221,-0.770623,0.339644,4.976645,-0.287229,-8.628791
1790547844.2017,-0.020392,0.004288,-0.510922,-0.022061,-0.000288,-0.510922,-0.895199,-0.555720,0.263153,5.474909,0.344831,-7.115154
1790547844.2159,-0.010960,0.017239,-0.504720,-0.014290,0.011981,-0.504720,-0.987474,-0.870182,0.158737,1.948735,0.382011,-5.873196
1790547844.2299,-0.004061,0.031980,-0.508247,-0.007129,0.025981,-0.508247,-0.974118,-0.663778,0.257082,2.332014,3.356411,-9.831937
1790547844.2443,-0.016568,0.027403,-0.500434,-0.013736,0.026977,-0.500434,0.204814,0.782265,0.009397,3.865134,-0.212869,-17.516553
1790547844.2582,-0.009909,0.024277,-0.505631,-0.011057,0.025087,-0.505631,0.233953,-0.351744,-0.550322,-0.159304,1.646131,-9.676693
1790547844.2722,-0.007080,0.019952,-0.509313,-0.008273,0.021492,-0.509313,0.260664,-0.159909,-0.617100,1.028863,0.493551,-7.153965
1790547844.2862,-0.002965,0.012491,-0.515474,-0.004558,0.015192,-0.515474,0.511992,-0.221830,-0.672950,0.760567,0.828171,-7.813756
1790547844.3001,0.011856,0.002914,-0.517240,0.006932,0.006597,-0.517240,0.643119,-0.816760,-0.839288,-1.730752,0.642271,-9.405014
1790547844.3137,0.019768,-0.011028,-0.531208,0.015917,-0.005740,-0.531208,1.036501,-0.436734,-1.051763,0.223975,1.348691,-8.745224
1790547844.3273,0.030430,-0.026085,-0.547460,0.026076,-0.019981,-0.547460,1.112992,-0.627354,-1.249668,0.108991,1.348691,-9.715504
1790547844.3409,0.044000,-0.033555,-0.572163,0.038623,-0.029483,-0.572163,0.640691,-0.867754,-1.226599,0.070663,2.278191,-7.852567
1790547844.3549,0.056849,-0.043026,-0.588766,0.051381,-0.038963,-0.588766,0.678329,-0.773051,-1.140395,-0.542584,1.497411,-9.443825
1790547844.3688,0.047504,-0.052491,-0.612073,0.048667,-0.048432,-0.612073,0.758462,0.789550,-0.961916,-0.427600,3.430771,-12.432287
1790547844.3827,0.021827,-0.048981,-0.625713,0.029879,-0.048817,-0.625713,-0.258989,1.850710,-0.759154,2.025391,1.608951,-14.372847
1790547844.3966,0.024422,-0.035783,-0.625906,0.026059,-0.039693,-0.625906,-1.053038,0.192192,-0.857500,-5.755190,-0.733389,-11.306763
1790547844.4105,0.027235,-0.025732,-0.623484,0.026882,-0.029920,-0.623484,-0.951050,0.169123,-0.798007,-3.455511,-2.034688,-6.843476
1790547844.4245,0.020650,-0.008540,-0.628880,0.022519,-0.014954,-0.628880,-1.325005,0.772552,-0.658381,-2.305671,-0.175689,-6.649420
1790547844.4395,0.020768,0.012261,-0.643870,0.021294,0.004096,-0.643870,-1.471917,0.444734,-0.671736,-3.915447,-0.138509,-5.252217
1790547844.4536,0.002786,0.027314,-0.653136,0.008338,0.020348,-0.653136,-1.192664,1.507108,-0.526039,-1.270816,-0.398769,-7.076343
1790547844.4679,0.007822,0.026443,-0.657992,0.007977,0.024615,-0.657992,-0.097508,-0.102845,-0.447120,-5.946830,-2.406488,-21.281238
1790547844.4820,0.011184,0.023404,-0.663205,0.010222,0.023767,-0.663205,0.185387,-0.437948,0.333573,3.788478,2.315371,-16.196973
1790547844.4960,0.005289,0.021124,-0.662113,0.006769,0.021917,-0.662113,0.095541,0.173980,0.757309,2.600310,1.088431,-12.665154
1790547844.5101,0.006473,0.013826,-0.649589,0.006562,0.016253,-0.649589,0.305587,-0.112558,0.592186,-0.657568,-1.030829,-6.028441
1790547844.5246,-0.001382,0.003597,-0.654115,0.001001,0.007394,-0.654115,0.626121,0.342746,0.525408,1.718767,0.307651,-7.813756
1790547844.5385,-0.018876,-0.007015,-0.663661,-0.012913,-0.002692,-0.663661,0.764533,0.995954,0.601899,3.290214,1.608951,-9.288581
1790547844.5521,-0.028551,-0.017786,-0.654508,-0.023859,-0.013258,-0.654508,0.892018,0.641425,0.684460,0.147319,2.984611,-8.163056
1790547844.5658,-0.034569,-0.022283,-0.641934,-0.031356,-0.019576,-0.641934,0.399076,0.367028,0.820444,0.032335,3.133331,-9.443825
1790547844.5798,-0.038153,-0.025667,-0.629557,-0.036114,-0.023840,-0.629557,0.333513,0.141198,0.900578,0.530599,3.430771,-8.706413
1790547844.5938,-0.048946,-0.031251,-0.625147,-0.045096,-0.029027,-0.625147,0.425787,0.500584,0.917576,2.868606,2.315371,-8.163056
1790547844.6077,-0.052770,-0.037567,-0.615246,-0.050468,-0.035005,-0.615246,0.463426,0.154554,0.860511,0.990535,2.278191,-9.288581
1790547844.6216,-0.027016,-0.036473,-0.598450,-0.034052,-0.036033,-0.598450,0.014193,-1.849995,0.660178,-1.960720,6.442350,-16.468651
1790547844.6356,-0.019182,-0.025572,-0.592598,-0.023643,-0.028710,-0.592598,-0.818708,-0.850756,0.516909,5.014973,1.348691,-11.500819
1790547844.6495,-0.013146,-0.014923,-0.586324,-0.016295,-0.019059,-0.586324,-0.856347,-0.666206,0.353000,3.826806,0.121751,-10.918651
1790547844.6634,-0.014418,-0.000445,-0.583088,-0.014981,-0.006029,-0.583088,-1.099175,-0.263111,0.099244,5.474909,0.456371,-7.580888
1790547844.6776,-0.009748,0.017037,-0.584490,-0.011318,0.010117,-0.584490,-1.265512,-0.560576,-0.091376,3.903462,0.790991,-8.007811
1790547844.6921,0.004554,0.034913,-0.584007,-0.000207,0.027475,-0.584007,-1.276440,-1.248995,-0.107160,3.328542,0.828171,-6.494175
1790547844.7062,0.003592,0.041384,-0.579792,0.002452,0.037211,-0.579792,-0.547954,-0.107701,-0.121730,4.440053,0.456371,-11.733686
1790547844.7203,0.003477,0.033327,-0.577256,0.003169,0.034492,-0.577256,0.613980,0.268683,-0.343918,-3.877119,3.282051,-12.509909
1790547844.7343,-0.001463,0.031175,-0.595573,-0.000074,0.032170,-0.595573,0.243666,0.540651,-0.832003,-0.159304,4.583351,-15.149070
1790547844.7486,-0.001584,0.033928,-0.609596,-0.001131,0.033401,-0.609596,-0.180069,0.154554,-0.963130,0.952207,1.720491,-10.064805
1790547844.7627,-0.000826,0.031136,-0.608514,-0.000917,0.031815,-0.608514,0.087042,0.076849,-0.842930,0.607255,-0.138509,-7.115154
1790547844.7765,0.010242,0.019458,-0.598382,0.006894,0.023165,-0.598382,0.737822,-0.416093,-0.999555,-2.420655,-0.175689,-7.309210
1790547844.7902,0.019575,0.007117,-0.606962,0.015771,0.011932,-0.606962,0.923586,-0.395453,-1.012910,-1.309144,1.311511,-6.882287
1790547844.8042,0.029091,-0.001786,-0.623794,0.025095,0.002329,-0.623794,0.698969,-0.513225,-0.984985,-0.274288,2.166651,-8.318301
1790547844.8182,0.039509,-0.005199,-0.640066,0.035185,-0.002941,-0.640066,0.299517,-0.491370,-1.117326,-1.845736,2.947431,-11.151518
1790547844.8322,0.041103,-0.009098,-0.663144,0.039328,-0.007251,-0.663144,0.339583,0.004000,-1.085759,0.607255,2.910251,-10.452916
1790547844.8461,0.043078,-0.012326,-0.680933,0.041953,-0.010803,-0.680933,0.348082,0.076849,-0.768868,-2.152360,3.802571,-10.297672
1790547844.8600,0.032166,-0.007266,-0.692348,0.035102,-0.008327,-0.692348,-0.357334,0.898823,-0.641383,-0.389272,2.687171,-15.226693
1790547844.8739,0.031349,0.002426,-0.693333,0.032475,-0.000800,-0.693333,-0.724005,0.439877,-0.495686,-5.908502,1.199971,-10.336483
1790547844.8880,0.025967,0.010701,-0.691256,0.027919,0.007251,-0.691256,-0.690009,0.625641,-0.233431,-2.535639,-0.026969,-7.503266
1790547844.9022,0.019057,0.025204,-0.695017,0.021715,0.019818,-0.695017,-1.016613,0.863613,-0.171510,-3.148887,0.865351,-4.631238
1790547844.9162,0.018479,0.035205,-0.694695,0.019450,0.030589,-0.694695,-0.683938,0.103560,-0.046453,-0.657568,2.055111,-8.201867
1790547844.9303,0.024312,0.020250,-0.695034,0.022853,0.023351,-0.695034,0.844667,-0.606713,0.457416,2.485326,-2.927008,-15.149070
1790547844.9444,0.015515,0.012783,-0.685266,0.017717,0.015953,-0.685266,0.423359,0.444734,0.877509,0.798895,0.047391,-13.402567
1790547844.9584,0.014043,0.009131,-0.668812,0.015145,0.011178,-0.668812,0.230311,-0.010570,0.997709,-0.734224,1.348691,-9.987182
1790547844.9723,0.007923,0.004086,-0.655454,0.010089,0.006213,-0.655454,0.383293,0.484800,0.611612,-2.190688,2.166651,-10.220049
1790547844.9863,-0.008970,-0.004595,-0.658829,-0.003252,-0.001353,-0.658829,0.547202,0.936461,0.733026,3.175230,0.493551,-9.948371
1790547845.0003,-0.022967,-0.016813,-0.651354,-0.017052,-0.012175,-0.651354,0.894446,0.823546,0.900578,1.258831,2.092291,-8.978091
1790547845.0139,-0.036903,-0.026983,-0.640645,-0.030948,-0.022541,-0.640645,0.790030,0.897609,0.972212,0.492271,2.278191,-7.891378
1790547845.0275,-0.047685,-0.033263,-0.626172,-0.042664,-0.030046,-0.626172,0.475567,0.713059,1.075414,-0.005993,2.575631,-10.142427
1790547845.0414,-0.050236,-0.039421,-0.610722,-0.047965,-0.036609,-0.610722,0.431858,0.155768,0.934574,-0.580912,1.943571,-8.822846
1790547845.0554,-0.052960,-0.046754,-0.600175,-0.051461,-0.043710,-0.600175,0.524133,0.110844,0.760951,0.760567,2.055111,-9.909560
1790547845.0692,-0.041187,-0.048821,-0.589840,-0.044269,-0.047288,-0.589840,0.110111,-0.986740,0.737883,2.140375,2.092291,-14.334035
1790547845.0833,-0.036883,-0.043920,-0.583720,-0.039099,-0.044930,-0.583720,-0.469035,-0.492584,0.624967,3.213558,-0.212869,-12.665154
1790547845.0972,-0.032063,-0.037701,-0.579855,-0.034173,-0.039870,-0.579855,-0.631730,-0.569075,0.513266,3.711822,-1.662888,-11.073895
1790547845.1113,-0.027283,-0.024384,-0.583098,-0.029350,-0.029030,-0.583098,-1.022684,-0.590930,0.229157,3.558510,0.196111,-8.046623
1790547845.1254,-0.017596,-0.008762,-0.584487,-0.021122,-0.014843,-0.584487,-1.209662,-0.879895,-0.008815,2.906934,-0.212869,-7.813756
1790547845.1393,-0.007587,0.008571,-0.589648,-0.011648,0.001547,-0.589648,-1.274011,-0.887180,-0.091376,3.175230,1.125611,-9.676693
1790547845.1535,0.002446,0.026448,-0.596944,-0.001782,0.018978,-0.596944,-1.263084,-0.904178,-0.152083,3.405198,1.534591,-8.551168
1790547845.1677,0.000086,0.027882,-0.592553,-0.000474,0.025210,-0.592553,-0.260203,0.104774,-0.478688,4.593365,-1.625708,-15.265504
1790547845.1821,0.010984,0.023114,-0.586317,0.007547,0.023743,-0.586317,0.400291,-0.386954,-0.705732,-5.180270,3.505131,-11.462007
1790547845.1969,0.003155,0.019517,-0.610951,0.004472,0.020785,-0.610951,0.315301,0.588002,-0.874498,1.948735,2.501271,-9.172147
1790547845.2111,-0.000731,0.017594,-0.624683,0.000830,0.018551,-0.624683,0.122252,0.317249,-0.776152,1.603783,0.976891,-8.279490
1790547845.2252,0.012034,0.016809,-0.624583,0.008673,0.017332,-0.624583,0.044547,-0.650423,-0.777367,-1.884064,1.385871,-9.754315
1790547845.2392,0.015753,0.007532,-0.631650,0.013629,0.010472,-0.631650,0.611551,-0.049422,-1.044478,-0.504256,0.567911,-9.443825
1790547845.2530,0.024118,-0.001602,-0.646288,0.020972,0.002020,-0.646288,0.718396,-0.355386,-1.158607,-1.040848,2.166651,-8.939280
1790547845.2670,0.034873,-0.005293,-0.666559,0.030702,-0.003099,-0.666559,0.359010,-0.547221,-1.199888,-0.657568,2.612811,-7.969000
1790547845.2809,0.037197,-0.009802,-0.688664,0.035249,-0.007791,-0.688664,0.402719,-0.053065,-1.076046,0.530599,2.538451,-8.589979
1790547845.2948,0.044452,-0.016941,-0.703281,0.041691,-0.014196,-0.703281,0.566628,-0.346887,-0.920635,-1.040848,2.724351,-10.685784
1790547845.3087,0.050216,-0.020567,-0.721445,0.047659,-0.018656,-0.721445,0.385721,-0.316534,-0.773724,-0.197632,3.951291,-10.414105
1790547845.3226,0.036876,-0.017524,-0.733866,0.040111,-0.017863,-0.733866,-0.199496,1.130724,-0.703304,-1.845736,3.058971,-15.381938
1790547845.3365,0.030419,-0.007642,-0.740896,0.033327,-0.010708,-0.740896,-0.656013,0.700918,-0.502971,-2.957247,2.724351,-10.608161
1790547845.3506,0.023397,0.002864,-0.737936,0.026376,-0.001208,-0.737936,-0.821136,0.743413,-0.313564,-3.072231,0.307651,-9.521448
1790547845.3645,0.017677,0.012649,-0.728551,0.020287,0.008492,-0.728551,-0.815066,0.652352,0.039751,-2.842263,-0.175689,-6.921098
1790547845.3785,0.015809,0.020912,-0.724523,0.017153,0.017186,-0.724523,-0.625660,0.209190,0.123527,-2.152360,1.757671,-14.566903
1790547845.3925,0.019369,0.015257,-0.719450,0.018704,0.015835,-0.719450,0.267949,-0.368742,0.354214,0.913879,-0.547489,-11.112707
1790547845.4063,0.012849,0.010594,-0.713335,0.014605,0.012166,-0.713335,0.271591,0.167909,0.887222,3.098574,0.790991,-11.423196
1790547845.4203,0.003723,0.001707,-0.702421,0.006988,0.004845,-0.702421,0.497422,0.448376,0.867796,0.952207,-0.361589,-6.959909
1790547845.4344,-0.006571,-0.008235,-0.693774,-0.002503,-0.004311,-0.693774,0.666188,0.634140,0.675961,0.338959,1.088431,-9.987182
1790547845.4488,-0.020060,-0.017693,-0.686701,-0.014793,-0.013678,-0.686701,0.618836,0.784693,0.765808,0.990535,0.939711,-7.813756
1790547845.4628,-0.030256,-0.027365,-0.679294,-0.025617,-0.023259,-0.679294,0.712325,0.571004,0.896935,1.067191,1.943571,-8.279490
1790547845.4760,-0.044331,-0.035082,-0.674743,-0.038717,-0.031535,-0.674743,0.654046,0.858756,0.986782,1.450471,2.278191,-6.804665
1790547845.4898,-0.053978,-0.043067,-0.663590,-0.049400,-0.039608,-0.663590,0.616408,0.625641,1.004994,0.147319,2.575631,-8.784035
1790547845.5038,-0.062185,-0.053603,-0.652467,-0.058350,-0.049404,-0.652467,0.718396,0.471445,0.967356,1.067191,1.757671,-9.909560
1790547845.5178,-0.061481,-0.053796,-0.645262,-0.060542,-0.052478,-0.645262,0.044547,-0.206047,0.805875,2.906934,3.839751,-13.596623
1790547845.5317,-0.046381,-0.051404,-0.634809,-0.050629,-0.051726,-0.634809,-0.215280,-1.194358,0.724527,1.948735,2.464091,-16.817952
1790547845.5457,-0.034545,-0.043319,-0.613248,-0.039370,-0.045841,-0.613248,-0.810209,-1.087514,0.743953,3.060246,-1.774428,-9.327392
1790547845.5595,-0.035040,-0.031409,-0.596094,-0.036339,-0.035738,-0.596094,-1.072464,-0.434305,0.570331,6.969700,-1.960328,-6.882287
1790547845.5735,-0.026228,-0.014745,-0.588145,-0.029261,-0.021043,-0.588145,-1.299508,-0.768194,0.277723,1.718767,0.010211,-8.201867
1790547845.5874,-0.016019,0.003287,-0.594842,-0.019992,-0.004012,-0.594842,-1.299508,-1.003738,0.202446,3.443526,1.237151,-7.542077
1790547845.6012,-0.003573,0.019191,-0.590806,-0.008499,0.012230,-0.590806,-1.227874,-1.165219,0.201232,3.098574,0.493551,-7.658511
1790547845.6152,0.008898,0.033094,-0.599754,0.003679,0.026835,-0.599754,-0.942551,-1.154292,0.167236,2.715294,1.943571,-6.843476
1790547845.6292,0.001158,0.033119,-0.601283,0.001914,0.031234,-0.601283,-0.005233,0.609857,-0.132657,-0.120976,3.244871,-17.865854
1790547845.6431,-0.001692,0.026736,-0.616213,-0.000610,0.028085,-0.616213,0.545988,0.303893,-0.465332,0.185647,4.955151,-16.158161
1790547845.6572,0.000730,0.025184,-0.631503,0.000328,0.026055,-0.631503,0.210884,-0.029996,-0.580676,-0.465928,3.653851,-11.190329
1790547845.6712,-0.003853,0.014987,-0.632974,-0.002599,0.018307,-0.632974,0.684400,0.419237,-0.539395,0.415615,0.679451,-8.279490
1790547845.6855,0.007874,0.007558,-0.640436,0.004732,0.010783,-0.640436,0.564200,-0.613998,-0.717874,-1.194160,1.832031,-8.240679
1790547845.6996,0.012928,0.000669,-0.660020,0.010470,0.003703,-0.660020,0.561771,-0.218188,-0.987413,0.300631,1.980751,-7.774944
1790547845.7133,0.016644,-0.006973,-0.675715,0.014791,-0.003770,-0.675715,0.593339,-0.140483,-0.963130,0.300631,1.646131,-8.589979
1790547845.7274,0.029408,-0.011338,-0.692725,0.025023,-0.009068,-0.692725,0.397862,-0.673491,-1.009268,-1.385800,2.426911,-8.318301
1790547845.7412,0.035777,-0.016701,-0.712123,0.032551,-0.014411,-0.712123,0.454927,-0.284966,-1.035979,-0.619240,2.612811,-9.987182
1790547845.7552,0.038776,-0.018210,-0.734683,0.036909,-0.017070,-0.734683,0.271591,-0.100416,-0.875712,-0.005993,3.728211,-8.395923
1790547845.7692,0.019707,-0.018708,-0.749622,0.024868,-0.018217,-0.749622,0.025121,1.470684,-0.967987,1.028863,1.794851,-13.635434
1790547845.7832,0.020381,-0.008580,-0.760255,0.021727,-0.011471,-0.760255,-0.642658,0.226188,-0.742156,-3.838791,3.728211,-13.208511
1790547845.7972,0.015536,0.002183,-0.754366,0.017393,-0.001913,-0.754366,-0.850276,0.626855,-0.579461,-2.727279,0.233291,-8.900469
1790547845.8112,0.014879,0.011550,-0.721093,0.015633,0.007511,-0.721093,-0.793211,0.449590,-0.248001,-3.378855,-0.324409,-4.747672
1790547845.8252,0.001821,0.029973,-0.732670,0.005964,0.023235,-0.732670,-1.135599,1.180504,-0.229789,-1.577440,2.538451,-4.708860
1790547845.8391,-0.001893,0.038502,-0.741314,0.000464,0.033922,-0.741314,-0.563738,0.527295,-0.454405,-2.152360,2.166651,-8.318301
1790547845.8530,0.006456,0.027296,-0.733029,0.004659,0.029284,-0.733029,0.720824,-0.630996,0.362713,-1.117504,1.311511,-18.874945
1790547845.8669,0.003890,0.022262,-0.722110,0.004120,0.024368,-0.722110,0.314086,0.025855,0.733026,0.837223,1.608951,-12.859210
1790547845.8809,0.002102,0.017552,-0.707864,0.002708,0.019597,-0.707864,0.235167,0.017356,0.879937,-0.542584,0.419191,-10.530539
1790547845.8952,-0.005080,0.008583,-0.698637,-0.002744,0.011887,-0.698637,0.508349,0.504227,0.513266,-0.849208,-0.138509,-7.891378
1790547845.9108,-0.020066,-0.003805,-0.691411,-0.014869,0.000903,-0.691411,0.749963,0.767695,0.616469,2.217030,0.976891,-9.133336
1790547845.9251,-0.033143,-0.013976,-0.684937,-0.027661,-0.009513,-0.684937,0.740250,0.778623,0.689317,1.105519,2.129471,-8.473546
1790547845.9396,-0.049787,-0.023043,-0.678173,-0.043149,-0.018984,-0.678173,0.681971,0.988669,0.776735,1.833751,3.096151,-9.754315
1790547845.9542,-0.059332,-0.031148,-0.669189,-0.054477,-0.027499,-0.669189,0.558129,0.567362,0.802232,0.760567,2.464091,-10.763406
1790547845.9686,-0.063668,-0.035958,-0.661754,-0.060911,-0.033420,-0.661754,0.348082,0.220117,0.663820,0.875551,2.389731,-9.676693
1790547845.9828,-0.048056,-0.041281,-0.646784,-0.051913,-0.038923,-0.646784,0.218169,-1.173718,0.725741,0.377287,-0.361589,-12.548721
1790547845.9967,-0.035420,-0.038910,-0.635441,-0.040368,-0.038914,-0.635441,-0.278415,-1.028021,0.558190,1.642111,0.196111,-11.966553
1790547846.0107,-0.034001,-0.033239,-0.621582,-0.035911,-0.034941,-0.621582,-0.552811,-0.413665,0.522980,4.708349,-0.807749,-9.055714
1790547846.0247,-0.031430,-0.023155,-0.612382,-0.032774,-0.026691,-0.612382,-0.846633,-0.463445,0.371212,3.635166,-0.398769,-7.658511
1790547846.0386,-0.024336,-0.008499,-0.606277,-0.026868,-0.013957,-0.606277,-1.185379,-0.740269,0.090745,3.443526,-0.473129,-8.201867
1790547846.0526,-0.017853,0.009249,-0.606014,-0.020557,0.002287,-0.606014,-1.327434,-0.637067,-0.017314,2.676966,0.605091,-8.007811
1790547846.0665,-0.009347,0.028050,-0.607695,-0.012710,0.020321,-0.607695,-1.407567,-0.870182,-0.052524,4.401726,0.642271,-8.628791
1790547846.0805,-0.015020,0.039637,-0.608251,-0.014327,0.033842,-0.608251,-0.892771,0.239544,-0.059809,4.018446,0.902531,-11.112707
1790547846.0945,-0.016751,0.044181,-0.620636,-0.016024,0.041079,-0.620636,-0.280843,0.248043,-0.696019,1.105519,3.356411,-14.799770
1790547846.1084,-0.024974,0.045050,-0.654795,-0.022289,0.043858,-0.654795,0.150177,0.579503,-0.702090,3.213558,4.546171,-8.861658
1790547846.1223,-0.026699,0.038966,-0.664737,-0.025376,0.040434,-0.664737,0.468282,0.272325,-0.742156,0.760567,2.315371,-12.471098
1790547846.1367,-0.020374,0.036700,-0.675434,-0.021875,0.037820,-0.675434,0.189030,-0.283752,-0.867213,0.607255,1.869211,-10.103616
1790547846.1508,-0.010449,0.028572,-0.683368,-0.013877,0.031347,-0.683368,0.576341,-0.439162,-1.103971,-0.657568,1.237151,-9.715504
1790547846.1645,-0.002561,0.016582,-0.687780,-0.005956,0.021011,-0.687780,0.822812,-0.301964,-1.248454,-0.465928,0.307651,-7.930189
1790547846.1782,0.009965,0.013587,-0.713851,0.005189,0.015814,-0.713851,0.363866,-0.645566,-1.264238,-0.695896,2.649991,-7.231588
1790547846.1924,0.016155,0.009463,-0.735526,0.012865,0.011368,-0.735526,0.368723,-0.240043,-1.131896,-0.044320,2.352551,-8.551168
1790547846.2067,0.020081,0.003332,-0.754085,0.017916,0.005743,-0.754085,0.479210,-0.049422,-1.049334,-0.925864,2.501271,-10.608161
1790547846.2207,0.029462,-0.001685,-0.775194,0.025998,0.000543,-0.775194,0.482852,-0.413665,-0.952203,-2.497311,4.508991,-12.238231
1790547846.2347,0.007096,0.000440,-0.796955,0.012766,0.000471,-0.796955,-0.042871,1.717154,-0.767653,0.875551,4.546171,-13.790679
1790547846.2486,0.003576,0.010466,-0.806589,0.006333,0.007468,-0.806589,-0.659656,0.534580,-0.555179,-5.180270,4.323091,-17.128441
1790547846.2625,-0.001004,0.017503,-0.795227,0.001197,0.014493,-0.795227,-0.615946,0.646281,-0.371843,-4.068759,-0.250049,-10.064805
1790547846.2764,-0.003617,0.020560,-0.781412,-0.002172,0.018740,-0.781412,-0.343979,0.445948,0.042179,-3.148887,-0.287229,-7.231588
1790547846.2903,-0.011441,0.036277,-0.791114,-0.008661,0.031016,-0.791114,-0.798068,0.855114,-0.133871,-1.960720,3.393591,-3.272846
1790547846.3043,-0.010266,0.031948,-0.785821,-0.009785,0.031668,-0.785821,0.246094,-0.110129,0.293507,-0.235960,1.423051,-13.596623
1790547846.3182,-0.015802,0.028844,-0.771794,-0.013997,0.029691,-0.771794,0.170818,0.148483,0.826515,2.485326,1.832031,-12.082986
1790547846.3320,-0.020738,0.018884,-0.753724,-0.018715,0.022126,-0.753724,0.570270,0.124200,0.944287,1.603783,-0.064149,-10.646972
1790547846.3460,-0.032116,0.008181,-0.744484,-0.028096,0.012364,-0.744484,0.717182,0.704560,0.753667,0.377287,1.199971,-8.551168
1790547846.3599,-0.041531,-0.001680,-0.737708,-0.037501,0.002533,-0.737708,0.674687,0.658423,0.628610,-0.542584,1.460231,-9.249770
1790547846.3738,-0.053237,-0.013192,-0.731299,-0.048516,-0.008474,-0.731299,0.830097,0.720344,0.637109,1.182175,1.794851,-8.434735
1790547846.3874,-0.067922,-0.024679,-0.724087,-0.062100,-0.019818,-0.724087,0.853166,0.957102,0.779164,1.105519,1.757671,-7.580888
1790547846.4010,-0.078476,-0.033499,-0.717611,-0.073563,-0.029395,-0.717611,0.663759,0.738556,0.824087,-0.005993,2.501271,-9.133336
1790547846.4149,-0.084836,-0.043775,-0.707260,-0.081454,-0.039461,-0.707260,0.656474,0.449590,0.915147,-0.504256,1.311511,-10.103616
1790547846.4288,-0.081810,-0.054179,-0.698156,-0.081703,-0.049763,-0.698156,0.711111,-0.237614,0.775521,-0.005993,2.241011,-12.082986
1790547846.4430,-0.068530,-0.060168,-0.684470,-0.072482,-0.057047,-0.684470,0.293446,-0.979455,0.883580,0.185647,0.716631,-14.295224
1790547846.4573,-0.056025,-0.056117,-0.667247,-0.060962,-0.056396,-0.667247,-0.460536,-1.015879,0.875081,1.642111,-0.547489,-10.064805
1790547846.4713,-0.052759,-0.051858,-0.642557,-0.055220,-0.053219,-0.642557,-0.549169,-0.558148,0.961285,5.091629,-2.034688,-10.452916
1790547846.4853,-0.047960,-0.038856,-0.625879,-0.050138,-0.043165,-0.625879,-1.102817,-0.691703,0.705101,5.398253,-0.993649,-9.172147
1790547846.4993,-0.040963,-0.018223,-0.616075,-0.043715,-0.025706,-0.616075,-1.598187,-0.717200,0.373640,3.366870,-0.212869,-9.521448
1790547846.5133,-0.037753,0.004784,-0.613246,-0.039541,-0.004363,-0.613246,-1.728101,-0.521724,0.191519,5.589893,0.307651,-10.142427
1790547846.5272,-0.026577,0.028257,-0.607907,-0.030467,0.018471,-0.607907,-1.798521,-1.079015,0.088317,4.248414,0.121751,-8.512357
1790547846.5411,-0.012135,0.050467,-0.604056,-0.017634,0.040868,-0.604056,-1.649181,-1.268421,0.180591,1.757095,0.828171,-5.329839
1790547846.5550,-0.021230,0.058348,-0.600120,-0.020152,0.053104,-0.600120,-0.615946,0.586788,0.162379,1.450471,1.646131,-11.578441
1790547846.5690,-0.021690,0.049050,-0.594944,-0.021228,0.050266,-0.594944,0.595767,0.172766,-0.337847,-1.079176,1.460231,-19.379490
1790547846.5834,-0.031015,0.046407,-0.623489,-0.028079,0.047565,-0.623489,0.346868,0.738556,-0.771296,2.676966,5.364131,-13.130889
1790547846.5975,-0.027171,0.046985,-0.627938,-0.027443,0.047159,-0.627938,-0.035587,-0.106487,-0.611029,-0.197632,1.646131,-9.831937
1790547846.6118,-0.021362,0.044507,-0.626315,-0.023186,0.045302,-0.626315,0.108896,-0.252184,-0.642597,-0.005993,0.382011,-6.804665
1790547846.6256,-0.003377,0.030870,-0.627735,-0.009320,0.035200,-0.627735,0.973366,-0.997667,-0.815005,-2.267343,1.199971,-9.094525
1790547846.6393,0.009388,0.018936,-0.650853,0.003776,0.023815,-0.650853,1.035287,-0.698988,-0.930349,-0.657568,2.464091,-5.679140
1790547846.6533,0.021547,0.015106,-0.680575,0.016216,0.017719,-0.680575,0.496208,-0.661350,-0.975272,-0.657568,4.100011,-7.231588
1790547846.6672,0.026467,0.011143,-0.700752,0.023391,0.013116,-0.700752,0.383293,-0.187834,-0.975272,-0.044320,3.467951,-10.336483
1790547846.6815,0.024318,0.009648,-0.723529,0.024040,0.010688,-0.723529,0.230311,0.308750,-0.946132,0.108991,4.137191,-10.646972
1790547846.6959,0.028129,0.008771,-0.743363,0.026902,0.009346,-0.743363,0.178103,-0.016640,-0.839288,-2.305671,4.323091,-11.384385
1790547846.7106,0.013477,0.004158,-0.749891,0.017505,0.005714,-0.749891,0.259450,1.173219,-0.507827,-1.999048,1.014071,-15.808861
1790547846.7247,0.010859,0.012205,-0.755419,0.012853,0.010258,-0.755419,-0.524886,0.399810,-0.195793,-4.298727,3.579491,-14.450469
1790547846.7386,0.006143,0.021675,-0.751151,0.008156,0.018250,-0.751151,-0.745860,0.601358,-0.064665,-3.417183,0.493551,-8.279490
1790547846.7526,0.004890,0.034030,-0.746233,0.005870,0.029296,-0.746233,-0.897627,0.403453,0.005755,-4.375383,1.199971,-7.619700
1790547846.7665,0.010937,0.035881,-0.739305,0.009417,0.033906,-0.739305,-0.282057,-0.158695,0.036109,-3.953775,-0.621849,-7.658511
1790547846.7806,0.004793,0.030580,-0.731170,0.006180,0.031578,-0.731170,0.348082,0.234687,0.592186,1.757095,1.497411,-9.637881
1790547846.7945,-0.005956,0.020993,-0.723292,-0.002315,0.024168,-0.723292,0.570270,0.617142,0.639537,1.258831,0.047391,-11.306763
1790547846.8088,-0.012226,0.008979,-0.714711,-0.009253,0.013536,-0.714711,0.745107,0.367028,0.620111,-0.159304,0.456371,-11.151518
1790547846.8230,-0.024830,-0.000658,-0.708553,-0.020157,0.003600,-0.708553,0.641905,0.804120,0.571545,0.415615,0.902531,-7.192776
1790547846.8370,-0.040666,-0.012167,-0.699590,-0.034513,-0.007437,-0.699590,0.717182,0.994740,0.796162,0.952207,0.307651,-8.745224
1790547846.8507,-0.052715,-0.024509,-0.690623,-0.047255,-0.019387,-0.690623,0.871378,0.765267,0.779164,0.683911,1.237151,-7.192776
1790547846.8643,-0.065375,-0.034254,-0.680315,-0.059939,-0.029794,-0.680315,0.711111,0.829617,0.872652,0.837223,2.166651,-9.715504
1790547846.8784,-0.073423,-0.045357,-0.666744,-0.069378,-0.040688,-0.666744,0.713539,0.572218,0.928503,-0.810880,1.311511,-10.918651
1790547846.8923,-0.062724,-0.047598,-0.651770,-0.064720,-0.045525,-0.651770,0.138036,-0.807047,0.901792,-0.389272,3.430771,-15.071448
1790547846.9062,-0.052579,-0.048372,-0.639057,-0.056221,-0.047518,-0.639057,-0.013732,-0.822831,0.819230,1.028863,1.534591,-12.742777
1790547846.9202,-0.042686,-0.045527,-0.627455,-0.046747,-0.046124,-0.627455,-0.343979,-0.902964,0.776735,3.021918,-0.250049,-12.121798
1790547846.9343,-0.039193,-0.039424,-0.615281,-0.041459,-0.041434,-0.615281,-0.674225,-0.633425,0.731812,5.474909,-2.183408,-8.240679
1790547846.9484,-0.031694,-0.024110,-0.607204,-0.034623,-0.029307,-0.607204,-1.201163,-0.763338,0.566689,3.136902,-0.026969,-9.560259
1790547846.9627,-0.026527,-0.001117,-0.603321,-0.028956,-0.009574,-0.603321,-1.692890,-0.599429,0.331145,3.175230,0.344831,-8.279490
1790547846.9766,-0.020910,0.018678,-0.594462,-0.023324,0.010202,-0.594462,-1.624898,-0.691703,0.246155,4.286742,-1.476988,-8.822846
1790547846.9906,-0.013684,0.035906,-0.590913,-0.016576,0.028195,-0.590913,-1.383284,-0.803404,0.184234,4.363398,-0.473129,-9.327392
1790547847.0046,-0.008108,0.039532,-0.585448,-0.010649,0.036131,-0.585448,-0.373118,-0.515653,0.065248,2.217030,0.196111,-11.345574
1790547847.0185,0.001217,0.029198,-0.581904,-0.002342,0.031278,-0.581904,0.740250,-0.612784,-0.075592,-0.964192,3.058971,-15.808861
1790547847.0324,-0.007096,0.029581,-0.610973,-0.005670,0.030090,-0.610973,0.187816,0.552792,-0.464118,2.791950,5.289771,-9.482637
1790547847.0464,-0.001425,0.032596,-0.620191,-0.002698,0.031844,-0.620191,-0.177641,-0.248542,-0.706946,-0.235960,2.464091,-10.957462
1790547847.0603,0.008260,0.031684,-0.608531,0.004972,0.031732,-0.608531,-0.019803,-0.298321,-0.869641,-3.148887,0.196111,-8.163056
1790547847.0740,0.027866,0.017572,-0.598805,0.020998,0.021820,-0.598805,0.901731,-0.969742,-1.031122,-3.685479,-0.435949,-7.231588
1790547847.0882,0.040501,-0.000389,-0.608836,0.034650,0.006274,-0.608836,1.217408,-0.621283,-1.224171,-0.887536,0.530731,-6.222497
1790547847.1020,0.054405,-0.011553,-0.630450,0.048479,-0.006205,-0.630450,0.877448,-0.895679,-1.154965,0.492271,2.538451,-8.357112
1790547847.1161,0.065835,-0.021306,-0.649898,0.060628,-0.016776,-0.649898,0.712325,-0.674705,-1.210815,-0.005993,2.315371,-9.948371
1790547847.1299,0.075038,-0.032030,-0.666228,0.070715,-0.027453,-0.666228,0.754820,-0.487728,-1.224171,-0.887536,1.794851,-10.142427
1790547847.1438,0.064479,-0.036039,-0.682101,0.066350,-0.033463,-0.682101,0.250951,0.947388,-1.105185,-1.730752,2.241011,-14.838581
1790547847.1578,0.056853,-0.017364,-0.688590,0.059702,-0.022194,-0.688590,-1.355359,0.827188,-0.713017,-5.295254,2.315371,-15.071448
1790547847.1719,0.055486,-0.004529,-0.690255,0.056751,-0.009828,-0.690255,-0.999615,0.393740,-0.501756,-5.563550,0.382011,-13.286133
