t,imu_roll,imu_pitch,imu_yaw,lpf_roll,lpf_pitch,lpf_yaw,gyro_x,gyro_y,gyro_z,acc_x,acc_y,acc_z
1790548405.8467,-0.020190,-0.052068,0.007685,-0.014133,-0.036448,0.007685,0.011151,-0.006955,0.002174,0.108991,1.088431,-10.258860
1790548405.8621,-0.034369,-0.044110,0.002022,-0.028298,-0.041811,0.002022,0.002652,0.010043,0.013101,0.377287,1.237151,-9.987182
1790548405.8758,-0.026800,-0.041005,0.000856,-0.027249,-0.041247,0.000856,-0.014346,0.006401,0.002174,-0.005993,1.274331,-10.220049
1790548405.8895,-0.027644,-0.041895,0.001284,-0.027525,-0.041700,0.001284,-0.022845,-0.002098,-0.003897,0.185647,1.125611,-9.870749
1790548405.9036,-0.023559,-0.041795,0.001651,-0.024749,-0.041767,0.001651,-0.030130,-0.006955,0.004602,-0.044320,1.199971,-10.297672
1790548405.9176,-0.027895,-0.041127,0.001728,-0.026951,-0.041319,0.001728,-0.050770,0.014900,0.021600,0.377287,1.199971,-10.142427
1790548405.9317,-0.027141,-0.040627,0.002672,-0.027084,-0.040834,0.002672,-0.070196,0.042825,0.050740,0.070663,1.199971,-10.336483
1790548405.9462,-0.027502,-0.037058,0.002793,-0.027377,-0.038191,0.002793,-0.101764,0.064680,0.066523,0.108991,1.348691,-9.793126
1790548405.9603,-0.028420,-0.034262,0.003648,-0.028107,-0.035441,0.003648,-0.094479,0.073179,0.106590,0.147319,1.385871,-10.064805
1790548405.9741,-0.028955,-0.029679,0.005723,-0.028700,-0.031407,0.005723,-0.163685,-0.004526,0.198865,0.185647,1.423051,-9.366203
1790548405.9880,-0.030115,-0.022994,0.009109,-0.029691,-0.025518,0.009109,-0.147901,-0.021524,0.326350,0.262303,1.757671,-9.482637
1790548406.0021,-0.039453,-0.027234,0.024690,-0.036524,-0.026719,0.024690,0.016008,0.045254,0.520613,1.143847,0.902531,-10.064805
1790548406.0160,-0.046098,-0.031680,0.039707,-0.043226,-0.030192,0.039707,0.042719,0.160597,0.690592,0.645583,0.753811,-8.861658
1790548406.0300,-0.050507,-0.036819,0.054509,-0.048323,-0.034831,0.054509,0.113139,0.110817,0.713661,0.530599,0.716631,-8.822846
1790548406.0439,-0.052958,-0.039375,0.064183,-0.051568,-0.038012,0.064183,0.067002,0.194593,0.516970,0.300631,1.162791,-11.462007
1790548406.0579,-0.052835,-0.046298,0.079667,-0.052454,-0.043812,0.079667,0.126495,0.139957,0.458691,-0.005993,0.419191,-10.414105
1790548406.0718,-0.052240,-0.050114,0.090263,-0.052305,-0.048223,0.090263,0.161705,0.013686,0.510899,0.185647,1.051251,-11.772497
1790548406.0857,-0.043269,-0.051342,0.105733,-0.045980,-0.050406,0.105733,0.120424,-0.135654,0.462334,-1.040848,1.237151,-10.297672
1790548406.0993,-0.037378,-0.048185,0.115691,-0.039958,-0.048852,0.115691,-0.083552,-0.242498,0.396770,-0.312616,1.497411,-9.909560
1790548406.1130,-0.030674,-0.046099,0.122954,-0.033459,-0.046925,0.122954,-0.160043,-0.284993,0.310566,-0.389272,1.014071,-8.939280
1790548406.1270,-0.029534,-0.045315,0.123758,-0.030711,-0.045798,0.123758,-0.100550,-0.246141,0.235289,0.568927,1.051251,-10.181238
1790548406.1408,-0.028737,-0.044746,0.124072,-0.029330,-0.045062,0.124072,-0.064126,-0.193932,0.158798,0.492271,1.051251,-9.637881
1790548406.1548,-0.024099,-0.043301,0.125857,-0.025668,-0.043829,0.125857,-0.143045,-0.354199,0.122374,0.147319,1.088431,-10.375294
1790548406.1688,-0.014590,-0.040591,0.123325,-0.017913,-0.041562,0.123325,-0.370089,-0.791290,0.015529,0.453943,0.790991,-12.626343
1790548406.1830,-0.006338,-0.035203,0.118576,-0.009811,-0.037111,0.118576,-0.527928,-0.752438,-0.036679,0.568927,0.828171,-11.151518
1790548406.1976,-0.000269,-0.032448,0.110463,-0.003132,-0.033847,0.110463,-0.608061,-0.530250,-0.232156,0.492271,-0.324409,-12.665154
1790548406.2118,-0.005857,-0.036213,0.091873,-0.005040,-0.035503,0.091873,0.073073,0.285654,-0.687459,0.875551,0.753811,-13.713056
1790548406.2261,0.001899,-0.028711,0.085232,-0.000183,-0.030749,0.085232,-0.067768,-0.108943,-1.094196,-1.385800,3.319231,-10.375294
1790548406.2402,0.012525,-0.020956,0.066732,0.008713,-0.023894,0.066732,-0.147901,-0.533892,-1.321241,-0.350944,2.389731,-7.619700
1790548406.2542,-0.005489,-0.010339,0.034563,-0.001229,-0.014406,0.034563,-0.234105,0.702104,-1.049273,2.485326,3.021791,-7.658511
1790548406.2686,-0.018366,-0.004881,0.017240,-0.013225,-0.007739,0.017240,-0.223178,0.812591,-0.930287,0.952207,1.980751,-8.822846
1790548406.2826,-0.023420,-0.002138,0.001094,-0.020362,-0.003818,0.001094,-0.268101,0.666894,-1.188899,-0.389272,1.274331,-10.491728
1790548406.2966,-0.026357,0.000186,-0.018588,-0.024559,-0.001015,-0.018588,-0.265673,0.671751,-1.418372,-0.849208,1.051251,-9.870749
1790548406.3106,-0.025229,0.001132,-0.034642,-0.025028,0.000488,-0.034642,-0.235320,0.329363,-1.390447,-0.657568,0.716631,-9.521448
1790548406.3242,-0.016284,-0.001157,-0.045249,-0.018907,-0.000664,-0.045249,-0.135760,-0.158722,-1.264176,-1.194160,0.121751,-9.172147
1790548406.3376,0.003823,-0.002936,-0.053134,-0.002996,-0.002255,-0.053134,0.020864,-0.754866,-1.264176,-2.420655,0.902531,-8.706413
1790548406.3516,0.019747,-0.006507,-0.062450,0.012924,-0.005231,-0.062450,0.267335,-0.734226,-1.167045,-1.347472,1.534591,-9.016902
1790548406.3656,0.037459,-0.008230,-0.065067,0.030099,-0.007330,-0.065067,0.277048,-0.830143,-1.118479,-1.692424,2.166651,-8.628791
1790548406.3794,0.054422,-0.006650,-0.064704,0.047125,-0.006854,-0.064704,0.064574,-0.855640,-0.912075,-1.884064,2.575631,-9.521448
1790548406.3935,0.042676,0.002241,-0.066521,0.044010,-0.000488,-0.066521,-0.535213,0.850230,-0.669247,-0.044320,3.096151,-12.936833
1790548406.4076,0.041573,0.020704,-0.087026,0.042304,0.014346,-0.087026,-1.359615,0.522411,-0.370568,-3.340527,2.203831,-12.587532
1790548406.4215,0.048530,0.029921,-0.140413,0.046662,0.025249,-0.140413,-0.952878,0.235874,-0.308646,-4.107087,0.456371,-8.706413
1790548406.4359,0.047763,0.032930,-0.147448,0.047433,0.030625,-0.147448,-0.254746,0.109603,-0.211515,-1.002520,2.575631,-14.528091
1790548406.4510,0.042871,0.027768,-0.107413,0.044239,0.028625,-0.107413,0.584226,-0.247355,0.627457,2.945262,3.765391,-12.121798
1790548406.4656,0.023316,0.023092,-0.080227,0.029593,0.024752,-0.080227,0.487095,0.756741,1.094902,2.523654,3.021791,-11.578441
1790548406.4797,0.016303,0.011285,-0.068597,0.020290,0.015325,-0.068597,0.829483,0.398569,1.365655,-0.887536,1.162791,-8.085434
1790548406.4936,0.021404,0.006436,-0.041556,0.021070,0.009103,-0.041556,0.604867,-0.241284,1.508924,-1.730752,1.869211,-6.067252
1790548406.5076,0.009184,0.000778,-0.029610,0.012750,0.003276,-0.029610,0.408176,0.734886,1.363227,-0.274288,0.605091,-4.165504
1790548406.5216,-0.003699,-0.007485,-0.018120,0.001236,-0.004257,-0.018120,0.517449,0.541838,1.189605,1.182175,0.939711,-9.793126
1790548406.5358,-0.003116,-0.017314,-0.003816,-0.001811,-0.013397,-0.003816,0.709283,-0.133225,1.064548,-0.657568,1.906391,-12.742777
1790548406.5513,0.006595,-0.014413,0.013040,0.004073,-0.014108,0.013040,-0.110263,-0.587315,1.048764,-2.037376,2.389731,-12.277042
1790548406.5653,0.016674,-0.009309,0.035965,0.012894,-0.010749,0.035965,-0.248675,-0.845927,0.879999,-0.389272,2.166651,-10.297672
1790548406.5825,0.018552,-0.010356,0.051164,0.016854,-0.010474,0.051164,0.040291,-0.425834,0.584962,1.488799,1.051251,-9.288581
1790548406.6026,0.017831,-0.016427,0.067869,0.017538,-0.014641,0.067869,0.321972,-0.242498,0.278998,1.910407,1.385871,-9.094525
1790548406.6213,0.022221,-0.014326,0.075522,0.020816,-0.014421,0.075522,0.060931,-0.189076,-0.017252,-0.619240,2.389731,-7.580888
1790548406.6402,0.015170,-0.032143,0.048106,0.016864,-0.026826,0.048106,0.802772,0.502985,-0.495624,-1.079176,0.196111,-13.713056
1790548406.6597,0.015432,-0.028391,0.065811,0.015861,-0.027921,0.065811,0.403319,0.052538,-0.313503,-0.504256,5.773111,-5.950818
1790548406.6757,0.024039,-0.028128,0.068631,0.021586,-0.028066,0.068631,0.035434,-0.525393,-0.358426,-0.235960,2.761531,-15.226693
1790548406.6946,0.023888,-0.020608,0.077592,0.023198,-0.022846,0.077592,-0.332451,-0.042165,-0.977639,1.412143,2.501271,-10.530539
1790548406.7137,0.015280,-0.018257,0.047624,0.017656,-0.019633,0.047624,-0.360376,0.182452,-0.887792,3.136902,-0.659029,-7.503266
1790548406.7337,0.014774,-0.010464,0.052890,0.015639,-0.013214,0.052890,-0.475720,-0.140510,-0.474984,1.833751,0.567911,-8.124245
1790548406.7489,0.011917,-0.015054,0.044161,0.013033,-0.014502,0.044161,0.116782,0.244373,-0.637679,0.108991,0.047391,-11.578441
1790548406.7728,0.016874,-0.024586,0.036297,0.015722,-0.021561,0.036297,0.301331,-0.220644,-0.631608,1.105519,0.307651,-10.918651
1790548406.7908,0.031091,-0.035539,0.023679,0.026480,-0.031345,0.023679,0.388749,-0.722084,-0.652249,-0.274288,-0.696209,-8.822846
1790548406.8047,0.043822,-0.046690,0.014232,0.038619,-0.042087,0.014232,0.586655,-0.819216,-0.759093,-0.504256,-0.250049,-7.774944
1790548406.8189,0.052255,-0.058102,0.008131,0.048164,-0.053297,0.008131,0.718996,-0.553319,-0.587899,-0.542584,0.679451,-11.423196
1790548406.8334,0.042221,-0.046721,-0.001463,0.044004,-0.048694,-0.001463,-0.742831,0.714246,-0.389994,-0.504256,2.761531,-15.808861
1790548406.8474,0.037879,-0.027173,-0.015537,0.039716,-0.033629,-0.015537,-1.416680,0.532124,-0.320788,-2.918919,1.869211,-14.528091
1790548406.8615,0.047461,-0.018156,-0.114151,0.045137,-0.022798,-0.114151,-0.784112,0.079249,-0.331715,-4.796990,0.158931,-5.795574
1790548406.8755,0.043534,-0.010065,-0.114632,0.044015,-0.013885,-0.114632,-0.768328,0.713032,-0.200588,-2.803935,-0.101329,-6.688231
1790548406.8895,0.031273,0.003604,-0.112510,0.035096,-0.001643,-0.112510,-1.073078,1.315246,-0.149594,-2.267343,0.493551,-5.562707
1790548406.9037,0.016222,0.022704,-0.124355,0.021884,0.015400,-0.124355,-1.465245,1.201117,-0.045178,-0.887536,0.567911,-6.649420
1790548406.9179,0.024575,0.024845,-0.134913,0.023768,0.022012,-0.134913,-0.390730,-0.417335,0.163655,-3.340527,-0.473129,-14.683336
1790548406.9319,0.031651,0.015014,-0.143232,0.029286,0.017113,-0.143232,0.570871,-0.739082,0.609245,1.067191,0.902531,-21.125994
1790548406.9461,0.014896,0.015742,-0.109288,0.019213,0.016153,-0.109288,0.024507,0.494486,1.110686,3.290214,1.385871,-6.727042
1790548406.9607,0.011164,0.012987,-0.068476,0.013579,0.013937,-0.068476,0.399677,0.136314,1.354728,-1.270816,3.356411,-9.715504
1790548406.9746,0.009782,0.011153,-0.040015,0.010921,0.011988,-0.040015,0.273406,0.076821,1.042694,-1.309144,2.203831,-7.891378
1790548406.9886,-0.001265,0.005632,-0.032605,0.002391,0.007539,-0.032605,0.357182,0.455634,1.114328,1.373815,1.199971,-10.258860
1790548407.0027,-0.001336,-0.002415,-0.019912,-0.000218,0.000571,-0.019912,0.529590,-0.084660,1.060906,-1.194160,1.497411,-13.596623
1790548407.0168,0.001312,0.000717,0.005639,0.000853,0.000673,0.005639,-0.106620,-0.293492,1.053621,-0.849208,2.947431,-11.423196
1790548407.0306,0.011902,0.008178,0.033784,0.008587,0.005927,0.033784,-0.373732,-0.896921,0.961346,-0.580912,2.873071,-9.327392
1790548407.0447,0.023459,0.013388,0.054225,0.018997,0.011149,0.054225,-0.266887,-1.098468,0.826576,0.683911,1.980751,-8.085434
1790548407.0586,0.029792,0.017353,0.068675,0.026554,0.015492,0.068675,-0.214679,-0.756080,0.684522,1.220503,2.017931,-9.405014
1790548407.0725,0.033234,0.020039,0.080529,0.031230,0.018675,0.080529,-0.098121,-0.386981,0.419839,0.108991,2.426911,-9.521448
1790548407.0866,0.026213,0.007927,0.075472,0.027718,0.011151,0.075472,0.779703,0.436207,0.024028,0.453943,1.497411,-16.585084
1790548407.1006,0.021999,0.001255,0.082186,0.023715,0.004224,0.082186,0.812485,0.382785,-0.226085,-0.695896,4.546171,-8.163056
1790548407.1145,0.015551,-0.008709,0.082023,0.018000,-0.004829,0.082023,0.873192,0.556407,-0.284364,-0.695896,3.021791,-9.133336
1790548407.1284,0.006808,-0.020447,0.074221,0.010166,-0.015761,0.074221,1.032245,0.817448,-0.277079,-1.232488,2.575631,-7.270399
1790548407.1423,0.014067,-0.026439,0.048561,0.012897,-0.023236,0.048561,0.352325,-0.284993,-0.500481,-2.229015,0.828171,-11.423196
1790548407.1562,0.021669,-0.021167,0.043335,0.019038,-0.021787,0.043335,-0.377374,-0.485327,-0.664390,-0.197632,2.464091,-15.498371
1790548407.1701,0.015576,-0.015279,0.047448,0.016615,-0.017232,0.047448,-0.344592,0.393712,-0.964283,2.217030,3.542311,-13.751868
1790548407.1839,0.000109,-0.006016,0.050231,0.005061,-0.009381,0.050231,-0.578922,0.926721,-0.946071,1.757095,1.348691,-4.825294
1790548407.1980,0.000054,0.001022,0.014828,0.001556,-0.002099,0.014828,-0.699122,0.244373,-0.875651,-1.040848,-0.361589,-9.521448
1790548407.2127,-0.004522,0.000590,-0.020753,-0.002699,-0.000217,-0.020753,-0.276600,0.415567,-0.864724,0.415615,-1.588528,-9.210958
1790548407.2272,-0.002145,0.000735,-0.044900,-0.002311,0.000450,-0.044900,-0.143045,0.082892,-1.007992,-1.194160,0.270471,-11.656063
1790548407.2410,0.004159,-0.001969,-0.063615,0.002218,-0.001244,-0.063615,0.033006,-0.390624,-0.984924,0.837223,-0.026969,-10.763406
1790548407.2549,0.012985,-0.009356,-0.081481,0.009755,-0.006923,-0.081481,0.352325,-0.563032,-0.926645,0.377287,-0.250049,-9.366203
1790548407.2686,0.030471,-0.022162,-0.096488,0.024256,-0.017591,-0.096488,0.726281,-1.145820,-0.853796,-0.465928,-0.473129,-7.969000
1790548407.2827,0.042106,-0.031814,-0.105340,0.036751,-0.027547,-0.105340,0.678929,-0.876280,-0.675317,0.645583,1.051251,-6.959909
1790548407.2971,0.029961,-0.018660,-0.115315,0.031998,-0.021326,-0.115315,-0.960162,0.761597,-0.437346,2.446998,2.241011,-19.069001
1790548407.3111,0.029191,-0.000370,-0.115511,0.030033,-0.006657,-0.115511,-1.402110,0.297795,-0.430061,-3.340527,0.939711,-13.829490
1790548407.3251,0.024968,0.007252,-0.123756,0.026488,0.003079,-0.123756,-0.801110,0.417995,-0.374210,-0.657568,-0.770569,-7.076343
1790548407.3394,0.018854,0.016228,-0.122187,0.021144,0.012284,-0.122187,-0.660269,0.585547,-0.227299,-0.772552,0.716631,-4.825294
1790548407.3535,0.005247,0.028395,-0.130796,0.010016,0.023562,-0.130796,-0.995373,0.993498,-0.071889,-0.120976,0.382011,-8.240679
1790548407.3674,0.019355,0.025278,-0.122261,0.016553,0.024763,-0.122261,0.033006,-0.979482,0.319065,-2.842263,-0.956469,-18.448022
1790548407.3816,0.016707,0.022135,-0.121188,0.016661,0.022923,-0.121188,0.290404,-0.151438,0.832647,1.948735,2.426911,-10.220049
1790548407.3959,0.003969,0.022096,-0.112060,0.007777,0.022344,-0.112060,0.143493,0.347575,1.307377,3.021918,2.538451,-7.580888
1790548407.4099,-0.005256,0.025081,-0.098249,-0.001346,0.024260,-0.098249,-0.087194,0.139957,1.404508,1.718767,1.683311,-5.135783
1790548407.4240,0.004195,0.025231,-0.070635,0.002533,0.024940,-0.070635,0.098570,-0.724513,1.024482,-1.462456,2.352551,-7.542077
1790548407.4380,-0.010734,0.023694,-0.061353,-0.006754,0.024068,-0.061353,0.150778,0.572191,0.974702,5.283269,2.798711,-12.354665
1790548407.4524,-0.007283,0.016727,-0.039741,-0.007124,0.018929,-0.039741,0.370537,-0.378482,0.947991,-0.657568,0.456371,-13.635434
1790548407.4666,0.000798,0.020996,-0.022448,-0.001579,0.020376,-0.022448,-0.192825,-0.730583,1.063334,-0.695896,3.653851,-11.850119
1790548407.4803,0.012465,0.029822,-0.006950,0.008252,0.026989,-0.006950,-0.558281,-0.961270,0.830219,-0.925864,2.687171,-9.754315
1790548407.4941,0.027214,0.037970,0.003245,0.021525,0.034676,0.003245,-0.481790,-1.272091,0.678451,0.147319,2.017931,-6.727042
1790548407.5082,0.037274,0.045237,0.010555,0.032549,0.042069,0.010555,-0.384659,-1.076614,0.515756,1.987063,2.501271,-7.386832
1790548407.5222,0.024436,0.035510,0.018450,0.026870,0.037477,0.018450,0.597582,0.636541,0.158798,4.248414,0.939711,-13.907112
1790548407.5362,0.025535,0.024585,0.008956,0.025936,0.028453,0.008956,1.054099,0.054967,-0.084030,-1.807408,5.103871,-8.589979
1790548407.5502,0.016973,0.016408,-0.001153,0.019662,0.020022,-0.001153,0.814913,0.715460,-0.158093,-1.040848,4.397451,-8.473546
1790548407.5641,0.010039,0.001617,-0.008469,0.012926,0.007139,-0.008469,1.099023,0.669323,-0.247939,-1.615768,2.017931,-9.249770
1790548407.5781,-0.001707,-0.009934,-0.017898,0.002683,-0.004812,-0.017898,1.038315,1.015353,-0.411849,-0.964192,2.984611,-6.532986
1790548407.5921,-0.004652,-0.014561,-0.015151,-0.002451,-0.011636,-0.015151,0.674073,0.348789,-0.352356,-1.002520,4.843611,-7.115154
1790548407.6062,0.003913,-0.015163,-0.019794,0.002004,-0.014105,-0.019794,0.045147,-0.549676,-0.247939,-0.772552,2.203831,-14.683336
1790548407.6201,-0.001391,-0.006854,-0.009388,-0.000372,-0.009030,-0.009388,-0.504859,0.285654,-0.768806,3.520182,4.025651,-13.480189
1790548407.6341,-0.006958,-0.004213,-0.011491,-0.004982,-0.005658,-0.011491,-0.213465,0.421638,-0.857439,1.143847,1.162791,-8.473546
1790548407.6481,-0.003380,-0.001816,-0.021548,-0.003860,-0.002968,-0.021548,-0.303312,-0.083446,-0.876865,-0.312616,-0.026969,-5.679140
1790548407.6621,-0.015596,0.000906,0.001688,-0.012075,-0.000257,0.001688,-0.415013,0.567335,-0.462842,3.520182,-0.919289,-6.222497
1790548407.6761,-0.019021,0.004732,-0.000505,-0.016937,0.003236,-0.000505,-0.391944,0.341504,-0.623109,0.147319,0.084571,-8.861658
1790548407.6900,-0.013762,0.004721,-0.008437,-0.014715,0.004276,-0.008437,-0.155186,-0.173292,-0.851368,-1.117504,-0.547489,-13.014455
1790548407.7037,-0.008787,0.001213,-0.013193,-0.010565,0.002131,-0.013193,0.159277,-0.254640,-0.734810,0.070663,0.382011,-9.482637
1790548407.7178,0.001970,-0.007096,-0.015718,-0.001791,-0.004328,-0.015718,0.448242,-0.674733,-0.634037,-0.120976,-0.250049,-8.784035
1790548407.7319,0.015719,-0.017751,-0.021295,0.010466,-0.013724,-0.021295,0.623079,-0.824072,-0.782162,-0.772552,-0.138509,-8.978091
1790548407.7459,0.023930,-0.024554,-0.043140,0.019891,-0.021305,-0.043140,0.501665,-0.686874,-0.668033,1.948735,1.571771,-8.900469
1790548407.7598,0.020320,-0.021526,-0.052722,0.020191,-0.021460,-0.052722,-0.254746,0.224947,-0.535691,1.450471,1.460231,-12.898021
1790548407.7737,0.006694,-0.003646,-0.060800,0.010743,-0.008990,-0.060800,-1.323191,0.974072,-0.422776,1.220503,1.794851,-13.674245
1790548407.7876,0.012569,0.008737,-0.066091,0.012021,0.003419,-0.066091,-1.048795,-0.116227,-0.372996,-3.570495,-0.473129,-9.599070
1790548407.8016,0.010348,0.015148,-0.062576,0.010850,0.011630,-0.062576,-0.629916,0.266227,-0.193303,-0.695896,-0.287229,-6.106063
1790548407.8155,0.001822,0.022590,-0.061465,0.004530,0.019302,-0.061465,-0.705193,0.789523,-0.126525,-1.615768,-0.361589,-7.852567
1790548407.8296,0.010517,0.018286,-0.055340,0.008721,0.018591,-0.055340,0.086428,-0.609169,0.329992,-2.497311,-2.666748,-19.418301
1790548407.8436,0.010031,0.016206,-0.045324,0.009638,0.016921,-0.045324,0.113139,-0.156294,0.849645,0.492271,1.646131,-16.313406
1790548407.8575,0.006184,0.013722,-0.028610,0.007220,0.014682,-0.028610,0.201772,0.068322,1.213888,-0.159304,1.311511,-7.464455
1790548407.8714,0.007759,0.017167,-0.020949,0.007597,0.016422,-0.020949,-0.003418,-0.233999,1.439718,-1.692424,3.839751,-7.386832
1790548407.8854,0.002816,0.022031,-0.030631,0.004250,0.020348,-0.030631,-0.014346,0.184880,1.069405,-0.235960,3.319231,-4.631238
1790548407.8992,0.002290,0.020409,-0.020585,0.002878,0.020391,-0.020585,0.127709,-0.219429,0.909138,1.335487,2.129471,-12.082986
1790548407.9131,0.011391,0.020312,-0.006377,0.008837,0.020335,-0.006377,0.012365,-0.748795,0.774368,-1.232488,2.055111,-12.354665
1790548407.9271,0.023272,0.029405,0.008581,0.018942,0.026684,0.008581,-0.612918,-0.919989,0.781653,-2.114032,2.687171,-12.703965
1790548407.9407,0.034986,0.038887,0.019378,0.030173,0.035226,0.019378,-0.618988,-1.045046,0.713661,-0.044320,2.129471,-8.357112
1790548407.9546,0.050438,0.048730,0.028257,0.044358,0.044679,0.028257,-0.629916,-1.290303,0.525469,0.032335,2.017931,-7.736133
1790548407.9702,0.051753,0.051436,0.028293,0.049535,0.049409,0.028293,-0.235320,-0.288636,0.180653,1.795423,0.865351,-9.560259
1790548407.9839,0.047825,0.044695,0.023540,0.048338,0.046110,0.023540,0.522305,0.333005,-0.167806,-0.734224,2.910251,-10.802217
1790548407.9978,0.039418,0.039612,0.009985,0.042094,0.041561,0.009985,0.542946,0.600116,-0.184804,0.185647,4.434631,-8.667602
1790548408.0121,0.028604,0.026476,-0.000072,0.032651,0.031001,-0.000072,0.987322,0.957074,-0.340214,-2.037376,3.021791,-9.327392
1790548408.0261,0.013878,0.014567,-0.014010,0.019510,0.019498,-0.014010,1.032245,1.178048,-0.464057,-0.465928,3.393591,-6.765853
1790548408.0402,0.009420,0.007486,-0.023494,0.012447,0.011090,-0.023494,0.706855,0.623185,-0.244297,-2.995575,3.467951,-6.416553
1790548408.0541,-0.005528,-0.002014,-0.030497,-0.000136,0.001917,-0.030497,0.869550,1.232684,-0.273436,-1.232488,3.691031,-8.085434
1790548408.0679,-0.007315,-0.017119,-0.038055,-0.005161,-0.011408,-0.038055,1.242291,0.295367,-0.318360,-2.305671,4.917971,-12.781588
1790548408.0819,-0.007046,-0.015915,-0.039497,-0.006481,-0.014563,-0.039497,0.025721,0.022185,-0.857439,1.987063,5.884650,-18.486833
1790548408.0959,-0.010876,-0.008937,-0.035116,-0.009557,-0.010625,-0.035116,-0.438081,0.240730,-1.196184,3.520182,2.947431,-11.578441
1790548408.1097,-0.015783,-0.001412,-0.042588,-0.013915,-0.004176,-0.042588,-0.541283,0.428922,-1.184043,1.105519,1.125611,-6.921098
1790548408.1237,-0.016454,0.001947,-0.053280,-0.015692,0.000110,-0.053280,-0.451437,0.155740,-0.821014,0.223975,-0.807749,-5.407462
1790548408.1375,-0.023110,-0.000140,-0.058029,-0.020885,-0.000065,-0.058029,-0.043485,0.479916,-0.739667,1.910407,-1.328269,-9.987182
1790548408.1514,-0.021735,0.000900,-0.072592,-0.021480,0.000610,-0.072592,-0.085980,0.082892,-1.009206,-0.197632,1.348691,-10.452916
1790548408.1649,-0.019763,0.002475,-0.082391,-0.020278,0.001915,-0.082391,-0.180683,-0.044593,-1.021348,1.258831,0.828171,-13.519000
1790548408.1785,-0.016192,0.002051,-0.088642,-0.017418,0.002010,-0.088642,-0.093265,-0.238856,-0.818586,1.258831,-0.175689,-8.163056
1790548408.1925,-0.003190,-0.000058,-0.093728,-0.007458,0.000562,-0.093728,0.018436,-0.810717,-0.546618,-0.619240,-0.287229,-8.745224
1790548408.2067,0.001857,-0.004451,-0.093727,-0.000938,-0.002947,-0.093727,0.233339,-0.395480,-0.206659,0.798895,0.419191,-9.366203
1790548408.2209,0.002683,-0.002721,-0.095666,0.001597,-0.002789,-0.095666,-0.129689,-0.064019,-0.171448,0.338959,1.571771,-10.491728
1790548408.2349,0.004311,0.000575,-0.093442,0.003497,-0.000434,-0.093442,-0.259602,-0.145367,0.051954,0.185647,1.720491,-14.178791
1790548408.2489,-0.002999,0.008498,-0.093017,-0.001050,0.005818,-0.093017,-0.600776,0.544266,0.039812,-0.465928,1.534591,-12.587532
1790548408.2629,-0.005507,0.021362,-0.090274,-0.004170,0.016699,-0.090274,-0.966233,0.231017,0.268071,-1.385800,1.014071,-9.405014
1790548408.2769,0.001770,0.017733,-0.081454,-0.000012,0.017423,-0.081454,0.130137,-0.581244,0.476903,-0.810880,-0.287229,-13.130889
1790548408.2909,-0.000509,0.015047,-0.071317,-0.000360,0.015759,-0.071317,0.207842,-0.015454,0.810793,0.415615,1.757671,-9.560259
1790548408.3048,-0.008620,0.012957,-0.057318,-0.006142,0.013797,-0.057318,0.158062,0.282011,1.270952,1.220503,1.683311,-9.831937
1790548408.3187,-0.015206,0.006633,-0.036795,-0.012487,0.008782,-0.036795,0.405747,0.187308,1.483427,0.492271,0.753811,-8.007811
1790548408.3326,-0.017320,-0.001452,-0.014915,-0.015870,0.001618,-0.014915,0.506521,0.071965,1.580559,-2.075704,0.456371,-8.046623
1790548408.3465,-0.023349,-0.002323,0.006003,-0.021105,-0.001141,0.006003,0.048790,0.244373,1.489498,-0.465928,1.423051,-9.055714
1790548408.3604,-0.025600,-0.003386,0.022776,-0.024252,-0.002712,0.022776,0.022079,-0.047021,1.221173,0.377287,0.902531,-9.172147
1790548408.3743,-0.015786,-0.006211,0.039679,-0.018326,-0.005161,0.039679,0.104640,-0.788862,0.972273,-1.232488,0.233291,-10.996273
1790548408.3882,-0.005679,-0.000717,0.054862,-0.009473,-0.002051,0.054862,-0.398015,-0.803432,0.839932,-1.155832,1.832031,-12.082986
1790548408.4019,0.005875,0.007248,0.066475,0.001271,0.004458,0.066475,-0.601990,-0.943058,0.649312,-0.465928,1.237151,-9.793126
1790548408.4156,0.017309,0.012925,0.072776,0.012497,0.010385,0.072776,-0.423512,-0.946701,0.405269,0.108991,1.423051,-9.987182
1790548408.4295,0.025638,0.019618,0.072798,0.021696,0.016848,0.072798,-0.377374,-0.695373,0.230433,0.300631,2.761531,-8.512357
1790548408.4436,0.025407,0.015796,0.066589,0.024294,0.016112,0.066589,0.181131,-0.014239,-0.200588,0.913879,0.716631,-14.838581
1790548408.4576,0.021606,0.006200,0.057552,0.022412,0.009174,0.057552,0.620651,0.313579,-0.477412,0.338959,1.088431,-11.035084
1790548408.4721,0.012572,0.003632,0.033516,0.015524,0.005295,0.033516,0.414246,0.643826,-0.322002,0.377287,4.992331,-8.046623
1790548408.4865,0.005388,-0.003258,0.022997,0.008429,-0.000692,0.022997,0.585440,0.665680,-0.453129,-1.462456,3.170511,-8.861658
1790548408.5010,-0.003974,-0.010178,0.007836,-0.000253,-0.007332,0.007836,0.677715,0.756741,-0.558760,-0.274288,3.839751,-7.425644
1790548408.5150,-0.008068,-0.014853,-0.007286,-0.005724,-0.012597,-0.007286,0.568443,0.545480,-0.530834,-2.305671,4.285911,-7.348021
1790548408.5292,-0.000335,-0.015061,-0.018565,-0.001952,-0.014321,-0.018565,0.103426,-0.360270,-0.661962,-1.960720,3.616671,-12.160609
1790548408.5436,0.003118,-0.010016,-0.025321,0.001597,-0.011308,-0.025321,-0.292384,-0.207288,-0.924216,2.140375,3.988471,-14.955014
1790548408.5579,0.001639,-0.005582,-0.035226,0.001626,-0.007300,-0.035226,-0.398015,0.158169,-1.094196,2.102047,0.530731,-13.014455
1790548408.5721,-0.006040,-0.002419,-0.042267,-0.003740,-0.003883,-0.042267,-0.289956,0.496914,-1.050487,2.217030,0.456371,-6.571797
1790548408.5861,-0.018886,0.000977,-0.046309,-0.014342,-0.000481,-0.046309,-0.383445,0.761597,-0.725097,3.060246,-0.473129,-6.377742
1790548408.6001,-0.025225,0.004893,-0.052621,-0.021960,0.003280,-0.052621,-0.368875,0.544266,-0.749380,0.645583,0.158931,-9.288581
1790548408.6144,-0.022617,0.004680,-0.059752,-0.022420,0.004260,-0.059752,-0.123618,0.002759,-0.862295,-0.695896,-0.844929,-12.238231
1790548408.6283,-0.019232,-0.000137,-0.065396,-0.020188,0.001182,-0.065396,0.227269,-0.133225,-0.751808,0.223975,-0.361589,-11.035084
1790548408.6418,-0.006097,-0.005783,-0.065955,-0.010324,-0.003693,-0.065955,0.321972,-0.878709,-0.454344,-0.389272,0.121751,-8.279490
1790548408.6559,0.007536,-0.012728,-0.064171,0.002178,-0.010017,-0.064171,0.425174,-0.899349,-0.230941,-0.734224,0.344831,-8.124245
1790548408.6697,0.014530,-0.018923,-0.066615,0.010824,-0.016251,-0.066615,0.478596,-0.499896,-0.114384,-0.159304,1.757671,-9.210958
1790548408.6837,0.007938,-0.015190,-0.071802,0.008804,-0.015508,-0.071802,-0.225606,0.382785,0.083521,1.412143,2.724351,-13.092077
1790548408.6976,0.000317,-0.000713,-0.070306,0.002863,-0.005151,-0.070306,-1.013585,0.568549,0.249859,-1.194160,2.464091,-12.587532
1790548408.7117,-0.001219,0.008565,-0.064837,0.000006,0.004450,-0.064837,-0.771970,0.222518,0.346990,-2.382327,-0.175689,-8.551168
1790548408.7267,-0.002982,0.011511,-0.060529,-0.002086,0.009392,-0.060529,-0.320310,0.233446,0.337277,-1.960720,-0.324409,-6.494175
1790548408.7425,0.002348,0.004272,-0.050757,0.001018,0.005808,-0.050757,0.334113,-0.434333,0.649312,-0.619240,-0.919289,-12.936833
1790548408.7575,-0.003703,0.003927,-0.039517,-0.002287,0.004491,-0.039517,0.087642,0.197021,1.043908,0.645583,2.835891,-11.073895
1790548408.7716,-0.011355,0.002173,-0.024286,-0.008634,0.002868,-0.024286,0.100998,0.257728,1.381439,0.875551,1.051251,-9.055714
1790548408.7864,-0.013084,-0.001427,-0.008587,-0.011749,-0.000139,-0.008587,0.294046,-0.185433,1.447003,0.722239,1.497411,-6.106063
1790548408.8011,-0.013990,0.003354,-0.000160,-0.013318,0.002306,-0.000160,-0.180683,-0.117442,1.026910,0.262303,4.100011,-9.676693
1790548408.8152,-0.017348,0.001493,0.010392,-0.016139,0.001737,0.010392,0.093713,0.075607,0.799865,0.683911,1.199971,-11.345574
1790548408.8290,-0.013390,-0.001460,0.022901,-0.014215,-0.000501,0.022901,0.185988,-0.366341,0.717304,-0.734224,1.608951,-13.208511
1790548408.8433,-0.005199,0.002874,0.034850,-0.007904,0.001861,0.034850,-0.302097,-0.677161,0.695449,-0.389272,2.017931,-12.393476
1790548408.8570,0.004823,0.009185,0.042580,0.001005,0.006988,0.042580,-0.433225,-0.833785,0.492687,-0.044320,2.092291,-10.297672
1790548408.8706,0.016939,0.013361,0.048847,0.012159,0.011449,0.048847,-0.308168,-0.951557,0.282641,-0.274288,1.348691,-8.551168
1790548408.8845,0.021530,0.014781,0.046856,0.018719,0.013782,0.046856,-0.117548,-0.463472,0.095663,1.220503,1.237151,-8.784035
1790548408.8984,0.028089,0.016449,0.045639,0.025278,0.015649,0.045639,-0.047128,-0.427048,-0.081602,-0.772552,2.241011,-7.542077
1790548408.9124,0.026520,0.009116,0.041016,0.026147,0.011076,0.041016,0.450671,0.189736,-0.414277,-0.580912,1.088431,-13.286133
1790548408.9264,0.020928,0.002023,0.027797,0.022494,0.004739,0.027797,0.609723,0.498129,-0.572115,-0.312616,3.728211,-10.064805
1790548408.9404,0.014345,-0.001461,0.014662,0.016789,0.000399,0.014662,0.417889,0.563692,-0.455558,-0.427600,3.839751,-7.969000
1790548408.9543,0.005383,-0.008621,0.004395,0.008805,-0.005915,0.004395,0.621865,0.851444,-0.445845,-1.960720,2.910251,-8.085434
1790548408.9686,-0.001831,-0.015117,-0.007909,0.001360,-0.012357,-0.007909,0.610937,0.783452,-0.607325,-2.535639,3.356411,-7.580888
1790548408.9831,-0.000649,-0.018344,-0.018884,-0.000047,-0.016548,-0.018884,0.372966,0.105961,-0.750594,-1.500784,4.137191,-9.676693
1790548408.9974,0.005917,-0.014702,-0.029357,0.004128,-0.015256,-0.029357,-0.220750,-0.348129,-0.858653,-0.120976,2.984611,-13.480189
1790548409.0114,0.001495,-0.007847,-0.039709,0.002285,-0.010069,-0.039709,-0.508502,0.342718,-1.231394,3.366870,2.129471,-14.023546
1790548409.0255,-0.005271,-0.000319,-0.051806,-0.003004,-0.003244,-0.051806,-0.510930,0.527268,-1.209540,1.872079,1.794851,-8.085434
1790548409.0395,-0.009068,0.006609,-0.064034,-0.007249,0.003653,-0.064034,-0.548568,0.388856,-1.057772,0.722239,0.753811,-7.969000
1790548409.0535,-0.021584,0.012430,-0.073697,-0.017283,0.009797,-0.073697,-0.524285,0.941290,-0.953356,1.757095,-0.064149,-8.357112
1790548409.0675,-0.022677,0.014598,-0.087932,-0.021059,0.013157,-0.087932,-0.297241,0.301437,-1.113623,-0.350944,-0.807749,-11.462007
1790548409.0811,-0.022123,0.012656,-0.100935,-0.021804,0.012806,-0.100935,-0.011917,0.126601,-1.116051,0.568927,-0.919289,-10.763406
1790548409.0947,-0.015161,0.010149,-0.110213,-0.017154,0.010946,-0.110213,0.080357,-0.368769,-0.906004,0.108991,0.010211,-9.133336
1790548409.1083,-0.002658,0.007640,-0.116420,-0.007007,0.008632,-0.116420,0.105854,-0.845927,-0.697172,0.300631,0.382011,-7.852567
1790548409.1222,0.007029,0.004660,-0.121070,0.002819,0.005851,-0.121070,0.150778,-0.650450,-0.512622,0.223975,0.605091,-8.279490
1790548409.1362,0.011336,0.003671,-0.129997,0.008781,0.004325,-0.129997,0.116782,-0.321417,-0.368139,0.913879,2.538451,-10.142427
1790548409.1502,0.004210,0.012590,-0.133694,0.005581,0.010110,-0.133694,-0.651770,0.490844,-0.142309,0.875551,2.241011,-14.566903
1790548409.1641,0.000528,0.027209,-0.132336,0.002044,0.022080,-0.132336,-1.058508,0.308722,0.088378,-0.964192,1.757671,-9.754315
1790548409.1781,-0.001378,0.036925,-0.127763,-0.000352,0.032471,-0.127763,-0.778041,0.255300,0.164869,-1.462456,0.344831,-5.912007
1790548409.1919,0.006640,0.029193,-0.119135,0.004543,0.030177,-0.119135,0.436101,-0.601884,0.345776,-1.117504,-0.175689,-10.646972
1790548409.2060,0.004643,0.022149,-0.113621,0.004613,0.024557,-0.113621,0.558729,-0.141724,0.910352,1.565455,2.278191,-9.133336
1790548409.2201,-0.002919,0.017202,-0.098399,-0.000659,0.019409,-0.098399,0.377822,0.245587,1.332874,0.952207,2.278191,-11.578441
1790548409.2343,-0.006091,0.012063,-0.076550,-0.004462,0.014266,-0.076550,0.365681,-0.090730,1.618197,0.492271,1.608951,-10.181238
1790548409.2482,-0.008883,0.008492,-0.060926,-0.007557,0.010224,-0.060926,0.358396,-0.119870,1.581773,0.645583,2.501271,-7.658511
1790548409.2622,-0.008706,0.008655,-0.038714,-0.008361,0.009125,-0.038714,-0.017988,-0.178149,1.415435,-0.887536,1.125611,-7.309210
1790548409.2762,-0.012054,0.008022,-0.021445,-0.010946,0.008353,-0.021445,0.028149,0.112031,1.125255,-0.810880,1.237151,-8.861658
1790548409.2901,-0.008879,0.007732,-0.006043,-0.009499,0.007919,-0.006043,-0.004633,-0.317775,0.893354,-1.155832,1.423051,-11.267951
1790548409.3040,0.003746,0.012696,0.009323,-0.000227,0.011262,0.009323,-0.343378,-0.952771,0.782867,-2.075704,2.092291,-11.306763
1790548409.3176,0.017239,0.020879,0.019652,0.011999,0.017994,0.019652,-0.615346,-1.054759,0.487831,-1.079176,1.683311,-12.509909
1790548409.3312,0.030520,0.029234,0.024531,0.024964,0.025862,0.024531,-0.608061,-1.038975,0.192794,-0.235960,1.497411,-8.357112
1790548409.3451,0.035978,0.030299,0.019935,0.032674,0.028968,0.019935,-0.100550,-0.456187,-0.158093,0.952207,1.683311,-10.724595
1790548409.3590,0.037602,0.025645,0.011126,0.036123,0.026642,0.011126,0.246695,-0.128369,-0.433703,1.182175,0.939711,-12.703965
1790548409.3730,0.032087,0.021001,-0.003980,0.033298,0.022693,-0.003980,0.474954,0.422852,-0.423990,0.492271,4.657711,-9.793126
1790548409.3868,0.024900,0.016187,-0.015684,0.027420,0.018139,-0.015684,0.462812,0.676607,-0.516265,-1.232488,3.765391,-8.861658
1790548409.4009,0.018935,0.009710,-0.027209,0.021480,0.012239,-0.027209,0.552659,0.628042,-0.607325,-1.769080,3.467951,-9.288581
1790548409.4148,0.008582,0.001648,-0.040784,0.012451,0.004825,-0.040784,0.737208,1.006854,-0.680174,-1.999048,3.542311,-7.115154
1790548409.4289,0.008919,-0.006076,-0.051685,0.009979,-0.002805,-0.051685,0.761491,0.240730,-0.682602,-2.305671,4.248731,-7.037532
1790548409.4430,0.002979,-0.011740,-0.053672,0.005079,-0.009059,-0.053672,0.721424,0.521197,-0.719026,0.032335,6.330810,-7.348021
1790548409.4568,0.006356,-0.010958,-0.062762,0.005973,-0.010388,-0.062762,0.003866,-0.151438,-1.061415,1.182175,4.100011,-14.722147
1790548409.4711,0.005239,-0.004567,-0.072623,0.005459,-0.006313,-0.072623,-0.468435,0.153312,-1.337025,2.906934,2.501271,-15.071448
1790548409.4854,0.003608,-0.001654,-0.084294,0.004163,-0.003052,-0.084294,-0.280243,0.211591,-1.267819,0.798895,0.344831,-5.291028
1790548409.4995,-0.005981,-0.002779,-0.092884,-0.002938,-0.002860,-0.092884,-0.087194,0.598902,-1.026204,2.906934,-0.770569,-6.688231
1790548409.5137,-0.015196,-0.000506,-0.099049,-0.011518,-0.001212,-0.099049,-0.268101,0.597688,-0.763950,2.370342,-0.138509,-7.619700
1790548409.5275,-0.015459,0.001114,-0.107570,-0.014277,0.000416,-0.107570,-0.221964,0.149670,-0.867152,0.223975,-0.138509,-12.509909
1790548409.5413,-0.014176,-0.003061,-0.114498,-0.014206,-0.002018,-0.114498,0.184774,-0.009383,-0.813730,0.913879,-0.435949,-12.548721
1790548409.5550,-0.005010,-0.007649,-0.118371,-0.007769,-0.005960,-0.118371,0.239410,-0.582458,-0.601255,-0.044320,0.047391,-9.599070
1790548409.5687,0.006368,-0.015241,-0.118344,0.002127,-0.012456,-0.118344,0.454313,-0.825286,-0.343857,0.300631,-0.101329,-8.861658
1790548409.5826,0.021762,-0.023208,-0.122821,0.015871,-0.019982,-0.122821,0.581798,-0.986767,-0.171448,-1.654096,1.274331,-8.201867
1790548409.5965,0.018417,-0.028447,-0.123588,0.017654,-0.025907,-0.123588,0.405747,0.188522,0.088378,0.377287,1.720491,-9.870749
1790548409.6105,0.013627,-0.015992,-0.120991,0.014835,-0.018966,-0.120991,-0.854532,0.302652,0.349419,-0.504256,2.910251,-15.265504
1790548409.6244,0.011974,-0.004537,-0.116174,0.012832,-0.008865,-0.116174,-0.912811,0.161811,0.519398,-2.305671,-0.138509,-10.569350
1790548409.6382,0.008869,-0.001149,-0.116143,0.010058,-0.003464,-0.116143,-0.357948,0.326934,0.481760,-2.305671,-0.361589,-7.386832
1790548409.6523,-0.000036,-0.000982,-0.111809,0.002993,-0.001727,-0.111809,-0.047128,0.681464,0.475689,-1.002520,0.456371,-5.019350
1790548409.6661,-0.006324,0.007052,-0.107268,-0.003529,0.004418,-0.107268,-0.612918,0.532124,0.654168,-1.500784,0.530731,-4.980539
1790548409.6800,0.004826,0.002202,-0.094757,0.002319,0.002867,-0.094757,0.218770,-0.929703,1.051193,-2.114032,-1.365448,-19.301868
1790548409.6939,0.002276,0.005228,-0.081299,0.002289,0.004520,-0.081299,-0.177041,-0.144153,1.319518,1.412143,1.646131,-8.279490
1790548409.7079,-0.003858,0.006646,-0.065547,-0.002014,0.006008,-0.065547,-0.105406,0.057395,1.557490,1.335487,0.865351,-6.649420
1790548409.7218,-0.000679,0.005631,-0.046122,-0.001080,0.005744,-0.046122,0.156848,-0.253425,1.261239,-2.497311,2.203831,-7.386832
1790548409.7363,-0.008431,0.004953,-0.040126,-0.006226,0.005190,-0.040126,0.053646,0.261371,0.841146,2.293686,1.571771,-9.482637
1790548409.7502,-0.006577,-0.002141,-0.030158,-0.006472,0.000058,-0.030158,0.465240,-0.240070,0.673594,-0.159304,1.162791,-14.139979
1790548409.7642,-0.002576,-0.002948,-0.019882,-0.003745,-0.002046,-0.019882,0.109497,-0.352985,0.644455,-0.849208,2.798711,-11.811308
1790548409.7778,0.006868,0.003321,-0.010145,0.003684,0.001711,-0.010145,-0.410156,-0.788862,0.592247,-0.350944,2.649991,-11.578441
1790548409.7914,0.015914,0.008150,-0.003559,0.012245,0.006219,-0.003559,-0.314239,-0.831357,0.479332,0.760567,1.869211,-8.667602
1790548409.8053,0.022830,0.010045,-0.000499,0.019655,0.008897,-0.000499,-0.128475,-0.605527,0.212221,0.607255,1.385871,-8.318301
1790548409.8192,0.028494,0.010800,-0.000015,0.025842,0.010229,-0.000015,-0.078695,-0.473185,0.013101,0.568927,1.311511,-10.491728
1790548409.8331,0.023932,0.000680,-0.003403,0.024505,0.003545,-0.003403,0.657075,0.383999,-0.257652,-0.619240,0.790991,-13.829490
1790548409.8470,0.018885,-0.009011,-0.011171,0.020571,-0.005245,-0.011171,0.718996,0.521197,-0.524764,-1.615768,2.389731,-10.414105
1790548409.8610,0.012668,-0.014661,-0.020199,0.015039,-0.011836,-0.020199,0.522305,0.590403,-0.479840,-1.155832,3.021791,-7.969000
1790548409.8748,0.003503,-0.021768,-0.027794,0.006964,-0.018788,-0.027794,0.621865,0.806521,-0.383923,-1.194160,2.649991,-7.852567
1790548409.8890,-0.005404,-0.027132,-0.040148,-0.001694,-0.024629,-0.040148,0.519877,0.855086,-0.625538,-1.769080,2.798711,-6.804665
1790548409.9031,0.000122,-0.027551,-0.048466,-0.000422,-0.026674,-0.048466,0.039077,-0.275280,-0.589113,-1.155832,2.278191,-14.566903
1790548409.9170,0.004672,-0.020981,-0.059808,0.003143,-0.022689,-0.059808,-0.433225,-0.208502,-0.936358,-0.159304,3.430771,-15.032637
1790548409.9310,-0.000289,-0.015482,-0.075726,0.000741,-0.017644,-0.075726,-0.457508,0.398569,-1.201041,2.906934,0.976891,-14.256413
1790548409.9449,-0.003548,-0.004113,-0.089313,-0.002261,-0.008172,-0.089313,-0.780469,0.324506,-1.034703,0.530599,1.199971,-5.213406
1790548409.9589,-0.011882,0.005094,-0.097256,-0.008996,0.001114,-0.097256,-0.774399,0.510270,-0.604897,2.523654,-0.212869,-7.774944
1790548409.9731,-0.020096,0.008621,-0.107780,-0.016766,0.006369,-0.107780,-0.371303,0.629256,-0.757879,1.450471,-0.435949,-9.793126
1790548409.9875,-0.019082,0.010351,-0.120604,-0.018387,0.009156,-0.120604,-0.243819,0.110817,-1.011635,-0.082648,-0.621849,-11.462007
1790548410.0014,-0.018804,0.007330,-0.131853,-0.018679,0.007878,-0.131853,0.079143,0.029470,-0.811301,1.680439,-0.807749,-11.267951
1790548410.0151,-0.009680,0.000723,-0.140844,-0.012380,0.002870,-0.140844,0.334113,-0.626167,-0.776091,1.182175,-0.733389,-9.055714
1790548410.0288,0.009199,-0.010198,-0.144914,0.002725,-0.006278,-0.144914,0.681358,-1.224739,-0.827085,-0.810880,-0.250049,-9.443825
1790548410.0428,0.016967,-0.016921,-0.164384,0.012695,-0.013728,-0.164384,0.523519,-0.651664,-0.551475,2.370342,2.129471,-9.094525
1790548410.0567,0.028095,-0.017594,-0.173650,0.023475,-0.016434,-0.173650,0.081572,-0.802218,-0.449487,0.607255,2.464091,-11.462007
1790548410.0708,0.016102,-0.006177,-0.181325,0.018314,-0.009254,-0.181325,-0.803538,0.841731,-0.217586,0.875551,2.873071,-15.575993
1790548410.0847,0.012600,0.009140,-0.177400,0.014314,0.003622,-0.177400,-1.132571,0.391284,-0.082816,-2.880591,1.608951,-12.781588
1790548410.0987,0.009817,0.017612,-0.167926,0.011166,0.013415,-0.167926,-0.720976,0.426494,-0.088887,-2.458983,-0.101329,-6.571797
1790548410.1126,0.002861,0.025342,-0.166248,0.005352,0.021764,-0.166248,-0.502431,0.607401,0.055596,-1.232488,1.720491,-6.144874
1790548410.1266,0.011873,0.021284,-0.155749,0.009917,0.021428,-0.155749,0.233339,-0.660163,0.412554,-2.114032,1.051251,-15.032637
1790548410.1405,0.010269,0.019964,-0.144153,0.010163,0.020403,-0.144153,0.199343,-0.062805,0.961346,-0.159304,3.616671,-11.112707
1790548410.1546,0.001461,0.014787,-0.130571,0.004072,0.016472,-0.130571,0.399677,0.269870,1.439718,1.565455,1.720491,-9.288581
1790548410.1686,0.003339,0.012219,-0.109144,0.003558,0.013495,-0.109144,0.158062,-0.463472,1.580559,0.530599,0.716631,-7.891378
1790548410.1825,-0.007275,0.011624,-0.103573,-0.004025,0.012185,-0.103573,0.105854,0.370644,1.275809,2.293686,1.943571,-7.542077
1790548410.1965,-0.010855,0.007895,-0.090295,-0.008806,0.009182,-0.090295,0.273406,0.101104,0.973488,-0.120976,1.757671,-10.025993
1790548410.2109,-0.007200,0.004357,-0.072804,-0.007682,0.005805,-0.072804,0.192058,-0.328702,0.838718,-1.347472,0.790991,-11.345574
1790548410.2249,0.003382,0.010563,-0.058102,0.000063,0.009135,-0.058102,-0.446580,-0.793719,0.659025,-1.884064,1.943571,-12.936833
1790548410.2390,0.016337,0.016917,-0.046838,0.011454,0.014582,-0.046838,-0.485433,-1.037761,0.574035,-0.274288,1.088431,-11.500819
1790548410.2526,0.026502,0.022629,-0.045386,0.021988,0.020215,-0.045386,-0.368875,-0.929703,0.387057,0.952207,1.869211,-7.891378
1790548410.2666,0.033705,0.026231,-0.045025,0.030190,0.024426,-0.045025,-0.279029,-0.648022,0.166083,0.952207,1.125611,-8.784035
1790548410.2806,0.036524,0.021834,-0.045716,0.034624,0.022612,-0.045716,0.298903,-0.178149,-0.125311,-0.580912,1.757671,-10.685784
1790548410.2945,0.032093,0.014139,-0.052047,0.032852,0.016681,-0.052047,0.451885,0.360930,-0.449487,0.338959,0.567911,-12.471098
1790548410.3085,0.023957,0.007160,-0.066313,0.026626,0.010016,-0.066313,0.626721,0.646254,-0.413063,-0.120976,3.542311,-8.201867
1790548410.3225,0.015490,-0.001757,-0.076348,0.018831,0.001775,-0.076348,0.748136,0.765240,-0.474984,-1.232488,3.021791,-7.813756
1790548410.3365,0.005466,-0.010292,-0.086630,0.009475,-0.006672,-0.086630,0.742065,0.902438,-0.518693,-1.615768,3.467951,-8.318301
1790548410.3504,-0.006614,-0.018106,-0.099405,-0.001787,-0.014676,-0.099405,0.773633,0.991070,-0.562402,-0.580912,4.694891,-8.395923
1790548410.3642,0.000580,-0.019541,-0.106694,-0.000130,-0.018081,-0.106694,0.177489,-0.326274,-0.494410,-2.880591,3.393591,-12.354665
1790548410.3782,0.001136,-0.014742,-0.117809,0.000756,-0.015744,-0.117809,-0.262031,0.012472,-0.865938,1.565455,4.508991,-14.683336
1790548410.3921,0.001045,-0.011493,-0.128726,0.000959,-0.012768,-0.128726,-0.305740,0.084106,-1.006778,1.220503,0.605091,-11.927742
1790548410.4060,-0.005115,-0.007949,-0.134416,-0.003293,-0.009395,-0.134416,-0.395586,0.420423,-0.936358,1.642111,-0.398769,-5.912007
1790548410.4200,-0.012433,-0.004057,-0.136552,-0.009691,-0.005658,-0.136552,-0.464792,0.464133,-0.670461,1.718767,-0.919289,-5.834385
1790548410.4339,-0.015519,0.000709,-0.140060,-0.013771,-0.001201,-0.140060,-0.486647,0.319650,-0.700814,0.300631,-0.733389,-9.327392
1790548410.4479,-0.012960,-0.000488,-0.144248,-0.013203,-0.000702,-0.144248,-0.077481,0.001544,-0.879293,-0.849208,-1.402628,-12.315854
1790548410.4614,-0.014774,-0.005424,-0.155458,-0.014303,-0.004007,-0.155458,0.223626,0.188522,-0.858653,1.373815,-0.770569,-10.142427
1790548410.4752,-0.003904,-0.009146,-0.160328,-0.007024,-0.007604,-0.160328,0.213913,-0.729369,-0.585471,0.223975,0.493551,-7.969000
1790548410.4896,0.010233,-0.014552,-0.159933,0.005056,-0.012467,-0.159933,0.317115,-0.935773,-0.349927,-0.274288,0.419191,-8.201867
1790548410.5038,0.018301,-0.021289,-0.164659,0.014328,-0.018643,-0.164659,0.483453,-0.597028,-0.158093,0.415615,1.460231,-9.405014
1790548410.5178,0.018079,-0.023099,-0.176038,0.016953,-0.021762,-0.176038,0.211485,-0.085874,0.045883,1.335487,2.835891,-10.608161
1790548410.5318,0.009025,-0.012386,-0.179095,0.011403,-0.015199,-0.179095,-0.737974,0.618329,0.067738,0.223975,2.984611,-16.041728
1790548410.5459,0.005751,-0.000234,-0.166363,0.007447,-0.004723,-0.166363,-0.934665,0.356074,0.186724,-2.458983,0.382011,-9.327392
1790548410.5599,0.008005,0.006509,-0.153126,0.007838,0.003139,-0.153126,-0.595920,0.020971,0.118732,-2.305671,-0.212869,-6.338930
1790548410.5738,-0.004679,0.012804,-0.159625,-0.000924,0.009905,-0.159625,-0.472077,0.776167,0.226790,0.568927,0.456371,-3.466902
1790548410.5878,0.002624,0.003924,-0.144685,0.001560,0.005719,-0.144685,0.516234,-0.571531,0.518184,-1.692424,-0.844929,-19.961658
1790548410.6018,0.003978,-0.001948,-0.134719,0.003253,0.000352,-0.134719,0.447028,-0.286207,0.930993,0.645583,2.612811,-14.877392
1790548410.6158,-0.010265,-0.000091,-0.141510,-0.006210,0.000042,-0.141510,0.026935,0.652325,1.354728,2.293686,3.542311,-8.395923
1790548410.6297,-0.013175,-0.004750,-0.122900,-0.011086,-0.003312,-0.122900,0.320758,-0.064019,1.479785,0.492271,0.902531,-7.037532
1790548410.6437,-0.018894,-0.005217,-0.127344,-0.016552,-0.004645,-0.127344,0.272192,0.118102,1.213888,1.220503,3.616671,-5.795574
1790548410.6576,-0.022272,-0.006369,-0.115480,-0.020556,-0.005852,-0.115480,0.067002,0.051324,0.952847,0.913879,1.497411,-10.646972
1790548410.6716,-0.022399,-0.009395,-0.100478,-0.021846,-0.008332,-0.100478,0.182345,-0.087088,0.837504,-0.465928,1.311511,-11.888930
1790548410.6855,-0.016262,-0.011818,-0.085432,-0.017937,-0.010772,-0.085432,0.136208,-0.507181,0.706376,-0.849208,1.311511,-13.286133
1790548410.6993,-0.007173,-0.003287,-0.077562,-0.010402,-0.005533,-0.077562,-0.525500,-0.708729,0.627457,-1.040848,3.356411,-10.452916
1790548410.7129,0.005503,0.000957,-0.066616,0.000731,-0.000990,-0.066616,-0.331237,-1.020763,0.525469,-0.197632,1.088431,-9.327392
1790548410.7270,0.012726,0.003694,-0.064296,0.009127,0.002288,-0.064296,-0.183111,-0.688088,0.340920,1.373815,1.423051,-8.589979
1790548410.7415,0.018723,0.003676,-0.061552,0.015844,0.003259,-0.061552,0.000224,-0.558175,0.272928,1.105519,1.199971,-8.395923
1790548410.7554,0.010586,-0.003616,-0.061485,0.012164,-0.001553,-0.061485,0.454313,0.513912,-0.068246,1.603783,0.642271,-12.975644
1790548410.7694,0.007105,-0.016808,-0.063226,0.008623,-0.012232,-0.063226,0.939970,0.411924,-0.425204,-1.922392,1.683311,-10.841028
1790548410.7832,0.002202,-0.022271,-0.074524,0.004129,-0.019259,-0.074524,0.570871,0.475060,-0.302576,-1.270816,3.914111,-8.395923
1790548410.7973,-0.008967,-0.031194,-0.085295,-0.005038,-0.027614,-0.085295,0.746921,0.881797,-0.324430,-0.580912,2.835891,-8.628791
1790548410.8114,-0.012893,-0.037956,-0.097605,-0.010536,-0.034853,-0.097605,0.705641,0.460490,-0.609754,-1.385800,3.914111,-7.037532
1790548410.8266,-0.006660,-0.035848,-0.108913,-0.007823,-0.035550,-0.108913,-0.071410,-0.393052,-0.663176,1.718767,3.839751,-15.343126
1790548410.8411,-0.005563,-0.028097,-0.125193,-0.006241,-0.030333,-0.125193,-0.513358,0.011258,-1.097839,1.297159,2.835891,-15.498371
1790548410.8557,-0.014673,-0.018669,-0.131513,-0.012143,-0.022168,-0.131513,-0.691837,0.608615,-1.016491,2.140375,0.530731,-7.464455
1790548410.8703,-0.016184,-0.009699,-0.137538,-0.014972,-0.013439,-0.137538,-0.682124,0.256514,-0.765164,-0.580912,0.307651,-9.249770
1790548410.8852,-0.026851,-0.005034,-0.133478,-0.023288,-0.007556,-0.133478,-0.449009,0.660824,-0.648606,2.102047,-0.696209,-6.843476
1790548410.8991,-0.030130,-0.001822,-0.135737,-0.028077,-0.003542,-0.135737,-0.334879,0.426494,-0.828299,-0.810880,-0.324409,-11.733686
1790548410.9126,-0.029383,-0.002020,-0.140097,-0.028991,-0.002476,-0.140097,-0.095693,0.069536,-0.926645,0.645583,-0.473129,-11.772497
1790548410.9263,-0.028612,-0.003287,-0.147005,-0.028726,-0.003044,-0.147005,-0.017988,-0.030023,-0.816158,1.795423,-0.435949,-9.715504
1790548410.9400,-0.014355,-0.006324,-0.146650,-0.018667,-0.005340,-0.146650,0.125281,-0.889636,-0.773663,-0.580912,-0.064149,-8.861658
1790548410.9540,0.000246,-0.010752,-0.149179,-0.005428,-0.009128,-0.149179,0.267335,-0.944272,-0.631608,-0.312616,0.605091,-8.240679
1790548410.9679,0.011626,-0.013777,-0.156143,0.006510,-0.012382,-0.156143,0.235768,-0.759723,-0.454344,-0.159304,1.571771,-8.395923
1790548410.9823,0.006124,-0.009718,-0.169200,0.006240,-0.010517,-0.169200,-0.269316,0.330577,-0.290434,2.370342,2.835891,-15.692427
1790548410.9968,-0.002437,0.008521,-0.172518,0.000166,0.002810,-0.172518,-1.249128,0.651110,-0.159307,-0.887536,2.724351,-14.799770
1790548411.0108,-0.004523,0.021329,-0.168699,-0.003116,0.015773,-0.168699,-0.945593,0.342718,-0.070675,-2.535639,1.125611,-8.201867
1790548411.0248,-0.008597,0.029081,-0.167396,-0.006953,0.025089,-0.167396,-0.584992,0.482345,-0.184804,-1.347472,0.716631,-5.213406
1790548411.0387,-0.000804,0.032622,-0.164442,-0.002648,0.030362,-0.164442,-0.207394,-0.474399,0.117517,-1.500784,1.943571,-7.076343
1790548411.0528,0.003386,0.022801,-0.153517,0.001576,0.025069,-0.153517,0.629150,-0.475613,0.690592,0.683911,0.642271,-13.286133
1790548411.0666,-0.007243,0.022869,-0.146306,-0.004597,0.023529,-0.146306,0.080357,0.513912,1.165322,0.798895,3.058971,-9.870749
1790548411.0806,-0.003662,0.017398,-0.122961,-0.003942,0.019237,-0.122961,0.365681,-0.457401,1.369298,-0.925864,1.237151,-10.181238
1790548411.0945,-0.012804,0.011382,-0.119217,-0.010145,0.013739,-0.119217,0.521091,0.235874,1.516209,2.178703,2.426911,-7.736133
1790548411.1084,-0.016850,0.011605,-0.107757,-0.014838,0.012245,-0.107757,0.081572,0.126601,1.227243,-0.350944,1.906391,-5.485084
1790548411.1223,-0.019497,0.009119,-0.093002,-0.018099,0.010056,-0.093002,0.206628,0.074393,1.086403,-0.925864,2.055111,-8.900469
1790548411.1362,-0.017216,0.008969,-0.081084,-0.017481,0.009295,-0.081084,-0.003418,-0.310490,0.804722,0.223975,1.943571,-12.509909
1790548411.1501,-0.005519,0.013275,-0.068634,-0.009108,0.012081,-0.068634,-0.288742,-0.894492,0.680879,-1.577440,2.501271,-11.850119
1790548411.1637,0.007143,0.021133,-0.059104,0.002268,0.018418,-0.059104,-0.571637,-1.015907,0.490259,-0.542584,2.129471,-11.927742
1790548411.1773,0.017044,0.027578,-0.053538,0.012611,0.024830,-0.053538,-0.487861,-0.784006,0.219505,-0.197632,1.423051,-9.521448
1790548411.1913,0.020592,0.024487,-0.053254,0.018198,0.024590,-0.053254,0.147135,-0.280137,-0.099814,0.415615,0.790991,-12.354665
1790548411.2053,0.017880,0.019731,-0.062993,0.017975,0.021188,-0.062993,0.433673,0.181237,-0.187232,0.453943,3.096151,-8.628791
1790548411.2195,0.010750,0.012725,-0.074757,0.012917,0.015264,-0.074757,0.604867,0.492058,-0.223657,0.722239,3.467951,-9.055714
1790548411.2335,0.004442,0.003826,-0.087482,0.006985,0.007257,-0.087482,0.761491,0.606187,-0.427632,-1.309144,3.430771,-8.279490
1790548411.2485,-0.003685,-0.004163,-0.099610,-0.000484,-0.000737,-0.099610,0.664360,0.652325,-0.360855,-0.772552,3.356411,-7.930189
1790548411.2626,-0.013369,-0.011136,-0.109517,-0.009503,-0.008016,-0.109517,0.626721,0.885440,-0.289220,-2.267343,3.393591,-8.589979
1790548411.2770,-0.008419,-0.019698,-0.115766,-0.008744,-0.016194,-0.115766,0.721424,-0.155080,-0.250368,-3.417183,4.397451,-11.656063
1790548411.2911,-0.009179,-0.016545,-0.123361,-0.009048,-0.016440,-0.123361,-0.111477,0.131458,-0.542976,-0.044320,4.546171,-13.169700
1790548411.3051,-0.008123,-0.011407,-0.128338,-0.008401,-0.012917,-0.128338,-0.365233,-0.071304,-0.768806,1.948735,1.757671,-11.190329
1790548411.3194,-0.011598,-0.009351,-0.131501,-0.010639,-0.010421,-0.131501,-0.251103,0.250444,-0.765164,1.910407,-0.287229,-10.336483
1790548411.3335,-0.017920,-0.007113,-0.133485,-0.015736,-0.008106,-0.133485,-0.260817,0.409496,-0.682602,1.910407,-0.175689,-7.503266
1790548411.3475,-0.024508,-0.004109,-0.132364,-0.021876,-0.005308,-0.132364,-0.355520,0.398569,-0.454344,2.178703,-0.770569,-8.357112
1790548411.3616,-0.023144,-0.001845,-0.135078,-0.022763,-0.002884,-0.135078,-0.280243,0.000330,-0.590327,0.032335,-0.510309,-9.948371
1790548411.3758,-0.020725,-0.007460,-0.138290,-0.021336,-0.006087,-0.138290,0.273406,-0.123512,-0.591542,0.837223,-0.621849,-10.181238
1790548411.3896,-0.011344,-0.016967,-0.140312,-0.014342,-0.013703,-0.140312,0.608509,-0.567888,-0.525978,-0.657568,0.047391,-9.327392
1790548411.4035,0.002675,-0.028925,-0.141386,-0.002430,-0.024358,-0.141386,0.763919,-0.906634,-0.489554,-0.810880,-0.212869,-9.637881
1790548411.4179,0.014163,-0.038270,-0.150498,0.009185,-0.034097,-0.150498,0.674073,-0.838642,-0.394851,1.067191,1.571771,-9.094525
1790548411.4316,0.012277,-0.037877,-0.161620,0.011350,-0.036743,-0.161620,0.022079,0.064680,-0.281935,1.757095,2.464091,-11.462007
1790548411.4459,0.002003,-0.021680,-0.167497,0.004807,-0.026199,-0.167497,-1.103431,0.710603,-0.144737,0.568927,2.910251,-15.537182
1790548411.4600,0.003659,-0.010776,-0.163434,0.004003,-0.015403,-0.163434,-0.880029,0.056181,-0.120454,-2.880591,-0.250049,-10.220049
1790548411.4742,0.005830,-0.006027,-0.158289,0.005282,-0.008840,-0.158289,-0.466007,0.000330,-0.020895,-1.769080,-0.473129,-6.416553
1790548411.4887,-0.000236,-0.001121,-0.154968,0.001419,-0.003437,-0.154968,-0.408942,0.502985,0.045883,-1.270816,0.307651,-8.085434
1790548411.5030,-0.008281,0.013379,-0.149284,-0.005371,0.008334,-0.149284,-1.103431,0.689963,0.287497,-2.842263,0.010211,-9.482637
1790548411.5172,0.007072,0.006483,-0.138166,0.003340,0.007038,-0.138166,0.352325,-1.057188,0.532754,-4.183743,-1.365448,-17.012007
1790548411.5312,0.005492,0.008416,-0.133174,0.004847,0.008003,-0.133174,0.019650,-0.108943,0.928564,0.760567,3.282051,-7.736133
1790548411.5452,-0.007893,0.008694,-0.135211,-0.004071,0.008486,-0.135211,0.111925,0.516341,1.366870,3.175230,3.021791,-7.813756
1790548411.5592,-0.013227,0.008462,-0.123798,-0.010480,0.008469,-0.123798,0.195701,0.290510,1.052407,-1.232488,4.174371,-8.240679
1790548411.5732,-0.022132,0.004193,-0.115587,-0.018637,0.005476,-0.115587,0.335327,0.375500,0.907924,2.102047,2.241011,-9.987182
1790548411.5871,-0.017062,-0.001485,-0.101870,-0.017534,0.000603,-0.101870,0.409390,-0.429476,0.842360,-1.500784,2.092291,-12.277042
1790548411.6010,-0.013033,-0.000070,-0.090060,-0.014383,0.000132,-0.090060,-0.106620,-0.369983,0.744015,-0.887536,2.055111,-13.053266
1790548411.6146,-0.004943,0.006704,-0.080296,-0.007775,0.004732,-0.080296,-0.464792,-0.697801,0.633528,-0.197632,2.464091,-11.384385
1790548411.6283,0.004965,0.012836,-0.072202,0.001143,0.010405,-0.072202,-0.406514,-0.881137,0.548538,0.530599,1.832031,-7.930189
1790548411.6422,0.016297,0.019137,-0.067103,0.011751,0.016517,-0.067103,-0.364019,-0.957628,0.367631,0.607255,2.278191,-7.270399
1790548411.6562,0.027781,0.024048,-0.062353,0.022972,0.021789,-0.062353,-0.309382,-0.832571,0.219505,-0.964192,2.092291,-8.900469
1790548411.6701,0.018145,0.011508,-0.062352,0.019593,0.014592,-0.062352,0.784560,0.589189,-0.028180,2.753622,-0.287229,-16.429840
1790548411.6840,0.013182,-0.001527,-0.067395,0.015105,0.003308,-0.067395,0.933899,0.444706,-0.307432,-1.040848,2.278191,-13.169700
1790548411.6979,0.010247,-0.006065,-0.076098,0.011704,-0.003253,-0.076098,0.476168,0.301437,-0.313503,-0.810880,3.876931,-8.822846
1790548411.7119,0.003164,-0.015385,-0.083490,0.005726,-0.011746,-0.083490,0.728709,0.612258,-0.326859,-0.849208,2.166651,-8.046623
1790548411.7259,-0.005549,-0.024554,-0.093848,-0.002166,-0.020711,-0.093848,0.793059,0.844159,-0.437346,-1.845736,2.575631,-6.455364
1790548411.7399,-0.007782,-0.034996,-0.103092,-0.006097,-0.030710,-0.103092,0.881691,0.343932,-0.500481,-2.535639,4.397451,-11.966553
1790548411.7541,0.002034,-0.031548,-0.112290,-0.000405,-0.031297,-0.112290,-0.184326,-0.580030,-0.710527,-0.925864,3.765391,-15.770049
1790548411.7680,0.006445,-0.023053,-0.124439,0.004390,-0.025526,-0.124439,-0.558281,-0.215787,-1.071128,0.568927,3.282051,-12.936833
1790548411.7820,-0.003066,-0.017972,-0.127808,-0.000830,-0.020238,-0.127808,-0.406514,0.592832,-0.959427,3.443526,0.828171,-8.939280
1790548411.7960,-0.007003,-0.012167,-0.136671,-0.005151,-0.014588,-0.136671,-0.517001,0.358502,-0.773663,0.530599,-0.101329,-9.094525
1790548411.8100,-0.010872,-0.007543,-0.144006,-0.009156,-0.009657,-0.144006,-0.487861,0.337862,-0.703243,0.798895,-1.068009,-10.103616
1790548411.8239,-0.011186,-0.004987,-0.155465,-0.010577,-0.006388,-0.155465,-0.287528,0.187308,-0.876865,-0.504256,-0.175689,-10.685784
1790548411.8379,-0.010925,-0.006584,-0.168177,-0.010821,-0.006525,-0.168177,-0.015560,0.130243,-0.998279,0.108991,-0.733389,-11.888930
1790548411.8515,-0.006269,-0.010121,-0.178893,-0.007634,-0.009042,-0.178893,0.133780,-0.286207,-0.890221,0.990535,-0.435949,-8.512357
1790548411.8650,0.007751,-0.013683,-0.185004,0.003136,-0.012291,-0.185004,0.159277,-0.910276,-0.734810,-0.427600,-0.064149,-6.998721
1790548411.8790,0.018805,-0.020212,-0.190878,0.014104,-0.017836,-0.190878,0.399677,-0.733012,-0.574544,-0.044320,0.419191,-9.094525
1790548411.8928,0.025137,-0.023517,-0.196980,0.021827,-0.021813,-0.196980,0.217555,-0.464686,-0.396065,0.645583,1.311511,-10.879840
1790548411.9067,0.014765,-0.012702,-0.203654,0.016883,-0.015435,-0.203654,-0.768328,0.720317,-0.201802,1.182175,2.761531,-15.110259
1790548411.9207,0.009422,0.003683,-0.203011,0.011661,-0.002052,-0.203011,-1.205419,0.471417,-0.060961,-2.075704,1.497411,-14.062357
1790548411.9347,0.008509,0.013575,-0.201724,0.009455,0.008887,-0.201724,-0.734332,0.305080,-0.057319,-2.842263,0.865351,-6.649420
1790548411.9486,0.004074,0.019470,-0.200619,0.005688,0.016295,-0.200619,-0.449009,0.363359,0.053168,-0.580912,0.828171,-6.028441
1790548411.9625,0.002877,0.022677,-0.195377,0.003721,0.020762,-0.195377,-0.141831,0.044039,0.395556,-0.542584,2.873071,-8.667602
1790548411.9764,0.006888,0.017794,-0.183791,0.005938,0.018684,-0.183791,0.382679,-0.391838,0.728231,-0.887536,2.649991,-12.393476
1790548411.9906,0.004641,0.019411,-0.166585,0.005030,0.019193,-0.166585,-0.025273,-0.111371,1.296449,0.492271,2.798711,-9.405014
1790548412.0049,0.004382,0.012909,-0.144922,0.004577,0.014794,-0.144922,0.419103,-0.298349,1.563561,0.492271,0.679451,-10.025993
1790548412.0188,-0.012087,0.011508,-0.156854,-0.007088,0.012494,-0.156854,0.493166,0.672965,1.382653,2.255358,3.393591,-2.419000
1790548412.0330,-0.015662,0.009395,-0.143617,-0.013090,0.010325,-0.143617,0.219984,0.090177,1.102187,-0.197632,1.832031,-6.144874
1790548412.0469,-0.012858,0.006099,-0.129604,-0.012928,0.007366,-0.129604,0.268549,-0.379696,1.001413,0.147319,2.352551,-10.375294
1790548412.0609,-0.004774,0.007074,-0.117096,-0.007220,0.007162,-0.117096,-0.071410,-0.661377,0.865429,-1.500784,1.980751,-12.315854
1790548412.0744,0.005997,0.012919,-0.105189,0.002032,0.011192,-0.105189,-0.449009,-0.904206,0.736730,-0.887536,1.720491,-13.208511
1790548412.0881,0.014618,0.019646,-0.095962,0.010842,0.017110,-0.095962,-0.480576,-0.769436,0.484188,0.453943,1.980751,-11.073895
1790548412.1020,0.021464,0.021879,-0.089643,0.018277,0.020448,-0.089643,-0.151544,-0.628595,0.155156,1.335487,1.794851,-9.754315
1790548412.1159,0.019817,0.018673,-0.087490,0.019355,0.019205,-0.087490,0.247909,-0.009383,-0.093743,2.063719,2.055111,-9.599070
1790548412.1298,0.017585,0.010707,-0.093800,0.018116,0.013257,-0.093800,0.608509,0.216448,-0.283149,-0.389272,2.649991,-10.530539
1790548412.1438,0.008118,0.003596,-0.104390,0.011117,0.006495,-0.104390,0.631578,0.730030,-0.357212,0.070663,3.765391,-9.249770
1790548412.1578,0.002575,-0.005576,-0.119384,0.005137,-0.001955,-0.119384,0.762705,0.574619,-0.564830,-1.347472,3.096151,-8.589979
1790548412.1718,-0.005396,-0.012917,-0.133305,-0.002236,-0.009629,-0.133305,0.731138,0.730030,-0.585471,-0.887536,3.728211,-6.610609
1790548412.1858,-0.011608,-0.018908,-0.147787,-0.008796,-0.016124,-0.147787,0.647362,0.641397,-0.694744,-1.577440,5.141051,-9.016902
1790548412.1997,-0.005675,-0.024956,-0.162053,-0.006611,-0.022306,-0.162053,0.467669,-0.247355,-0.541762,-2.075704,2.203831,-11.384385
1790548412.2138,-0.002934,-0.020697,-0.164275,-0.004037,-0.021180,-0.164275,-0.231677,-0.170864,-0.842869,1.910407,3.839751,-13.907112
1790548412.2278,-0.002875,-0.015527,-0.162287,-0.003223,-0.017223,-0.162287,-0.435653,-0.006955,-0.923002,2.255358,0.567911,-11.112707
1790548412.2419,-0.006268,-0.014008,-0.157643,-0.005355,-0.014972,-0.157643,-0.220750,0.214019,-0.923002,2.408670,-0.287229,-9.249770
1790548412.2566,-0.011210,-0.012849,-0.153284,-0.009453,-0.013486,-0.153284,-0.230463,0.302652,-0.692315,1.948735,-0.919289,-8.124245
1790548412.2705,-0.014285,-0.012569,-0.151933,-0.012835,-0.012844,-0.151933,-0.139402,0.204306,-0.536905,1.450471,-0.435949,-9.016902
1790548412.2845,-0.012654,-0.015883,-0.156081,-0.012709,-0.014972,-0.156081,0.107069,-0.022738,-0.646178,-0.005993,-0.844929,-11.772497
1790548412.2986,-0.009786,-0.021990,-0.159696,-0.010663,-0.019884,-0.159696,0.354753,-0.161151,-0.613396,0.683911,0.084571,-10.336483
1790548412.3122,0.001820,-0.030936,-0.162528,-0.001925,-0.027621,-0.162528,0.569657,-0.768222,-0.508980,-0.389272,-0.026969,-8.318301
1790548412.3259,0.015371,-0.042336,-0.163532,0.010183,-0.037922,-0.163532,0.748136,-0.941844,-0.398493,-0.389272,-0.138509,-8.512357
1790548412.3397,0.024245,-0.053142,-0.168162,0.020026,-0.048576,-0.168162,0.820984,-0.623739,-0.205444,-0.427600,2.389731,-13.247322
1790548412.3536,0.016181,-0.043385,-0.172721,0.017334,-0.044942,-0.172721,-0.677267,0.603759,-0.116812,-0.619240,2.873071,-16.934385
1790548412.3675,0.012612,-0.027275,-0.176688,0.014028,-0.032575,-0.176688,-1.171423,0.356074,0.011887,-2.497311,1.385871,-13.130889
1790548412.3814,0.018270,-0.019423,-0.199688,0.016998,-0.023369,-0.199688,-0.620203,-0.098015,-0.006325,-3.570495,0.158931,-5.717951
1790548412.3953,0.010996,-0.016498,-0.201055,0.012797,-0.018559,-0.201055,-0.330023,0.612258,0.064095,-1.232488,-0.398769,-7.115154
1790548412.4092,-0.000717,-0.008829,-0.202118,0.003337,-0.011748,-0.202118,-0.621417,0.897581,0.083521,-1.040848,0.270471,-9.055714
1790548412.4232,-0.009085,0.012005,-0.205040,-0.005358,0.004879,-0.205040,-1.444605,0.795593,0.181867,-2.995575,1.906391,-7.503266
1790548412.4372,0.005003,0.011358,-0.199221,0.001894,0.009414,-0.199221,-0.140616,-1.046260,0.599532,-3.072231,-3.075728,-19.340679
1790548412.4512,0.012373,0.005632,-0.186477,0.009229,0.006766,-0.186477,0.355968,-0.728155,0.938277,0.530599,0.642271,-15.071448
1790548412.4651,-0.003128,0.011114,-0.168455,0.000579,0.009810,-0.168455,-0.212251,0.876941,1.297664,0.377287,3.133331,-6.610609
1790548412.4790,-0.003093,0.014983,-0.148610,-0.001991,0.013431,-0.148610,0.001438,-0.295920,1.202960,0.645583,2.873071,-3.893825
1790548412.4931,-0.011519,0.010372,-0.133238,-0.008661,0.011290,-0.133238,0.405747,0.282011,0.933421,2.178703,2.278191,-7.464455
1790548412.5076,-0.014371,0.003319,-0.121112,-0.012658,0.005710,-0.121112,0.464026,0.064680,0.870286,-0.235960,1.757671,-13.596623
1790548412.5216,-0.007614,0.004794,-0.110926,-0.009127,0.005069,-0.110926,-0.054412,-0.558175,0.804722,-1.424128,3.244871,-12.781588
1790548412.5354,0.001329,0.010050,-0.099732,-0.001808,0.008556,-0.099732,-0.342164,-0.768222,0.724588,-0.389272,2.724351,-12.082986
1790548412.5491,0.014968,0.017938,-0.086347,0.009935,0.015123,-0.086347,-0.461150,-1.200456,0.643241,0.798895,2.724351,-7.774944
1790548412.5632,0.026158,0.022480,-0.073103,0.021292,0.020273,-0.073103,-0.322738,-0.997695,0.520613,1.028863,1.237151,-8.551168
1790548412.5771,0.029801,0.022870,-0.061141,0.027248,0.022091,-0.061141,-0.062911,-0.488969,0.431980,1.757095,0.790991,-8.861658
1790548412.5911,0.022773,0.014654,-0.057849,0.024116,0.016885,-0.057849,0.539303,0.436207,0.129659,0.798895,1.423051,-15.886483
1790548412.6052,0.015905,0.000681,-0.063840,0.018368,0.005542,-0.063840,1.031031,0.577048,-0.058533,-1.577440,2.464091,-10.569350
1790548412.6192,0.008458,-0.008277,-0.081227,0.011431,-0.004131,-0.081227,0.803986,0.717888,-0.275865,-2.229015,3.951291,-8.163056
1790548412.6332,0.000543,-0.017815,-0.092379,0.003810,-0.013710,-0.092379,0.873192,0.683892,-0.212729,-1.079176,3.430771,-6.571797
1790548412.6473,-0.006842,-0.022235,-0.111102,-0.003646,-0.019678,-0.111102,0.542946,0.791951,-0.427632,-2.382327,3.616671,-5.717951
1790548412.6613,-0.009516,-0.032911,-0.113233,-0.007755,-0.028941,-0.113233,0.794273,0.203092,-0.427632,1.028863,2.612811,-14.372847
1790548412.6752,-0.003665,-0.026115,-0.116871,-0.004892,-0.026963,-0.116871,-0.379802,-0.388195,-0.970354,2.217030,5.512851,-16.352217
1790548412.6890,-0.008912,-0.018241,-0.121037,-0.007706,-0.020858,-0.121037,-0.543712,0.399783,-1.125764,3.405198,3.096151,-15.614805
1790548412.7029,-0.010409,-0.011699,-0.148227,-0.009598,-0.014447,-0.148227,-0.450223,0.388856,-1.220467,-1.002520,1.125611,-6.067252
1790548412.7167,-0.020122,-0.006865,-0.148929,-0.016965,-0.009140,-0.148929,-0.466007,0.694820,-1.080841,2.178703,-0.361589,-7.270399
1790548412.7307,-0.029959,-0.000380,-0.148145,-0.026061,-0.003008,-0.148145,-0.563138,0.629256,-0.914503,3.213558,-0.250049,-7.813756
1790548412.7447,-0.030552,0.005581,-0.163236,-0.029204,0.003004,-0.163236,-0.535213,0.229803,-1.117265,0.147319,-0.659029,-12.238231
1790548412.7588,-0.031611,0.006181,-0.176484,-0.030889,0.005228,-0.176484,-0.143045,0.217662,-1.205897,1.373815,-0.510309,-11.694875
1790548412.7725,-0.025652,0.003018,-0.189587,-0.027223,0.003681,-0.189587,0.141064,-0.263139,-1.158546,0.338959,-0.138509,-9.715504
1790548412.7862,-0.010066,-0.002668,-0.202920,-0.015213,-0.000763,-0.202920,0.332899,-0.933345,-1.000707,-0.772552,0.084571,-7.774944
1790548412.8001,0.002693,-0.007360,-0.209020,-0.002679,-0.005381,-0.209020,0.330471,-0.893278,-0.706885,0.913879,1.237151,-8.201867
1790548412.8141,0.010394,-0.010151,-0.214973,0.006473,-0.008720,-0.214973,0.207842,-0.532678,-0.575758,0.760567,1.683311,-9.366203
1790548412.8280,0.001465,-0.001366,-0.219121,0.002967,-0.003572,-0.219121,-0.640843,0.625613,-0.328073,1.910407,2.724351,-17.206063
1790548412.8419,-0.002165,0.014063,-0.224785,-0.000625,0.008773,-0.224785,-1.141070,0.369429,-0.118026,-2.114032,1.646131,-14.023546
1790548412.8559,-0.004707,0.024627,-0.231890,-0.003482,0.019871,-0.231890,-0.796253,0.319650,-0.025751,-1.884064,0.976891,-8.434735
1790548412.8698,-0.002833,0.024787,-0.228107,-0.003028,0.023312,-0.228107,-0.089623,-0.157508,0.236503,-0.619240,0.679451,-13.324944
1790548412.8837,0.003540,0.018022,-0.220639,0.001570,0.019609,-0.220639,0.563586,-0.663805,0.516970,1.412143,2.649991,-8.939280
1790548412.8978,-0.007069,0.015218,-0.211707,-0.004477,0.016535,-0.211707,0.338970,0.393712,1.121613,2.983590,3.951291,-9.405014
1790548412.9132,-0.005641,0.010938,-0.189343,-0.005292,0.012617,-0.189343,0.277048,-0.326274,1.439718,-0.427600,1.720491,-10.996273
1790548412.9277,-0.008871,0.008045,-0.171919,-0.007797,0.009417,-0.171919,0.297689,-0.047021,1.514995,0.185647,2.278191,-6.804665
1790548412.9422,-0.003948,0.014050,-0.179635,-0.005102,0.012660,-0.179635,-0.289956,-0.267995,1.119185,-2.803935,2.203831,-5.174595
1790548412.9568,-0.006590,0.013600,-0.163751,-0.006144,0.013318,-0.163751,0.008723,-0.005740,1.008698,0.147319,1.199971,-9.637881
1790548412.9722,0.000016,0.011355,-0.149353,-0.001832,0.011944,-0.149353,0.077929,-0.561818,0.722160,-0.159304,0.419191,-12.005364
1790548412.9860,0.010144,0.016360,-0.140790,0.006551,0.015035,-0.140790,-0.299669,-0.814359,0.707590,-1.232488,2.984611,-11.500819
1790548412.9997,0.021684,0.024829,-0.132211,0.017144,0.021891,-0.132211,-0.625059,-0.926060,0.538825,-1.079176,1.869211,-12.587532
1790548413.0137,0.031806,0.031730,-0.124510,0.027407,0.028778,-0.124510,-0.487861,-0.825286,0.248645,0.300631,1.757671,-10.181238
1790548413.0284,0.038898,0.032411,-0.125423,0.035451,0.031321,-0.125423,-0.062911,-0.454973,-0.145951,-0.619240,1.571771,-9.288581
1790548413.0425,0.038588,0.028082,-0.130137,0.037647,0.029054,-0.130137,0.328042,0.061037,-0.360855,-0.005993,2.278191,-8.745224
1790548413.0565,0.031692,0.021439,-0.138020,0.033478,0.023724,-0.138020,0.558729,0.558836,-0.348713,-0.312616,3.430771,-9.249770
1790548413.0706,0.023831,0.013538,-0.152392,0.026725,0.016594,-0.152392,0.660717,0.734886,-0.515051,-1.270816,3.058971,-7.736133
1790548413.0846,0.013036,0.003374,-0.165780,0.017143,0.007340,-0.165780,0.846481,0.942505,-0.388780,-1.692424,3.653851,-8.822846
1790548413.0984,0.002569,-0.003655,-0.178652,0.006941,-0.000357,-0.178652,0.643719,0.940076,-0.379067,-1.807408,3.579491,-8.434735
1790548413.1124,-0.001786,-0.011523,-0.191333,0.000832,-0.008173,-0.191333,0.731138,0.551551,-0.382709,-2.880591,4.100011,-8.434735
1790548413.1264,-0.000930,-0.013028,-0.191770,-0.000401,-0.011572,-0.191770,0.253980,0.005187,-0.363283,-0.427600,4.360271,-10.452916
1790548413.1403,0.002345,-0.009998,-0.191275,0.001521,-0.010470,-0.191275,-0.157614,-0.208502,-0.751808,1.565455,3.728211,-13.907112
1790548413.1542,-0.000788,-0.006893,-0.186362,-0.000095,-0.007966,-0.186362,-0.306954,0.199450,-0.930287,3.328542,0.456371,-13.092077
1790548413.1682,-0.006372,-0.003641,-0.179561,-0.004489,-0.004938,-0.179561,-0.282671,0.326934,-0.892649,2.408670,0.605091,-6.959909
1790548413.1821,-0.015455,-0.002283,-0.174225,-0.012165,-0.003079,-0.174225,-0.259602,0.535767,-0.608540,2.676966,-0.882109,-7.153965
1790548413.1960,-0.023384,0.000879,-0.178107,-0.020019,-0.000309,-0.178107,-0.310596,0.608615,-0.609754,0.952207,0.121751,-8.434735
1790548413.2103,-0.023268,0.002558,-0.191679,-0.022293,0.001698,-0.191679,-0.178255,0.163025,-0.807659,-0.657568,0.530731,-12.354665
1790548413.2241,-0.023028,0.000870,-0.195831,-0.022808,0.001118,-0.195831,0.067002,0.022185,-0.654677,1.182175,0.605091,-10.181238
1790548413.2377,-0.013095,-0.002159,-0.204752,-0.016009,-0.001176,-0.204752,0.137422,-0.593385,-0.472556,-0.964192,0.121751,-8.900469
1790548413.2517,-0.004221,-0.008378,-0.205877,-0.007758,-0.006217,-0.205877,0.340184,-0.605527,-0.255224,-0.005993,-0.175689,-8.706413
1790548413.2657,0.004855,-0.011905,-0.209136,0.001071,-0.010199,-0.209136,0.279477,-0.606741,-0.160521,-0.504256,1.683311,-8.628791
1790548413.2801,0.010430,-0.012450,-0.208886,0.007622,-0.011774,-0.208886,0.056075,-0.411264,-0.110741,0.415615,1.980751,-10.918651
1790548413.2940,0.006333,-0.008563,-0.208379,0.006720,-0.009527,-0.208379,-0.280243,0.272298,-0.007539,0.338959,2.203831,-14.644525
1790548413.3079,-0.000283,0.003942,-0.210190,0.001817,-0.000099,-0.210190,-0.916453,0.512698,0.146657,-1.117504,1.497411,-11.267951
1790548413.3219,-0.005384,0.012787,-0.216331,-0.003223,0.008921,-0.216331,-0.701550,0.461704,0.238932,-1.999048,0.493551,-9.055714
1790548413.3357,-0.002838,0.012574,-0.215287,-0.002954,0.011478,-0.215287,-0.119976,-0.179363,0.336063,-1.232488,-0.621849,-10.802217
1790548413.3497,-0.001486,0.007301,-0.204831,-0.001927,0.008554,-0.204831,0.360824,-0.227928,0.674809,0.147319,1.423051,-11.035084
1790548413.3635,-0.007439,0.005568,-0.190298,-0.005785,0.006464,-0.190298,0.177489,0.197021,1.063334,0.952207,2.278191,-9.443825
1790548413.3775,-0.015472,0.000341,-0.170077,-0.012566,0.002178,-0.170077,0.389964,0.285654,1.426363,0.837223,1.423051,-7.619700
1790548413.3915,-0.015031,-0.001764,-0.162864,-0.014292,-0.000581,-0.162864,0.273406,-0.113799,1.468858,-2.343999,3.542311,-8.900469
1790548413.4055,-0.015805,0.000837,-0.189291,-0.015351,0.000412,-0.189291,-0.079909,0.335433,1.233314,-2.650623,1.051251,-2.069699
1790548413.4195,-0.017506,-0.003315,-0.178894,-0.016859,-0.002197,-0.178894,0.233339,0.016114,0.984415,-0.925864,0.753811,-12.277042
1790548413.4335,-0.010825,-0.006576,-0.165898,-0.012636,-0.005263,-0.165898,0.264907,-0.566674,0.927350,-1.232488,2.687171,-12.471098
1790548413.4475,-0.001515,0.001012,-0.153230,-0.004851,-0.000871,-0.153230,-0.493932,-0.751224,0.846003,-1.270816,2.910251,-12.277042
1790548413.4613,0.013455,0.008947,-0.138702,0.007963,0.006001,-0.138702,-0.523071,-1.240523,0.643241,0.185647,2.241011,-9.482637
1790548413.4749,0.022819,0.014179,-0.123168,0.018362,0.011725,-0.123168,-0.373732,-0.890850,0.434409,1.488799,1.497411,-9.443825
1790548413.4889,0.025241,0.015632,-0.110300,0.023178,0.014460,-0.110300,-0.111477,-0.359056,0.245002,1.565455,1.162791,-8.124245
1790548413.5031,0.024230,0.012802,-0.101546,0.023914,0.013299,-0.101546,0.182345,-0.076161,0.010673,2.523654,1.720491,-12.082986
1790548413.5175,0.018166,0.002742,-0.114921,0.019890,0.005909,-0.114921,0.649790,0.607401,-0.510194,-2.152360,1.274331,-11.345574
1790548413.5316,0.010887,-0.003249,-0.123940,0.013588,-0.000501,-0.123940,0.595154,0.680250,-0.456772,-1.500784,4.248731,-8.357112
1790548413.5456,0.002909,-0.010570,-0.133887,0.006113,-0.007550,-0.133887,0.607295,0.720317,-0.369354,-1.270816,2.426911,-7.658511
1790548413.5597,-0.005261,-0.016370,-0.145290,-0.001849,-0.013724,-0.145290,0.549016,0.782238,-0.462842,-1.539112,2.687171,-6.610609
1790548413.5736,-0.007822,-0.023471,-0.155127,-0.006030,-0.020547,-0.155127,0.620651,0.345147,-0.600041,-1.692424,4.248731,-12.665154
1790548413.5876,-0.000398,-0.019580,-0.160260,-0.002088,-0.019870,-0.160260,-0.215893,-0.447688,-0.586685,-0.389272,4.062831,-16.080539
1790548413.6015,0.000992,-0.010133,-0.162371,0.000068,-0.013054,-0.162371,-0.617774,-0.054306,-0.862295,1.450471,3.616671,-13.324944
1790548413.6155,-0.006767,-0.005191,-0.156668,-0.004717,-0.007550,-0.156668,-0.339736,0.492058,-0.902362,2.217030,1.274331,-6.649420
1790548413.6294,-0.012644,-0.000795,-0.165383,-0.010266,-0.002821,-0.165383,-0.405299,0.493272,-0.807659,0.760567,0.121751,-7.503266
1790548413.6434,-0.019922,0.003633,-0.167402,-0.017025,0.001697,-0.167402,-0.449009,0.468989,-0.657105,2.293686,-0.584669,-8.163056
1790548413.6574,-0.027513,0.006873,-0.174590,-0.024367,0.005320,-0.174590,-0.356734,0.562478,-0.725097,2.293686,-0.733389,-11.888930
1790548413.6713,-0.027226,0.006894,-0.190345,-0.026368,0.006422,-0.190345,-0.113905,0.155740,-0.867152,-0.350944,-0.473129,-10.879840
1790548413.6848,-0.021938,0.003216,-0.200609,-0.023267,0.004178,-0.200609,0.173846,-0.278922,-0.783376,0.300631,-0.101329,-9.831937
1790548413.6984,-0.011781,-0.002784,-0.209157,-0.015227,-0.000695,-0.209157,0.360824,-0.641951,-0.686245,-0.044320,0.196111,-8.822846
1790548413.7124,0.001094,-0.008000,-0.214815,-0.003802,-0.005809,-0.214815,0.348683,-0.856854,-0.575758,0.070663,1.088431,-9.482637
1790548413.7263,0.009641,-0.008840,-0.218567,0.005608,-0.007931,-0.218567,0.098570,-0.612812,-0.479840,0.837223,2.129471,-9.288581
1790548413.7402,0.008823,-0.004443,-0.224378,0.007859,-0.005489,-0.224378,-0.266887,0.105961,-0.380281,-0.005993,3.319231,-12.898021
1790548413.7540,-0.000376,0.008841,-0.230213,0.002094,0.004542,-0.230213,-0.967447,0.740957,-0.152022,-1.079176,2.055111,-12.898021
1790548413.7685,-0.002090,0.021376,-0.239941,-0.000835,0.016326,-0.239941,-0.912811,0.267442,-0.025751,-2.650623,1.014071,-10.375294
1790548413.7825,-0.005524,0.029637,-0.252535,-0.004117,0.025644,-0.252535,-0.496360,0.461704,0.027671,-2.267343,2.129471,-5.640329
1790548413.7964,-0.002598,0.025910,-0.254438,-0.003054,0.025830,-0.254438,0.143493,-0.192718,0.345776,-1.922392,-0.324409,-13.014455
1790548413.8105,-0.003895,0.020194,-0.242120,-0.003643,0.021885,-0.242120,0.404533,-0.091945,0.785296,0.760567,2.092291,-12.703965
1790548413.8245,-0.007845,0.018121,-0.224705,-0.006584,0.019250,-0.224705,0.165347,0.047682,1.187177,0.377287,2.055111,-10.414105
1790548413.8385,-0.012221,0.013976,-0.200602,-0.010530,0.015558,-0.200602,0.335327,-0.055520,1.312233,1.603783,1.571771,-6.649420
1790548413.8524,-0.019232,0.011681,-0.188398,-0.016621,0.012844,-0.188398,0.286762,0.409496,1.229672,-1.079176,2.389731,-5.912007
1790548413.8663,-0.022322,0.012803,-0.173639,-0.020612,0.012815,-0.173639,-0.095693,0.025827,0.992914,0.453943,1.348691,-8.318301
1790548413.8803,-0.022550,0.010809,-0.159019,-0.021968,0.011411,-0.159019,0.132565,-0.190290,0.808364,1.105519,1.534591,-9.133336
1790548413.8942,-0.012295,0.010133,-0.149467,-0.015197,0.010517,-0.149467,0.020864,-0.828929,0.701520,-0.772552,1.683311,-12.665154
1790548413.9081,-0.001252,0.017756,-0.143854,-0.005436,0.015584,-0.143854,-0.580136,-0.822858,0.576463,-1.884064,1.534591,-12.898021
1790548413.9216,0.012824,0.025132,-0.137809,0.007346,0.022268,-0.137809,-0.574065,-1.109396,0.359132,-0.580912,1.348691,-10.452916
1790548413.9353,0.025087,0.031423,-0.131229,0.019765,0.028676,-0.131229,-0.440510,-0.981911,0.187938,0.185647,1.757671,-8.628791
1790548413.9513,0.022669,0.029101,-0.129890,0.021798,0.028974,-0.129890,0.073073,0.065894,-0.169020,1.987063,0.642271,-10.336483
1790548413.9655,0.021202,0.020982,-0.137947,0.021380,0.023379,-0.137947,0.538089,0.233446,-0.383923,-1.347472,1.534591,-10.646972
1790548413.9797,0.011428,0.016339,-0.141406,0.014414,0.018451,-0.141406,0.427602,0.699676,-0.319574,0.645583,3.430771,-8.900469
1790548413.9937,0.005861,0.008658,-0.152218,0.008427,0.011596,-0.152218,0.620651,0.575834,-0.371782,-1.769080,2.724351,-8.512357
1790548414.0081,-0.006631,0.001401,-0.153970,-0.002114,0.004460,-0.153970,0.664360,0.875727,-0.340214,0.760567,3.467951,-7.270399
1790548414.0227,-0.008465,-0.006075,-0.167994,-0.006559,-0.002915,-0.167994,0.685000,0.329363,-0.312289,-2.229015,3.802571,-7.503266
1790548414.0369,-0.012722,-0.014453,-0.178379,-0.010873,-0.010992,-0.178379,0.748136,0.471417,-0.451915,-1.385800,3.393591,-7.658511
1790548414.0512,-0.006559,-0.023627,-0.185957,-0.007853,-0.019837,-0.185957,0.675287,-0.335987,-0.449487,-1.155832,3.393591,-17.477742
1790548414.0657,-0.000806,-0.019141,-0.187515,-0.002920,-0.019350,-0.187515,-0.279029,-0.384553,-0.868366,2.408670,3.058971,-14.955014
1790548414.0796,-0.004349,-0.015840,-0.191953,-0.003920,-0.016893,-0.191953,-0.308168,0.256514,-0.994637,2.561982,0.456371,-11.578441
1790548414.0936,-0.009907,-0.013080,-0.198322,-0.008111,-0.014224,-0.198322,-0.325166,0.396141,-0.891435,1.258831,-0.361589,-5.717951
1790548414.1075,-0.017644,-0.015740,-0.203051,-0.014784,-0.015285,-0.203051,-0.022845,0.458062,-0.613396,2.523654,-1.774428,-7.386832
1790548414.1215,-0.022254,-0.014653,-0.210342,-0.020013,-0.014843,-0.210342,-0.135760,0.356074,-0.749380,1.220503,0.307651,-8.124245
1790548414.1353,-0.018970,-0.015756,-0.227253,-0.019283,-0.015482,-0.227253,-0.041057,-0.034880,-0.948499,-1.194160,-0.844929,-11.927742
1790548414.1489,-0.019652,-0.020099,-0.237246,-0.019541,-0.018714,-0.237246,0.227269,0.099890,-0.878079,1.335487,-0.212869,-10.336483
1790548414.1632,-0.006280,-0.023798,-0.246664,-0.010259,-0.022273,-0.246664,0.187202,-0.803432,-0.659534,-0.695896,0.084571,-7.542077
1790548414.1770,0.005973,-0.029110,-0.251906,0.001104,-0.027059,-0.251906,0.345040,-0.811931,-0.462842,-0.427600,0.642271,-8.745224
1790548414.1910,0.007384,-0.033076,-0.258339,0.005500,-0.031271,-0.258339,0.336541,-0.015454,-0.331715,-0.964192,2.352551,-10.414105
1790548414.2051,-0.002054,-0.017592,-0.261341,0.000212,-0.021696,-0.261341,-1.047581,0.682678,-0.105885,0.032335,3.839751,-16.352217
1790548414.2190,-0.001250,-0.002643,-0.270827,-0.000811,-0.008359,-0.270827,-1.185993,0.124173,-0.007539,-3.072231,-0.287229,-9.715504
1790548414.2329,0.000952,0.004128,-0.278149,0.000423,0.000382,-0.278149,-0.574065,0.029470,0.004602,-2.267343,0.084571,-6.727042
1790548414.2469,-0.002193,0.010130,-0.283705,-0.001408,0.007206,-0.283705,-0.497574,0.391284,0.016744,-1.539112,0.270471,-5.252217
1790548414.2612,0.005304,0.006300,-0.284406,0.003290,0.006572,-0.284406,0.115568,-0.513252,0.316637,-2.765607,-2.071868,-20.194525
1790548414.2751,0.009387,0.000407,-0.274252,0.007558,0.002256,-0.274252,0.398463,-0.462258,0.792580,0.530599,1.460231,-16.468651
1790548414.2890,0.000163,0.001854,-0.253534,0.002382,0.001975,-0.253534,0.008723,0.316007,1.255169,2.408670,3.058971,-9.366203
1790548414.3030,-0.006608,-0.000946,-0.233178,-0.003911,-0.000070,-0.233178,0.224840,0.109603,1.388724,1.488799,1.014071,-5.640329
1790548414.3170,-0.007424,-0.005629,-0.215039,-0.006370,-0.003961,-0.215039,0.491952,0.104746,1.170179,-2.765607,2.835891,-6.183686
1790548414.3308,-0.016405,-0.005767,-0.204134,-0.013394,-0.005225,-0.204134,0.008723,0.561264,0.945562,-0.772552,1.534591,-9.987182
1790548414.3448,-0.028992,-0.010927,-0.203286,-0.024313,-0.009217,-0.203286,0.324400,0.747028,0.096877,3.980118,1.051251,-14.760958
1790548414.3587,-0.025784,-0.017930,-0.202227,-0.025343,-0.015316,-0.202227,0.500451,-0.332345,-0.073103,2.485326,1.720491,-12.509909
1790548414.3723,-0.021748,-0.011850,-0.200445,-0.022826,-0.012890,-0.200445,-0.316667,-0.276494,-0.025751,-0.274288,4.434631,-11.850119
1790548414.3859,-0.006705,0.000638,-0.200642,-0.011541,-0.003420,-0.200642,-0.903098,-1.069329,-0.158093,-0.389272,1.646131,-8.939280
1790548414.3995,0.009597,0.011340,-0.203523,0.003256,0.006912,-0.203523,-0.848461,-1.148248,-0.297719,-0.312616,0.493551,-6.882287
1790548414.4135,0.019883,0.015781,-0.209417,0.014895,0.013120,-0.209417,-0.495146,-0.740296,-0.392422,0.722239,-1.105189,-9.793126
1790548414.4274,0.019413,0.015005,-0.217770,0.018058,0.014439,-0.217770,-0.122404,0.061037,-0.464057,0.798895,-1.291089,-13.247322
1790548414.4415,0.018178,0.009915,-0.226837,0.018142,0.011272,-0.226837,0.268549,0.312365,-0.620681,-2.918919,0.567911,-13.053266
1790548414.4555,0.016189,0.005207,-0.231778,0.016775,0.007027,-0.231778,0.393606,0.430137,-0.592756,-3.187215,2.649991,-8.667602
1790548414.4695,0.009198,-0.006561,-0.236530,0.011471,-0.002485,-0.236530,0.933899,0.740957,-0.536905,-1.922392,2.315371,-6.571797
1790548414.4834,-0.000755,-0.017032,-0.237934,0.002913,-0.012668,-0.237934,1.007962,0.790737,-0.670461,0.262303,3.467951,-5.213406
1790548414.4973,-0.015212,-0.026845,-0.240567,-0.009774,-0.022592,-0.240567,0.997035,0.980143,-0.555117,1.527127,4.025651,-5.174595
1790548414.5115,-0.019041,-0.039560,-0.256338,-0.016261,-0.034469,-0.256338,1.220437,0.419209,-0.805231,-1.002520,9.082130,-11.035084
1790548414.5259,-0.009903,-0.033683,-0.270933,-0.011810,-0.033919,-0.270933,-0.338522,-0.512038,-1.406231,1.297159,4.211551,-17.477742
1790548414.5399,-0.018281,-0.028069,-0.289214,-0.016340,-0.029824,-0.289214,-0.461150,0.663252,-1.622348,4.248414,0.382011,-16.546273
1790548414.5540,-0.024700,-0.021333,-0.303707,-0.022192,-0.023880,-0.303707,-0.412584,0.577048,-1.184043,0.645583,1.794851,-7.774944
1790548414.5680,-0.035620,-0.023734,-0.323191,-0.031591,-0.023778,-0.323191,-0.104192,0.738529,-0.493196,1.718767,-2.703928,-6.998721
1790548414.5820,-0.033269,-0.024220,-0.353206,-0.032765,-0.024087,-0.353206,-0.030130,0.205520,-0.549047,-3.723807,-0.026969,-7.115154
1790548414.5958,-0.025411,-0.021966,-0.361885,-0.027618,-0.022602,-0.361885,-0.214679,-0.488969,-0.535691,-0.044320,0.456371,-11.345574
1790548414.6094,-0.020648,-0.024875,-0.367812,-0.022739,-0.024193,-0.367812,0.133780,-0.326274,-0.345071,0.607255,0.010211,-14.217602
1790548414.6231,-0.009899,-0.024862,-0.370230,-0.013751,-0.024661,-0.370230,0.071858,-0.686874,-0.342642,-0.964192,2.501271,-9.754315
1790548414.6372,0.000516,-0.024012,-0.371435,-0.003764,-0.024207,-0.371435,0.011151,-0.617668,-0.141095,-1.884064,2.426911,-9.210958
1790548414.6511,0.002101,-0.022141,-0.374347,0.000341,-0.022761,-0.374347,-0.061697,0.065894,-0.058533,-3.110559,2.649991,-9.754315
1790548414.6651,-0.005793,-0.004943,-0.373043,-0.003952,-0.010288,-0.373043,-1.126500,0.702104,0.144229,-3.033903,3.728211,-10.841028
1790548414.6789,-0.006423,0.007010,-0.384843,-0.005682,0.001821,-0.384843,-0.932237,0.267442,0.175796,-4.413711,0.567911,-10.025993
1790548414.6929,-0.010361,0.014200,-0.393105,-0.008957,0.010486,-0.393105,-0.597134,0.426494,0.226790,-2.535639,0.344831,-8.357112
1790548414.7067,-0.008869,0.023025,-0.389582,-0.008895,0.019264,-0.389582,-0.611704,0.058609,0.191580,-3.302199,2.129471,-9.210958
1790548414.7206,0.000946,0.017217,-0.389612,-0.002006,0.017831,-0.389612,0.317115,-0.828929,0.467190,0.530599,0.196111,-17.438931
1790548414.7345,-0.009492,0.018593,-0.356719,-0.007246,0.018365,-0.356719,-0.048342,0.365787,0.588605,7.544620,3.393591,-14.178791
1790548414.7484,-0.014416,0.020436,-0.327515,-0.012265,0.019815,-0.327515,0.002652,0.033112,0.604388,3.558510,3.765391,-8.900469
1790548414.7624,-0.022100,0.013130,-0.304334,-0.019149,0.015135,-0.304334,0.593939,0.040397,0.524255,6.203141,2.129471,-6.144874
1790548414.7769,-0.033555,0.007009,-0.291415,-0.029233,0.009447,-0.291415,0.422745,0.507842,0.563108,2.791950,1.348691,-7.386832
1790548414.7909,-0.032959,0.003536,-0.288857,-0.031842,0.005309,-0.288857,0.240624,-0.049450,0.501186,-1.309144,2.166651,-12.626343
1790548414.8049,-0.030806,0.000844,-0.285746,-0.031117,0.002184,-0.285746,0.104640,-0.218215,0.374916,0.262303,0.344831,-12.238231
1790548414.8189,-0.025035,0.003483,-0.282401,-0.026859,0.003093,-0.282401,-0.200109,-0.442832,0.196437,0.070663,1.534591,-10.258860
1790548414.8325,-0.011320,0.010765,-0.283544,-0.015982,0.008464,-0.283544,-0.550996,-0.960056,0.022814,-0.925864,1.274331,-8.395923
1790548414.8462,0.001440,0.021567,-0.283119,-0.003786,0.017636,-0.283119,-0.844819,-0.962484,-0.098600,0.377287,0.939711,-10.142427
1790548414.8597,0.015740,0.030991,-0.289317,0.009882,0.026984,-0.289317,-0.784112,-0.957628,-0.149594,-1.462456,0.419191,-8.784035
1790548414.8737,0.032895,0.038954,-0.296862,0.025991,0.035363,-0.296862,-0.694265,-1.117895,-0.121669,-1.999048,-0.175689,-9.172147
1790548414.8879,0.030691,0.036657,-0.310841,0.029281,0.036269,-0.310841,-0.024059,0.235874,-0.483483,-0.120976,-1.142369,-14.450469
1790548414.9020,0.034901,0.023518,-0.327015,0.033215,0.027344,-0.327015,0.784560,0.110817,-0.731168,-3.877119,-0.287229,-6.882287
1790548414.9163,0.028091,0.021585,-0.313874,0.029629,0.023313,-0.313874,0.413032,0.551551,-0.474984,-0.082648,4.917971,-5.795574
1790548414.9307,0.024865,0.013497,-0.319982,0.026294,0.016442,-0.319982,0.619436,0.413139,-0.409420,-2.037376,2.649991,-8.395923
1790548414.9448,0.016902,0.005293,-0.317045,0.019720,0.008638,-0.317045,0.915687,0.760383,-0.394851,-1.922392,5.847470,-5.717951
1790548414.9589,0.009968,-0.005290,-0.317709,0.012894,-0.001112,-0.317709,1.005534,0.645040,-0.443416,-1.385800,5.326951,-7.697322
1790548414.9727,0.005263,-0.019133,-0.322121,0.007552,-0.013727,-0.322121,1.203439,0.493272,-0.779734,-0.734224,4.323091,-7.813756
1790548414.9875,0.008303,-0.017972,-0.325443,0.008078,-0.016698,-0.325443,-0.050770,-0.221858,-1.162188,4.746677,3.653851,-16.196973
1790548415.0026,0.003139,-0.012829,-0.343836,0.004621,-0.013990,-0.343836,-0.400443,0.433779,-1.503362,3.635166,1.460231,-16.895574
1790548415.0177,0.001462,-0.006906,-0.358470,0.002410,-0.009031,-0.358470,-0.378588,0.248015,-1.345524,0.798895,1.683311,-7.969000
1790548415.0324,-0.010185,-0.000743,-0.380212,-0.006407,-0.003229,-0.380212,-0.508502,0.943719,-1.041988,0.377287,0.196111,-10.103616
1790548415.0473,-0.008999,0.005748,-0.405399,-0.008221,0.003055,-0.405399,-0.470863,0.172738,-1.112409,-1.117504,1.014071,-9.210958
1790548415.0618,-0.004571,0.006712,-0.433800,-0.005666,0.005615,-0.433800,-0.179469,-0.065233,-1.118479,-1.232488,-0.138509,-13.053266
1790548415.0755,0.000269,0.002755,-0.460095,-0.001511,0.003613,-0.460095,0.110711,-0.186648,-0.796732,-0.695896,-1.105189,-10.375294
1790548415.0893,0.010403,-0.001079,-0.473963,0.006829,0.000329,-0.473963,0.133780,-0.665020,-0.309861,-0.465928,-0.510309,-8.163056
1790548415.1035,0.016713,-0.003866,-0.477236,0.013748,-0.002608,-0.477236,0.150778,-0.442832,-0.120454,-0.082648,0.790991,-9.521448
1790548415.1175,0.020865,-0.011374,-0.478591,0.018730,-0.008744,-0.478591,0.535661,-0.217001,0.152728,-2.382327,1.608951,-11.345574
1790548415.1317,0.012586,-0.002617,-0.475516,0.014429,-0.004455,-0.475516,-0.578922,0.587975,0.207364,-1.079176,3.021791,-14.023546
1790548415.1458,0.007209,0.012479,-0.476254,0.009375,0.007399,-0.476254,-1.071863,0.437421,0.305709,-2.037376,1.757671,-10.724595
1790548415.1599,0.005493,0.020541,-0.483404,0.006658,0.016598,-0.483404,-0.671197,0.163025,0.262000,-1.309144,0.158931,-8.434735
1790548415.1738,0.010087,0.016457,-0.471642,0.009058,0.016499,-0.471642,0.312259,-0.563032,0.310566,2.830278,2.017931,-10.724595
1790548415.1878,0.006107,0.019897,-0.448761,0.006992,0.018878,-0.448761,-0.079909,0.034326,0.497544,3.060246,5.103871,-10.996273
1790548415.2018,0.001964,0.022754,-0.429828,0.003472,0.021591,-0.429828,-0.102978,0.017328,0.669952,2.600310,3.356411,-9.831937
1790548415.2159,0.001335,0.021860,-0.410395,0.001976,0.021780,-0.410395,0.173846,-0.227928,0.769512,1.718767,2.873071,-7.969000
1790548415.2300,-0.003151,0.022171,-0.395488,-0.001613,0.022054,-0.395488,0.057289,0.125387,0.775582,0.645583,2.278191,-7.425644
1790548415.2440,-0.008085,0.019659,-0.381325,-0.006144,0.020378,-0.381325,0.139850,0.068322,0.779225,2.408670,1.014071,-9.948371
1790548415.2578,-0.004825,0.018824,-0.371091,-0.005220,0.019290,-0.371091,0.127709,-0.448902,0.287497,2.791950,3.170511,-10.763406
1790548415.2719,-0.002293,0.018429,-0.363771,-0.003171,0.018687,-0.363771,0.002652,-0.304419,0.270499,1.297159,1.534591,-11.694875
1790548415.2862,0.010773,0.024670,-0.376852,0.006590,0.022875,-0.376852,-0.520643,-0.785220,0.320279,-3.992103,0.233291,-11.073895
1790548415.3002,0.020421,0.034017,-0.374910,0.016272,0.030674,-0.374910,-0.753758,-0.750010,0.087164,0.108991,0.456371,-9.210958
1790548415.3139,0.036251,0.044221,-0.377710,0.030257,0.040157,-0.377710,-0.816894,-1.099682,-0.162949,-0.925864,0.642271,-8.240679
1790548415.3281,0.040348,0.044910,-0.389115,0.037321,0.043484,-0.389115,-0.196467,-0.151438,-0.342642,-2.267343,-0.287229,-13.519000
1790548415.3422,0.042094,0.038806,-0.403729,0.040662,0.040209,-0.403729,0.374180,0.153312,-0.573329,-3.263871,1.460231,-9.754315
1790548415.3561,0.034621,0.030502,-0.412913,0.036433,0.033414,-0.412913,0.637649,0.711818,-0.668033,-0.810880,2.501271,-7.464455
1790548415.3701,0.031055,0.021554,-0.419088,0.032669,0.025112,-0.419088,0.768776,0.433779,-0.596398,-1.040848,3.058971,-6.416553
1790548415.3841,0.023411,0.014080,-0.421656,0.026188,0.017390,-0.421656,0.722639,0.654753,-0.524764,-0.427600,4.360271,-7.425644
1790548415.3983,0.012928,0.006239,-0.425262,0.016906,0.009584,-0.425262,0.779703,0.841731,-0.427632,-0.619240,5.438491,-8.163056
1790548415.4124,0.006002,-0.003533,-0.440632,0.009273,0.000402,-0.440632,0.858622,0.725173,-0.545404,-2.573967,4.732071,-9.366203
1790548415.4266,0.001039,-0.013084,-0.448967,0.003509,-0.009038,-0.448967,0.960610,0.539409,-0.674103,-1.385800,5.550031,-6.959909
1790548415.4407,0.004257,-0.013841,-0.453841,0.004033,-0.012400,-0.453841,0.137422,-0.130797,-0.955784,0.492271,3.728211,-11.966553
1790548415.4548,-0.000985,-0.009006,-0.469749,0.000520,-0.010024,-0.469749,-0.427154,0.488415,-1.357665,2.217030,0.679451,-16.391028
1790548415.4686,0.003292,-0.002739,-0.498092,0.002460,-0.004925,-0.498092,-0.438081,0.012472,-1.415944,-1.960720,2.352551,-10.685784
1790548415.4826,-0.009743,0.003504,-0.502240,-0.006082,0.000976,-0.502240,-0.411370,0.976500,-1.242322,1.412143,1.274331,-5.329839
1790548415.4966,-0.020224,0.010931,-0.532256,-0.015982,0.007945,-0.532256,-0.610489,1.022638,-1.060200,-1.002520,0.344831,-8.784035
1790548415.5106,-0.022069,0.015900,-0.565145,-0.020243,0.013513,-0.565145,-0.435653,0.445920,-1.074770,-1.654096,0.307651,-9.327392
1790548415.5244,-0.024131,0.018316,-0.594314,-0.022965,0.016875,-0.594314,-0.294813,0.409496,-0.929073,-1.309144,-0.287229,-10.685784
1790548415.5388,-0.018802,0.017655,-0.611048,-0.020051,0.017421,-0.611048,-0.164899,-0.328702,-0.386352,0.492271,-1.774428,-9.637881
1790548415.5532,-0.011700,0.015940,-0.617169,-0.014205,0.016384,-0.617169,-0.007061,-0.508395,-0.076745,0.377287,-0.324409,-9.327392
1790548415.5673,-0.000773,0.014820,-0.617423,-0.004803,0.015290,-0.617423,0.100998,-0.666234,0.042241,-2.037376,1.906391,-8.861658
1790548415.5813,0.006083,0.013635,-0.614687,0.002818,0.014131,-0.614687,0.126495,-0.419763,0.146657,-1.769080,2.241011,-9.210958
1790548415.5955,0.002042,0.018532,-0.606041,0.002275,0.017212,-0.606041,-0.279029,0.249229,0.360346,-0.657568,3.244871,-11.462007
1790548415.6097,0.001782,0.027433,-0.601119,0.001929,0.024367,-0.601119,-0.622631,-0.055520,0.179439,0.875551,3.058971,-16.313406
1790548415.6237,0.006631,0.024717,-0.581963,0.005220,0.024612,-0.581963,0.200557,-0.601884,0.013101,4.555037,2.017931,-11.384385
1790548415.6377,0.003759,0.021644,-0.559978,0.004197,0.022534,-0.559978,0.362038,-0.010597,0.416196,1.757095,3.282051,-7.774944
1790548415.6517,-0.000813,0.018281,-0.547892,0.000690,0.019557,-0.547892,0.285547,0.182452,0.615316,0.377287,1.906391,-7.852567
1790548415.6656,-0.005381,0.012533,-0.529075,-0.003560,0.014640,-0.529075,0.474954,0.104746,0.997770,0.645583,2.129471,-8.201867
1790548415.6799,-0.004013,0.008896,-0.518966,-0.003877,0.010619,-0.518966,0.244267,-0.214573,1.121613,-1.424128,1.571771,-11.035084
1790548415.6940,-0.003101,0.007338,-0.508355,-0.003334,0.008322,-0.508355,0.079143,-0.198789,1.246670,-1.194160,0.939711,-9.094525
1790548415.7083,-0.006139,0.004874,-0.498866,-0.005297,0.005909,-0.498866,0.079143,0.022185,0.711233,1.182175,-0.026969,-10.025993
1790548415.7223,-0.010204,-0.000055,-0.480448,-0.008732,0.001734,-0.480448,0.331685,-0.047021,0.378558,5.168285,1.162791,-10.375294
1790548415.7361,-0.003643,-0.002467,-0.482253,-0.005169,-0.001207,-0.482253,0.113139,-0.444046,0.283855,-1.730752,0.716631,-12.742777
1790548415.7501,0.005495,0.005461,-0.491903,0.002295,0.003460,-0.491903,-0.646914,-0.516894,0.039812,-3.340527,0.382011,-12.665154
1790548415.7639,0.020858,0.017016,-0.502391,0.015289,0.012949,-0.502391,-0.951663,-0.956414,-0.070675,-2.918919,-0.064149,-9.599070
1790548415.7777,0.034408,0.027080,-0.511079,0.028673,0.022841,-0.511079,-0.905526,-0.951557,-0.300147,-0.235960,-0.770569,-8.357112
1790548415.7920,0.036658,0.028400,-0.523517,0.034262,0.026732,-0.523517,-0.288742,-0.100444,-0.502909,0.147319,-1.068009,-10.025993
1790548415.8061,0.042779,0.023464,-0.532434,0.040224,0.024444,-0.532434,0.314687,-0.059163,-0.804016,-4.796990,1.906391,-9.948371
1790548415.8201,0.039813,0.020900,-0.534974,0.039936,0.021963,-0.534974,0.272192,0.419209,-0.754237,-1.845736,4.397451,-10.608161
1790548415.8343,0.037892,0.015888,-0.538449,0.038505,0.017711,-0.538449,0.422745,0.371858,-0.555117,-2.305671,2.761531,-7.619700
1790548415.8484,0.022753,0.010956,-0.527550,0.027479,0.012983,-0.527550,0.524733,1.017781,-0.596398,1.680439,3.244871,-5.756762
1790548415.8624,0.011124,0.002960,-0.522907,0.016030,0.005966,-0.522907,0.797915,0.857515,-0.558760,0.645583,3.802571,-5.873196
1790548415.8765,0.000205,-0.010508,-0.531575,0.004953,-0.005566,-0.531575,1.160944,0.951004,-0.744523,-0.849208,4.323091,-7.580888
1790548415.8905,-0.007304,-0.023981,-0.540622,-0.003627,-0.018456,-0.540622,1.259289,0.686321,-0.869580,-0.427600,6.070550,-7.969000
1790548415.9045,0.003517,-0.025831,-0.544125,0.001374,-0.023619,-0.544125,0.167776,-0.767008,-1.235037,4.325070,3.802571,-18.059910
1790548415.9186,0.001349,-0.022385,-0.556273,0.001357,-0.022755,-0.556273,-0.279029,0.153312,-1.520360,5.934845,2.017931,-17.477742
1790548415.9325,0.004237,-0.013832,-0.601351,0.003373,-0.016509,-0.601351,-0.588635,0.224947,-1.652702,-2.612295,1.906391,-7.619700
1790548415.9464,0.001488,-0.010564,-0.607207,0.002054,-0.012348,-0.607207,-0.271744,0.199450,-0.961855,0.990535,0.493551,-4.592427
1790548415.9603,-0.010379,-0.012587,-0.624443,-0.006649,-0.012515,-0.624443,-0.022845,0.875727,-0.810087,1.335487,-0.882109,-7.192776
1790548415.9742,-0.001009,-0.014200,-0.646711,-0.002701,-0.013695,-0.646711,0.025721,-0.463472,-0.865938,-1.462456,0.084571,-9.831937
1790548415.9878,0.002791,-0.019830,-0.657570,0.001143,-0.017989,-0.657570,0.270978,-0.266781,-0.533263,1.067191,-0.956469,-12.121798
1790548416.0013,0.013519,-0.023104,-0.665435,0.009806,-0.021569,-0.665435,0.144707,-0.730583,-0.128953,-0.925864,-0.138509,-8.861658
1790548416.0154,0.023253,-0.026273,-0.668272,0.019219,-0.024862,-0.668272,0.258836,-0.598242,0.053168,-1.999048,1.720491,-9.172147
1790548416.0298,0.019673,-0.027029,-0.668727,0.019537,-0.026379,-0.668727,0.073073,0.299009,0.309352,-2.420655,2.055111,-13.053266
1790548416.0442,0.013842,-0.011721,-0.665031,0.015551,-0.016118,-0.665031,-1.018441,0.404640,0.367631,-1.347472,2.538451,-12.277042
1790548416.0584,0.009272,-0.001411,-0.672312,0.011156,-0.005823,-0.672312,-0.821750,0.387642,0.485402,-2.382327,-0.026969,-9.909560
1790548416.0725,-0.004336,0.002004,-0.677640,0.000312,-0.000344,-0.677640,-0.383445,0.913365,0.419839,-0.082648,-0.510309,-6.765853
1790548416.0865,-0.002465,0.000821,-0.679358,-0.001632,0.000471,-0.679358,-0.042271,-0.146581,0.572821,-1.922392,-0.696209,-13.674245
1790548416.1005,-0.005430,-0.000372,-0.657748,-0.004290,-0.000119,-0.657748,0.130137,-0.102872,0.215863,6.969700,3.096151,-13.596623
1790548416.1143,-0.009627,0.004246,-0.638927,-0.008026,0.002936,-0.638927,-0.214679,0.045254,0.428338,3.673494,4.062831,-10.879840
1790548416.1282,-0.011947,0.001470,-0.624435,-0.010771,0.001910,-0.624435,0.205414,-0.088302,0.644455,1.948735,1.274331,-7.658511
1790548416.1421,-0.020328,-0.001293,-0.607708,-0.017461,-0.000332,-0.607708,0.222412,0.250444,0.694235,3.290214,1.497411,-7.270399
1790548416.1560,-0.023258,-0.003014,-0.599587,-0.021519,-0.002210,-0.599587,0.171418,0.132672,0.644455,-0.235960,2.464091,-9.831937
1790548416.1699,-0.029854,-0.006200,-0.586567,-0.027353,-0.005003,-0.586567,0.190844,0.262585,0.752514,1.833751,1.051251,-9.987182
1790548416.1839,-0.026639,-0.010415,-0.586371,-0.026853,-0.008792,-0.586371,0.255194,-0.167221,0.667524,-2.458983,0.865351,-9.366203
1790548416.1979,-0.027754,-0.011603,-0.576385,-0.027484,-0.010760,-0.576385,0.139850,-0.129583,0.254715,3.290214,2.649991,-10.375294
1790548416.2118,-0.017811,-0.004345,-0.577510,-0.020713,-0.006270,-0.577510,-0.548568,-0.674733,-0.022109,-0.887536,1.497411,-13.130889
1790548416.2257,-0.005345,0.004192,-0.578464,-0.009956,0.001053,-0.578464,-0.650556,-0.875066,-0.141095,-0.350944,1.274331,-11.656063
1790548416.2393,0.007904,0.011874,-0.582344,0.002546,0.008628,-0.582344,-0.694265,-0.924846,-0.229727,-0.465928,-0.398769,-9.482637
1790548416.2533,0.023988,0.021776,-0.593281,0.017556,0.017831,-0.593281,-0.768328,-0.918775,-0.450701,-2.152360,0.605091,-6.688231
1790548416.2673,0.026523,0.019505,-0.605273,0.023833,0.019003,-0.605273,-0.011917,-0.067662,-0.591542,-0.810880,-1.216729,-15.925294
1790548416.2812,0.027795,0.010392,-0.621442,0.026606,0.012975,-0.621442,0.544160,0.176381,-0.889006,-2.803935,0.567911,-12.432287
1790548416.2961,0.027038,0.007877,-0.626475,0.026909,0.009407,-0.626475,0.326828,0.292938,-0.606111,-2.343999,3.914111,-7.115154
1790548416.3101,0.019776,0.000404,-0.633288,0.021916,0.003105,-0.633288,0.638863,0.721531,-0.530834,-1.462456,2.501271,-6.338930
1790548416.3244,0.010842,-0.006697,-0.632369,0.014164,-0.003757,-0.632369,0.793059,0.753098,-0.663176,-0.427600,4.843611,-5.640329
1790548416.3385,-0.002491,-0.018547,-0.634427,0.002505,-0.014110,-0.634427,1.074740,1.011711,-0.648606,0.415615,4.694891,-7.503266
1790548416.3525,0.004572,-0.024657,-0.654250,0.003952,-0.021493,-0.654250,0.681358,-0.232785,-1.073556,-2.152360,5.289771,-7.891378
1790548416.3666,0.003406,-0.021347,-0.663979,0.003570,-0.021391,-0.663979,-0.294813,0.087748,-1.378306,5.589893,1.348691,-19.146623
1790548416.3808,-0.000187,-0.017996,-0.683858,0.000940,-0.019015,-0.683858,-0.305740,0.392498,-1.591995,1.987063,0.902531,-15.226693
1790548416.3949,0.001754,-0.012571,-0.704868,0.001510,-0.014504,-0.704868,-0.289956,0.116888,-1.232609,-0.925864,2.166651,-6.261308
1790548416.4088,-0.011311,-0.014543,-0.727301,-0.007465,-0.014532,-0.727301,-0.060483,1.035993,-0.695958,0.223975,-1.105189,-6.183686
1790548416.4230,-0.002952,-0.015375,-0.756950,-0.004306,-0.015122,-0.756950,-0.027701,-0.274066,-0.796732,-3.187215,0.084571,-9.055714
1790548416.4372,0.002203,-0.020496,-0.771171,0.000251,-0.018884,-0.771171,0.274620,-0.260710,-0.728740,-0.235960,0.121751,-14.178791
1790548416.4509,0.015243,-0.023794,-0.783089,0.010745,-0.022321,-0.783089,0.213913,-0.769436,-0.538119,-1.960720,1.051251,-9.366203
1790548416.4647,0.027367,-0.025077,-0.784581,0.022381,-0.024250,-0.784581,0.143493,-0.784006,-0.262509,-1.270816,1.943571,-8.473546
1790548416.4788,0.035551,-0.027772,-0.785857,0.031600,-0.026715,-0.785857,0.222412,-0.514466,-0.103456,-1.385800,1.720491,-9.210958
1790548416.4930,0.030290,-0.021987,-0.782044,0.030683,-0.023405,-0.782044,-0.305740,0.432565,-0.000254,-1.845736,3.914111,-12.238231
1790548416.5072,0.019450,-0.006616,-0.781168,0.022820,-0.011653,-0.781168,-1.058508,0.779809,0.269285,-1.462456,2.464091,-13.169700
1790548416.5211,0.012606,0.002745,-0.795677,0.015670,-0.001574,-0.795677,-0.782898,0.631684,0.283855,-2.650623,-0.175689,-8.279490
1790548416.5353,0.008902,0.008729,-0.808217,0.010932,0.005638,-0.808217,-0.576493,0.356074,0.314208,-1.654096,-0.584669,-6.416553
1790548416.5498,-0.001363,0.022882,-0.784619,0.002325,0.017709,-0.784619,-0.860603,0.515126,0.390699,1.105519,1.832031,-4.941727
1790548416.5639,-0.000393,0.014947,-0.775039,0.000422,0.015776,-0.775039,0.494380,-0.282565,0.762227,1.910407,0.790991,-16.817952
1790548416.5779,-0.002893,0.019884,-0.736018,-0.001899,0.018651,-0.736018,-0.144259,-0.142939,0.799865,2.753622,4.769251,-8.706413
1790548416.5919,-0.015631,0.023597,-0.698566,-0.011511,0.022113,-0.698566,-0.090837,0.427708,0.785296,7.314652,5.364131,-9.560259
1790548416.6058,-0.016708,0.017704,-0.676363,-0.015149,0.019027,-0.676363,0.481024,-0.314133,0.714875,2.638638,1.608951,-5.485084
1790548416.6200,-0.032795,0.015910,-0.670101,-0.027501,0.016845,-0.670101,0.261265,0.749456,0.340920,4.746677,2.947431,-5.950818
1790548416.6338,-0.027747,0.011815,-0.665940,-0.027673,0.013324,-0.665940,0.279477,-0.411264,0.370059,-0.197632,1.534591,-9.676693
1790548416.6477,-0.031293,0.011787,-0.660866,-0.030207,0.012248,-0.660866,-0.009489,0.175167,0.079879,1.565455,1.869211,-12.082986
1790548416.6617,-0.021867,0.014840,-0.670988,-0.024369,0.014063,-0.670988,-0.302097,-0.567888,0.020386,-2.343999,0.493551,-13.402567
1790548416.6753,-0.012682,0.022592,-0.668241,-0.016188,0.020033,-0.668241,-0.605633,-0.713585,-0.116812,0.913879,1.497411,-12.005364
1790548416.6890,0.000594,0.030449,-0.673480,-0.004441,0.027324,-0.673480,-0.649342,-0.895707,-0.241869,-0.772552,0.642271,-8.978091
1790548416.7029,0.013354,0.037953,-0.685906,0.008016,0.034764,-0.685906,-0.608061,-0.746367,-0.314717,-1.769080,0.679451,-7.969000
1790548416.7169,0.015740,0.035346,-0.699922,0.013423,0.035171,-0.699922,0.048790,-0.008169,-0.529620,-1.385800,-0.138509,-11.462007
1790548416.7309,0.015675,0.029133,-0.716841,0.014999,0.030944,-0.716841,0.455527,0.267442,-0.620681,-2.382327,2.166651,-8.900469
1790548416.7448,0.007764,0.026322,-0.721391,0.009934,0.027709,-0.721391,0.421531,0.666894,-0.527192,-0.044320,3.802571,-5.795574
1790548416.7589,0.006207,0.018303,-0.739990,0.007325,0.021125,-0.739990,0.666788,0.382785,-0.487125,-2.765607,3.170511,-8.046623
1790548416.7730,-0.000395,0.009185,-0.751619,0.001921,0.012767,-0.751619,0.833125,0.698462,-0.651035,-1.845736,4.657711,-8.395923
1790548416.7872,-0.008449,0.000793,-0.749627,-0.005338,0.004385,-0.749627,0.859837,0.658395,-0.555117,-0.044320,5.959010,-8.240679
1790548416.8015,-0.018858,-0.012124,-0.760657,-0.014802,-0.007171,-0.760657,1.114806,0.901224,-0.740881,-0.772552,4.397451,-7.736133
1790548416.8157,-0.012026,-0.014643,-0.767372,-0.012859,-0.012401,-0.767372,0.260050,-0.376054,-0.933930,0.530599,4.323091,-15.420749
1790548416.8296,-0.017041,-0.010411,-0.762040,-0.015786,-0.011008,-0.762040,-0.343378,0.250444,-1.020134,6.624748,0.976891,-14.955014
1790548416.8437,-0.017503,-0.007877,-0.778857,-0.016988,-0.008817,-0.778857,-0.389516,0.067108,-0.885364,2.140375,-2.518028,-11.656063
1790548416.8576,-0.012870,-0.011328,-0.798313,-0.014105,-0.010575,-0.798313,-0.038629,-0.349343,-0.767592,1.910407,-2.927008,-7.891378
1790548416.8715,-0.029239,-0.013742,-0.796991,-0.024699,-0.012792,-0.796991,0.043933,0.918222,-0.365711,4.440053,-0.807749,-7.037532
1790548416.8853,-0.038699,-0.013989,-0.806552,-0.034499,-0.013630,-0.806552,0.003866,0.789523,-0.358426,-0.389272,0.976891,-9.249770
1790548416.8993,-0.042264,-0.013744,-0.824663,-0.039934,-0.013710,-0.824663,-0.007061,0.466561,-0.493196,-2.305671,1.683311,-12.199420
1790548416.9130,-0.034345,-0.013186,-0.842522,-0.036022,-0.013343,-0.842522,-0.017988,-0.344486,-0.513836,-3.033903,2.092291,-12.432287
1790548416.9266,-0.029848,-0.013150,-0.856557,-0.031700,-0.013208,-0.856557,0.057289,-0.116227,-0.345071,-2.497311,2.389731,-9.831937
1790548416.9405,-0.019795,-0.014520,-0.873407,-0.023367,-0.014126,-0.873407,0.149563,-0.450116,-0.380281,-3.455511,2.166651,-9.055714
1790548416.9543,-0.012405,-0.016664,-0.884107,-0.015694,-0.015902,-0.884107,0.230911,-0.306848,-0.354784,-2.497311,2.278191,-8.046623
1790548416.9683,-0.010271,-0.018587,-0.888121,-0.011898,-0.017782,-0.888121,0.185988,-0.064019,-0.264937,-0.887536,2.241011,-9.948371
1790548416.9821,-0.016995,-0.015899,-0.888703,-0.015466,-0.016464,-0.888703,-0.169756,0.494486,-0.182376,0.492271,2.278191,-12.509909
1790548416.9961,-0.026397,-0.005211,-0.891085,-0.023118,-0.008587,-0.891085,-0.807180,0.660824,-0.019681,0.760567,1.199971,-14.489280
1790548417.0101,-0.026895,-0.006771,-0.885360,-0.025762,-0.007316,-0.885360,-0.009489,-0.107728,0.272928,2.293686,-0.584669,-12.587532
1790548417.0242,-0.023102,-0.010205,-0.864127,-0.023900,-0.009339,-0.864127,0.251551,-0.527822,0.637170,2.332014,1.460231,-8.551168
1790548417.0383,-0.034747,-0.008711,-0.828882,-0.031493,-0.008899,-0.828882,0.008723,0.415567,0.992914,2.791950,2.129471,-5.252217
1790548417.0528,-0.042934,-0.012442,-0.811604,-0.039502,-0.011379,-0.811604,0.224840,0.383999,1.291593,0.185647,1.274331,-8.551168
1790548417.0670,-0.037627,-0.016365,-0.806013,-0.038190,-0.014869,-0.806013,0.200557,-0.402765,1.352300,-2.114032,0.753811,-8.279490
