t,imu_roll,imu_pitch,imu_yaw,lpf_roll,lpf_pitch,lpf_yaw,gyro_x,gyro_y,gyro_z,acc_x,acc_y,acc_z
1790549110.3560,-0.010035,-0.028075,0.003458,-0.007024,-0.019652,0.003458,-0.013564,-0.005884,-0.000267,0.377287,1.274331,-9.831937
1790549110.3716,0.002629,-0.034525,0.012077,-0.000267,-0.030063,0.012077,0.031359,0.008685,0.002162,0.108991,1.199971,-9.987182
1790549110.3854,0.004304,-0.037555,0.013396,0.002933,-0.035307,0.013396,0.022860,0.008685,0.008232,0.185647,1.162791,-9.870749
1790549110.3992,0.008216,-0.039035,0.016166,0.006631,-0.037917,0.016166,-0.008708,-0.005884,0.002162,0.070663,1.199971,-10.258860
1790549110.4133,0.003163,-0.039314,0.011816,0.004204,-0.038895,0.011816,-0.037847,-0.010741,-0.007551,0.453943,1.199971,-10.142427
1790549110.4272,0.002266,-0.039792,0.010934,0.002848,-0.039523,0.010934,-0.048775,0.005043,-0.017264,0.300631,1.199971,-10.414105
1790549110.4413,-0.000580,-0.038425,0.009001,0.000448,-0.038754,0.009001,-0.054845,0.088819,-0.019693,0.377287,1.274331,-10.103616
1790549110.4558,0.002386,-0.037558,0.012657,0.001805,-0.037917,0.012657,-0.100983,0.076677,0.014303,-0.044320,1.199971,-10.064805
1790549110.4698,0.004613,-0.036653,0.016460,0.003771,-0.037032,0.016460,-0.160476,0.068178,0.079867,-0.044320,1.125611,-9.909560
1790549110.4837,0.009105,-0.033660,0.023758,0.007505,-0.034672,0.023758,-0.218754,0.012328,0.178212,-0.274288,1.274331,-10.025993
1790549110.4977,0.014301,-0.029846,0.032201,0.012262,-0.031294,0.032201,-0.251536,-0.188006,0.340907,-0.197632,1.348691,-9.987182
1790549110.5117,0.008743,-0.029143,0.032220,0.009799,-0.029788,0.032220,-0.199328,-0.053236,0.526671,0.760567,1.088431,-9.909560
1790549110.5257,0.003267,-0.031505,0.031379,0.005227,-0.030990,0.031379,-0.173831,-0.099373,0.594663,0.952207,0.753811,-10.336483
1790549110.5397,0.000805,-0.024566,0.036321,0.002131,-0.026493,0.036321,-0.093698,-0.002242,0.559453,0.415615,1.943571,-9.055714
1790549110.5536,0.008037,-0.026916,0.048382,0.006265,-0.026789,0.048382,-0.099768,-0.217145,0.410114,-0.580912,0.939711,-11.267951
1790549110.5676,0.006928,-0.028675,0.049781,0.006729,-0.028109,0.049781,-0.139835,-0.039880,0.309340,0.415615,0.902531,-11.656063
1790549110.5816,-0.001204,-0.027260,0.042309,0.001176,-0.027515,0.042309,-0.049989,0.117958,0.274130,1.143847,1.348691,-9.210958
1790549110.5955,-0.007156,-0.027071,0.036148,-0.004657,-0.027204,0.036148,0.119991,-0.016812,0.319053,1.220503,1.571771,-9.366203
1790549110.6091,-0.014407,-0.028052,0.034645,-0.011482,-0.027798,0.034645,0.053213,0.263655,0.231635,0.990535,1.274331,-9.831937
1790549110.6228,-0.018098,-0.026632,0.030475,-0.016113,-0.026982,0.030475,0.083567,0.199306,0.167285,0.530599,1.683311,-9.094525
1790549110.6368,-0.019767,-0.026032,0.030147,-0.018671,-0.026317,0.030147,0.032573,0.119172,0.144216,0.415615,1.571771,-9.948371
1790549110.6507,-0.022184,-0.022454,0.027206,-0.021130,-0.023613,0.027206,-0.096126,0.070607,0.186711,0.722239,1.869211,-9.909560
1790549110.6647,-0.020538,-0.019143,0.027744,-0.020716,-0.020484,0.027744,-0.116766,-0.156438,0.304483,0.453943,1.794851,-9.754315
1790549110.6788,-0.022113,-0.016473,0.032728,-0.021694,-0.017676,0.032728,-0.161690,-0.180721,0.357905,1.258831,1.571771,-9.831937
1790549110.6930,-0.015630,-0.007253,0.025376,-0.017449,-0.010380,0.025376,-0.296460,-0.543749,0.281414,0.568927,2.761531,-9.754315
1790549110.7072,-0.019775,-0.010095,0.043278,-0.019078,-0.010181,0.043278,-0.051203,0.079106,0.184283,1.795423,1.088431,-16.119350
1790549110.7214,-0.018115,-0.013079,0.038387,-0.018404,-0.012210,0.038387,0.221979,0.130100,-0.300160,-0.465928,2.389731,-16.274595
1790549110.7354,-0.013286,-0.006213,0.011471,-0.014821,-0.008012,0.011471,0.136989,-0.243856,-0.731180,0.377287,3.207691,-8.124245
1790549110.7495,-0.003908,-0.007402,-0.010592,-0.007182,-0.007585,-0.010592,0.160058,-0.202575,-0.949726,-0.734224,1.311511,-7.736133
1790549110.7651,-0.011624,0.000252,0.006164,-0.010291,-0.002099,0.006164,-0.077914,0.098532,-0.606123,1.680439,2.241011,-6.183686
1790549110.7803,-0.015502,-0.005804,0.005854,-0.013938,-0.004692,0.005854,0.196482,0.395997,-0.726323,0.377287,0.642271,-12.238231
1790549110.7956,-0.011160,-0.010091,-0.013180,-0.011993,-0.008471,-0.013180,0.221979,0.070607,-0.976437,-0.695896,1.274331,-12.238231
1790549110.8103,-0.018704,-0.002858,-0.022550,-0.016691,-0.004542,-0.022550,-0.148334,0.336504,-0.930299,1.412143,2.166651,-6.959909
1790549110.8258,-0.024256,0.003845,-0.053049,-0.021987,0.001329,-0.053049,-0.202971,0.620613,-0.770033,-0.082648,2.092291,-8.046623
1790549110.8396,-0.026288,0.005358,-0.079036,-0.024998,0.004149,-0.079036,-0.138621,0.595116,-0.659546,-1.079176,1.497411,-11.267951
1790549110.8534,-0.030924,0.006524,-0.089503,-0.029146,0.005811,-0.089503,-0.105839,0.494342,-0.488352,0.300631,1.646131,-11.500819
1790549110.8681,-0.037161,0.011035,-0.092490,-0.034757,0.009468,-0.092490,-0.279462,0.444562,-0.187244,0.798895,1.943571,-10.841028
1790549110.8824,-0.043841,0.019536,-0.096589,-0.041116,0.016516,-0.096589,-0.314672,0.493128,0.050727,0.492271,2.724351,-8.163056
1790549110.8966,-0.046820,0.026058,-0.118934,-0.045109,0.023195,-0.118934,-0.233324,0.579332,0.126004,-1.117504,2.798711,-8.861658
1790549110.9105,-0.038656,0.022272,-0.132091,-0.040592,0.022549,-0.132091,0.435668,-0.280280,0.221921,-1.155832,2.835891,-9.831937
1790549110.9244,-0.040779,0.015946,-0.042197,-0.040723,0.017927,-0.042197,0.727062,-0.508539,0.541241,3.251886,3.356411,-9.094525
1790549110.9388,-0.047669,0.016891,0.011304,-0.045585,0.017202,0.011304,0.469664,-0.160080,0.858132,2.600310,4.100011,-6.688231
1790549110.9531,-0.040077,0.004901,0.029147,-0.041729,0.008591,0.029147,0.856975,-0.763509,0.985617,0.913879,2.092291,-9.443825
1790549110.9678,-0.035476,-0.008112,0.073002,-0.037352,-0.003101,0.073002,1.127729,-0.944416,1.406924,2.255358,2.798711,-7.037532
1790549110.9826,-0.050177,-0.006983,0.090480,-0.046330,-0.005818,0.090480,0.015575,0.672821,1.604829,1.488799,2.947431,-10.530539
1790549110.9969,-0.053006,-0.006285,0.094573,-0.051003,-0.006145,0.094573,-0.202971,0.065750,1.994569,-0.082648,1.869211,-12.742777
1790549111.0110,-0.048633,-0.016661,0.102798,-0.049344,-0.013506,0.102798,0.279044,-0.354343,1.984856,-0.810880,-0.547489,-11.462007
1790549111.0252,-0.057613,-0.021235,0.168256,-0.055133,-0.018917,0.168256,0.014361,0.113102,1.797878,1.335487,0.270471,-5.834385
1790549111.0393,-0.051194,-0.028977,0.140293,-0.052376,-0.025959,0.140293,0.088424,-0.157652,1.083962,-1.615768,-1.030829,-8.318301
1790549111.0532,-0.063577,-0.039410,0.190784,-0.060217,-0.035375,0.190784,0.427169,0.483415,0.961334,2.945262,-0.324409,-11.229140
1790549111.0670,-0.065497,-0.047224,0.185722,-0.063913,-0.043669,0.185722,0.411385,0.283081,0.761001,-0.542584,0.530731,-10.646972
1790549111.0807,-0.065443,-0.051674,0.168833,-0.064984,-0.049272,0.168833,0.327610,0.194449,0.599520,-0.849208,1.683311,-11.927742
1790549111.0946,-0.062996,-0.055321,0.143545,-0.063592,-0.053506,0.143545,0.179484,0.187164,0.473249,-1.922392,0.790991,-10.530539
1790549111.1085,-0.058600,-0.061310,0.154580,-0.060097,-0.058969,0.154580,0.146702,-0.339773,0.425897,0.722239,-0.733389,-10.646972
1790549111.1225,-0.047111,-0.060048,0.162093,-0.051007,-0.059724,0.162093,-0.216326,-0.866711,0.266845,0.990535,0.382011,-12.082986
1790549111.1365,-0.044287,-0.054734,0.201459,-0.046303,-0.056231,0.201459,-0.663130,-0.645737,0.263202,4.095102,-0.919289,-10.802217
1790549111.1503,-0.042517,-0.048331,0.228702,-0.043653,-0.050701,0.228702,-0.899888,-0.530394,0.157572,3.711822,-2.146228,-10.142427
1790549111.1643,-0.037654,-0.027810,0.214344,-0.039454,-0.034677,0.214344,-1.449894,-0.924990,0.208566,3.136902,0.902531,-5.950818
1790549111.1784,-0.026713,-0.004868,0.225310,-0.030535,-0.013811,0.225310,-1.726719,-1.178746,0.161214,1.948735,0.567911,-5.640329
1790549111.1924,-0.029991,0.002777,0.235606,-0.030154,-0.002199,0.235606,-0.655846,0.317077,-0.148392,0.300631,1.608951,-19.612357
1790549111.2063,-0.037089,-0.001582,0.207444,-0.035008,-0.001767,0.207444,0.430812,1.003068,-0.600053,-3.225543,2.724351,-13.130889
1790549111.2207,-0.014847,-0.001973,0.153575,-0.020896,-0.001911,0.153575,0.319111,-0.840000,-0.987364,-4.643678,3.653851,-9.676693
1790549111.2348,-0.014703,0.002627,0.140845,-0.016561,0.001265,0.140845,-0.149548,-0.041094,-0.763962,1.067191,1.794851,-6.222497
1790549111.2488,-0.008711,-0.006714,0.140944,-0.011066,-0.004320,0.140944,0.506088,-0.084804,-0.579412,-2.037376,0.047391,-11.811308
1790549111.2628,0.007860,-0.020783,0.132526,0.002182,-0.015844,0.132526,0.948036,-0.793863,-0.716610,-2.497311,0.902531,-11.151518
1790549111.2767,0.020755,-0.026399,0.117660,0.015183,-0.023233,0.117660,0.748917,-0.755010,-0.799172,-0.427600,3.096151,-7.115154
1790549111.2902,0.016889,-0.029140,0.115991,0.016378,-0.027368,0.115991,0.453880,0.172595,-0.777317,1.718767,3.096151,-8.822846
1790549111.3038,0.021744,-0.032092,0.099655,0.020134,-0.030675,0.099655,0.391959,-0.206218,-0.568485,-0.465928,2.166651,-7.891378
1790549111.3173,0.029899,-0.039259,0.076619,0.026970,-0.036684,0.076619,0.575295,-0.254783,-0.457998,-2.343999,1.497411,-9.405014
1790549111.3314,0.026971,-0.045985,0.087768,0.026971,-0.043195,0.087768,0.633573,0.088819,-0.042761,1.028863,2.464091,-9.637881
1790549111.3454,0.015148,-0.040981,0.091492,0.018695,-0.041645,0.091492,-0.026920,0.819732,0.130861,0.223975,4.508991,-10.258860
1790549111.3592,0.007803,-0.039689,0.078123,0.011071,-0.040275,0.078123,-0.230896,0.699532,0.214637,-1.999048,0.010211,-14.295224
1790549111.3732,0.005796,-0.034499,0.058368,0.007379,-0.036232,0.058368,-0.489508,0.541694,0.370047,-3.877119,0.233291,-9.948371
1790549111.3873,0.001927,-0.029420,0.054693,0.003563,-0.031464,0.054693,-0.601209,0.596330,0.526671,-2.152360,-0.547489,-6.261308
1790549111.4012,-0.005672,-0.024996,0.052527,-0.002902,-0.026936,0.052527,-0.419088,0.626684,0.663869,-0.619240,0.344831,-5.446273
1790549111.4152,-0.011117,-0.020036,0.064665,-0.008652,-0.022106,0.064665,-0.317100,0.587831,0.639586,-1.539112,1.274331,-6.532986
1790549111.4292,-0.020499,-0.015707,0.069435,-0.016945,-0.017627,0.069435,-0.321956,0.725029,0.710007,-1.002520,1.757671,-10.918651
1790549111.4432,-0.019426,-0.021481,0.072266,-0.018681,-0.020325,0.072266,0.219551,-0.174650,1.116744,-0.120976,0.196111,-12.975644
1790549111.4575,-0.027256,-0.021286,0.094130,-0.024684,-0.020998,0.094130,-0.018421,0.383855,1.200520,0.492271,1.720491,-9.133336
1790549111.4720,-0.035302,-0.029674,0.112847,-0.032117,-0.027071,0.112847,0.283900,0.246657,1.277011,1.258831,-0.621849,-6.338930
1790549111.4862,-0.039171,-0.038227,0.124164,-0.037055,-0.034880,0.124164,0.552226,0.247871,0.929766,-0.197632,1.125611,-8.667602
1790549111.5001,-0.041565,-0.044942,0.131297,-0.040212,-0.041923,0.131297,0.455094,0.291580,0.536384,-0.849208,0.939711,-7.658511
1790549111.5141,-0.057001,-0.053516,0.131654,-0.051965,-0.050038,0.131654,0.489090,1.001854,0.469606,1.833751,0.158931,-12.898021
1790549111.5278,-0.065137,-0.064206,0.138719,-0.061185,-0.059956,0.138719,0.764701,0.642468,0.501174,-0.044320,1.460231,-12.238231
1790549111.5416,-0.071801,-0.074105,0.149277,-0.068616,-0.069860,0.149277,0.714921,0.483415,0.571594,0.492271,1.274331,-9.870749
1790549111.5556,-0.075493,-0.080802,0.190784,-0.073430,-0.077519,0.190784,0.594721,0.003829,0.469606,3.596838,2.538451,-10.724595
1790549111.5697,-0.061234,-0.085875,0.185772,-0.064893,-0.083369,0.185772,0.158844,-1.026978,0.322695,1.067191,-1.216729,-13.868301
1790549111.5836,-0.058456,-0.086241,0.192811,-0.060387,-0.085379,0.192811,-0.238181,-0.433262,0.277772,4.363398,-2.592388,-13.790679
1790549111.5976,-0.054494,-0.080870,0.220268,-0.056262,-0.082223,0.220268,-0.660702,-0.702802,0.413756,5.321597,-2.109048,-9.754315
1790549111.6116,-0.043591,-0.067289,0.228915,-0.047393,-0.071769,0.228915,-1.140288,-1.068259,0.323909,2.638638,-0.473129,-7.348021
1790549111.6256,-0.032038,-0.049764,0.238071,-0.036645,-0.056365,0.238071,-1.363690,-1.171461,0.214637,2.638638,0.047391,-6.222497
1790549111.6396,-0.022479,-0.025509,0.247758,-0.026729,-0.034766,0.247758,-1.809281,-1.133822,0.073796,2.446998,0.233291,-4.165504
1790549111.6538,-0.002509,0.000942,0.255246,-0.009775,-0.009771,0.255246,-1.991402,-1.583055,0.067725,1.028863,0.196111,-5.368651
1790549111.6677,0.007722,0.025062,0.253970,0.002473,0.014613,0.253970,-1.781355,-0.941988,-0.141107,1.603783,0.828171,-6.144874
1790549111.6817,-0.023414,0.018344,0.239073,-0.015648,0.017224,0.239073,0.506088,2.514675,-0.887804,-0.925864,2.947431,-18.409210
1790549111.6957,0.011328,0.008404,0.229631,0.003236,0.011050,0.229631,0.883687,-2.119706,-0.970366,-4.796990,6.553890,-18.448022
1790549111.7097,-0.002730,0.011858,0.204151,-0.000940,0.011615,0.204151,0.030145,0.950860,-0.920586,2.715294,4.360271,-8.706413
1790549111.7246,0.002052,0.006589,0.198532,0.001154,0.008097,0.198532,0.299684,0.058465,-0.845309,-1.845736,0.493551,-6.959909
1790549111.7388,0.012065,0.000049,0.190464,0.008792,0.002464,0.190464,0.461165,-0.406551,-0.756677,-1.960720,1.460231,-9.987182
1790549111.7527,0.012204,-0.006883,0.177816,0.011180,-0.004079,0.177816,0.589864,0.211447,-0.795530,-0.772552,2.017931,-8.085434
1790549111.7666,0.016251,-0.010604,0.165593,0.014729,-0.008647,0.165593,0.476949,-0.024096,-0.777317,-1.424128,3.244871,-8.163056
1790549111.7806,0.021095,-0.015845,0.157339,0.019185,-0.013685,0.157339,0.487876,-0.177078,-0.521133,-0.964192,2.501271,-9.016902
1790549111.7946,0.018594,-0.021362,0.157811,0.018771,-0.019059,0.157811,0.580151,0.160453,-0.241881,0.568927,2.910251,-7.852567
1790549111.8087,0.017812,-0.020402,0.157108,0.018100,-0.019999,0.157108,0.130919,0.116744,0.073796,-0.657568,3.319231,-8.434735
1790549111.8225,0.014411,-0.022407,0.158661,0.015518,-0.021685,0.158661,0.297256,0.278225,0.311768,-0.925864,4.137191,-12.587532
1790549111.8365,0.011534,-0.024978,0.155550,0.012729,-0.023990,0.155550,0.248690,0.298865,0.404043,-2.382327,3.430771,-15.420749
1790549111.8505,0.010269,-0.020355,0.150915,0.011007,-0.021445,0.150915,-0.308601,0.263655,0.735504,-3.800463,2.278191,-12.044175
1790549111.8645,0.002600,-0.015091,0.151440,0.005122,-0.016998,0.151440,-0.420302,0.618185,0.971047,-1.960720,1.088431,-9.055714
1790549111.8785,-0.003020,-0.004816,0.166379,-0.000578,-0.008471,0.166379,-0.620635,0.542908,0.954049,-1.385800,1.385871,-4.087881
1790549111.8924,-0.000070,-0.001678,0.183447,-0.000223,-0.003716,0.183447,-0.145906,-0.253569,1.059680,-0.810880,1.832031,-6.106063
1790549111.9064,0.001621,-0.008498,0.211528,0.001068,-0.007063,0.211528,0.525515,-0.355557,1.400853,0.300631,1.943571,-8.007811
1790549111.9204,-0.012109,-0.012699,0.236071,-0.008156,-0.011008,0.236071,0.226836,0.689819,1.765096,0.913879,1.534591,-12.393476
1790549111.9345,-0.014066,-0.016161,0.239985,-0.012293,-0.014615,0.239985,0.105422,0.088819,1.723815,-2.612295,0.939711,-13.441378
1790549111.9485,-0.013758,-0.018811,0.249852,-0.013319,-0.017553,0.249852,0.095708,-0.123656,1.422708,-0.772552,1.051251,-9.793126
1790549111.9627,-0.019044,-0.024292,0.248971,-0.017326,-0.022270,0.248971,0.187983,0.291580,0.907912,-0.005993,-0.473129,-8.551168
1790549111.9770,-0.027444,-0.032690,0.256961,-0.024409,-0.029564,0.256961,0.469664,0.440920,0.683295,1.373815,0.196111,-10.569350
1790549111.9907,-0.037275,-0.040213,0.285243,-0.033415,-0.037018,0.285243,0.541299,0.462775,0.582522,2.830278,1.274331,-9.637881
1790549112.0043,-0.046731,-0.048130,0.296794,-0.042736,-0.044797,0.296794,0.660284,0.695890,0.489033,-0.005993,2.501271,-10.103616
1790549112.0183,-0.049776,-0.054636,0.303598,-0.047664,-0.051684,0.303598,0.481806,0.193235,0.344550,0.645583,1.683311,-10.685784
1790549112.0323,-0.038089,-0.055297,0.302383,-0.040961,-0.054213,0.302383,0.011933,-0.808432,0.168499,0.070663,1.274331,-14.722147
1790549112.0461,-0.028048,-0.054590,0.309014,-0.031922,-0.054477,0.309014,-0.217540,-0.867925,0.055584,2.830278,-1.291089,-12.898021
1790549112.0602,-0.024871,-0.050258,0.323234,-0.026986,-0.051524,0.323234,-0.519862,-0.441761,0.105364,3.136902,-1.700068,-9.831937
1790549112.0743,-0.015045,-0.044022,0.333527,-0.018628,-0.046273,0.333527,-0.779688,-0.883709,0.051942,1.872079,-2.332128,-6.494175
1790549112.0886,-0.005673,-0.028382,0.348365,-0.009560,-0.033749,0.348365,-1.150001,-0.949273,0.111435,2.830278,0.419191,-6.765853
1790549112.1028,0.007445,-0.006046,0.355933,0.002344,-0.014357,0.355933,-1.673297,-1.162962,-0.069473,2.485326,0.158931,-7.231588
1790549112.1169,0.018161,0.019378,0.358131,0.013416,0.009257,0.358131,-1.908840,-0.916491,-0.263735,2.715294,0.419191,-10.491728
1790549112.1310,-0.009025,0.015804,0.343139,-0.002293,0.013840,0.343139,0.100565,2.115222,-0.971580,1.412143,-1.365448,-21.281238
1790549112.1452,-0.001118,0.007187,0.328209,-0.001471,0.009183,0.328209,0.572866,-0.122442,-1.260546,-4.260399,1.014071,-15.537182
1790549112.1591,-0.006914,0.015555,0.287560,-0.005281,0.013643,0.287560,-0.222397,0.048752,-1.109992,4.938317,3.467951,-2.729490
1790549112.1732,-0.017965,0.011553,0.278608,-0.014160,0.012180,0.278608,0.314254,0.772381,-0.914515,1.948735,1.051251,-6.455364
1790549112.1873,-0.000825,0.001212,0.273948,-0.004825,0.004503,0.273948,0.648143,-0.832715,-0.992221,-2.957247,0.010211,-10.142427
1790549112.2013,0.006281,-0.005433,0.256936,0.002949,-0.002453,0.256936,0.611719,-0.422335,-0.974008,0.875551,2.538451,-7.930189
1790549112.2150,0.002578,-0.008096,0.239725,0.002690,-0.006403,0.239725,0.355535,0.334075,-0.881734,1.028863,2.761531,-7.930189
1790549112.2289,0.008081,-0.009349,0.224350,0.006463,-0.008465,0.224350,0.194054,-0.197719,-0.670473,-0.849208,2.055111,-7.425644
1790549112.2430,0.012546,-0.016161,0.213412,0.010721,-0.013852,0.213412,0.537656,-0.178293,-0.555129,-0.619240,1.869211,-9.172147
1790549112.2569,0.011510,-0.021302,0.212358,0.011274,-0.019067,0.212358,0.468450,0.024469,-0.030620,0.837223,2.538451,-9.133336
1790549112.2709,0.010301,-0.021343,0.207562,0.010593,-0.020661,0.207562,0.141846,0.116744,0.099293,-0.389272,3.207691,-9.443825
1790549112.2848,-0.000679,-0.025748,0.208076,0.002702,-0.024222,0.208076,0.330038,0.791807,0.359120,-0.504256,2.612811,-16.274595
1790549112.2987,-0.001977,-0.024379,0.207290,-0.000574,-0.024332,0.207290,-0.094912,0.258799,0.474463,-4.222071,2.315371,-14.528091
1790549112.3125,-0.007111,-0.014946,0.214298,-0.005149,-0.017762,0.214298,-0.624278,0.461560,0.967405,-2.497311,2.426911,-8.861658
1790549112.3265,-0.014826,-0.010600,0.224300,-0.011923,-0.012749,0.224300,-0.421516,0.573261,1.158025,-1.539112,0.382011,-7.115154
1790549112.3406,-0.026341,-0.001092,0.249373,-0.022016,-0.004589,0.249373,-0.512577,0.658251,1.056037,0.223975,1.869211,-3.893825
1790549112.3546,-0.018337,-0.003731,0.259117,-0.019440,-0.003988,0.259117,0.115135,-0.615384,1.173809,-1.692424,1.534591,-10.608161
1790549112.3686,-0.029544,-0.009231,0.287167,-0.026513,-0.007659,0.287167,0.354321,0.490700,1.643682,1.833751,2.649991,-12.742777
1790549112.3827,-0.040057,-0.012768,0.305615,-0.035994,-0.011235,0.305615,0.106636,0.555049,1.704389,-0.120976,1.014071,-11.811308
1790549112.3967,-0.040097,-0.017182,0.322263,-0.038866,-0.015398,0.322263,0.124848,-0.072662,1.751741,-1.884064,0.456371,-10.258860
1790549112.4107,-0.042122,-0.023900,0.331709,-0.041145,-0.021349,0.331709,0.304541,0.173809,1.150740,-1.884064,0.010211,-9.521448
1790549112.4246,-0.046171,-0.028114,0.338019,-0.044663,-0.026084,0.338019,0.180698,0.278225,0.886057,-0.542584,0.382011,-7.969000
1790549112.4386,-0.055986,-0.036536,0.346363,-0.052589,-0.033400,0.346363,0.487876,0.582975,0.711221,1.067191,0.270471,-8.318301
1790549112.4522,-0.065672,-0.045224,0.361513,-0.061747,-0.041677,0.361513,0.623860,0.561120,0.714863,1.718767,1.608951,-9.210958
1790549112.4661,-0.069247,-0.053714,0.372769,-0.066997,-0.050103,0.372769,0.651785,0.226017,0.542455,0.607255,2.426911,-10.491728
1790549112.4805,-0.062727,-0.058122,0.373422,-0.064008,-0.055716,0.373422,0.217123,-0.351915,0.389473,-1.500784,0.419191,-12.587532
1790549112.4946,-0.049795,-0.056883,0.374850,-0.054059,-0.056533,0.374850,-0.202971,-0.934703,0.277772,0.798895,-0.212869,-15.071448
1790549112.5086,-0.043519,-0.052407,0.381631,-0.046681,-0.053645,0.381631,-0.481009,-0.565604,0.235277,2.561982,-1.253909,-12.898021
1790549112.5227,-0.038927,-0.045666,0.411185,-0.041253,-0.048060,0.411185,-0.710482,-0.608099,0.178212,3.290214,-1.700068,-6.765853
1790549112.5367,-0.029420,-0.030186,0.423365,-0.032970,-0.035548,0.423365,-1.174284,-0.923776,0.226778,2.408670,0.382011,-6.455364
1790549112.5508,-0.016392,-0.009022,0.436788,-0.021365,-0.016980,0.436788,-1.560381,-1.210313,0.246204,2.332014,0.567911,-5.679140
1790549112.5649,0.001605,0.013914,0.449339,-0.005286,0.004646,0.449339,-1.713363,-1.549059,0.242562,2.293686,0.419191,-6.494175
1790549112.5788,-0.003824,0.030297,0.451467,-0.004262,0.022602,0.451467,-1.239848,0.227231,-0.058545,2.638638,0.828171,-8.939280
1790549112.5927,-0.030617,0.013599,0.449420,-0.022711,0.016300,0.449420,0.973533,1.970739,-0.708111,2.600310,-2.555208,-10.685784
1790549112.6067,-0.019605,0.010967,0.431205,-0.020536,0.012567,0.431205,0.333680,-0.377412,-1.282401,-2.420655,2.873071,-9.521448
1790549112.6206,-0.018774,0.017943,0.387384,-0.019303,0.016330,0.387384,0.001005,-0.110301,-1.113635,1.182175,2.315371,-1.681588
1790549112.6347,-0.024663,0.017290,0.374407,-0.023055,0.017002,0.374407,0.214694,0.442134,-0.728752,1.795423,2.984611,-7.658511
1790549112.6486,-0.017877,0.006249,0.364520,-0.019430,0.009475,0.364520,0.780485,-0.161295,-0.795530,-2.688951,1.014071,-11.073895
1790549112.6626,-0.000831,0.000932,0.348434,-0.006411,0.003494,0.348434,0.572866,-0.852141,-0.850166,-2.957247,3.542311,-7.969000
1790549112.6764,-0.003432,-0.002203,0.339099,-0.004326,-0.000494,0.339099,0.434454,0.266083,-0.760319,0.837223,3.728211,-8.124245
1790549112.6902,0.001339,-0.006145,0.323214,-0.000360,-0.004450,0.323214,0.355535,-0.082375,-0.636477,-1.999048,2.092291,-9.016902
1790549112.7041,0.008166,-0.012195,0.310919,0.005608,-0.009872,0.310919,0.470878,-0.212288,-0.448285,-2.727279,1.720491,-8.900469
1790549112.7182,0.006349,-0.014845,0.312880,0.006126,-0.013353,0.312880,0.308183,0.133742,-0.080400,0.300631,3.170511,-9.521448
1790549112.7326,0.008577,-0.019142,0.311959,0.007842,-0.017405,0.311959,0.384674,-0.090874,0.164857,-1.385800,3.356411,-11.694875
1790549112.7467,0.002934,-0.018753,0.314223,0.004406,-0.018348,0.314223,0.045929,0.414209,0.385831,-1.079176,3.988471,-14.877392
1790549112.7606,-0.000332,-0.014208,0.314333,0.001090,-0.015450,0.314333,-0.331670,0.360787,0.730647,-3.877119,2.129471,-12.277042
1790549112.7747,-0.009796,-0.008457,0.318415,-0.006530,-0.010555,0.318415,-0.439728,0.720173,0.968619,-2.229015,1.385871,-9.172147
1790549112.7888,-0.020469,-0.002656,0.321849,-0.016287,-0.005026,0.321849,-0.524718,0.748098,0.962548,-0.887536,0.270471,-6.067252
1790549112.8028,-0.025195,0.002925,0.333880,-0.022522,0.000540,0.333880,-0.406946,0.297651,1.065750,-1.079176,1.757671,-7.619700
1790549112.8167,-0.017884,-0.006778,0.349026,-0.019275,-0.004583,0.349026,0.568010,-0.717372,1.268512,0.262303,0.790991,-12.665154
1790549112.8307,-0.029918,-0.010590,0.395375,-0.026725,-0.008788,0.395375,0.316682,0.480987,1.728672,2.753622,3.951291,-11.500819
1790549112.8457,-0.035440,-0.017488,0.409329,-0.032826,-0.014878,0.409329,0.266902,0.314649,1.737171,-2.803935,-0.026969,-11.073895
1790549112.8610,-0.032608,-0.022949,0.425033,-0.032674,-0.020528,0.425033,0.202553,-0.300921,1.524696,-1.002520,0.456371,-9.909560
1790549112.8758,-0.037438,-0.027473,0.436956,-0.036009,-0.025389,0.436956,0.211052,0.192021,0.944336,0.568927,0.530731,-7.231588
1790549112.8905,-0.050438,-0.034510,0.452601,-0.046110,-0.031774,0.452601,0.387102,0.703175,0.843562,1.795423,0.567911,-9.133336
1790549112.9054,-0.056999,-0.042474,0.471399,-0.053732,-0.039264,0.471399,0.572866,0.345003,0.746431,0.760567,2.278191,-8.357112
1790549112.9194,-0.061660,-0.051023,0.486852,-0.059282,-0.047495,0.486852,0.589864,0.210233,0.753716,1.373815,1.571771,-9.366203
1790549112.9332,-0.057411,-0.057748,0.487140,-0.057972,-0.054672,0.487140,0.364034,-0.229286,0.623803,-1.462456,0.121751,-11.423196
1790549112.9474,-0.049292,-0.055587,0.493789,-0.051896,-0.055313,0.493789,-0.279462,-0.655450,0.493889,1.910407,-0.324409,-16.158161
1790549112.9615,-0.042352,-0.050282,0.505365,-0.045215,-0.051792,0.505365,-0.573284,-0.634810,0.391901,2.561982,-1.774428,-11.888930
1790549112.9759,-0.033581,-0.043930,0.525216,-0.037071,-0.046289,0.525216,-0.666773,-0.815717,0.300841,2.446998,-1.662888,-7.348021
1790549112.9906,-0.025766,-0.032024,0.549353,-0.029158,-0.036304,0.549353,-0.882890,-0.824216,0.463536,2.715294,0.307651,-6.067252
1790549113.0052,-0.013374,-0.013945,0.560825,-0.018109,-0.020652,0.560825,-1.318767,-1.019693,0.385831,1.757095,0.493551,-8.357112
1790549113.0193,-0.000924,0.006568,0.575751,-0.006080,-0.001598,0.575751,-1.619874,-1.133822,0.168499,3.750150,-0.956469,-9.987182
1790549113.0335,0.011242,0.025512,0.579077,0.006045,0.017379,0.579077,-1.468107,-0.950487,-0.194529,1.833751,-0.138509,-9.948371
1790549113.0477,-0.003541,0.020690,0.570658,-0.000665,0.019697,0.570658,0.254761,1.086844,-0.566057,2.561982,0.456371,-18.137532
1790549113.0618,-0.001845,0.013652,0.557659,-0.001491,0.015465,0.557659,0.656642,0.274582,-0.788245,-5.908502,5.810290,-14.256413
1790549113.0758,0.003267,0.014638,0.548107,0.001840,0.014886,0.548107,0.220765,-0.179507,-0.711754,-0.619240,4.434631,-6.416553
1790549113.0900,-0.013458,0.010215,0.546441,-0.008869,0.011616,0.546441,0.360391,1.011567,-0.568485,3.520182,1.497411,-6.649420
1790549113.1041,-0.000415,0.006215,0.534938,-0.002951,0.007835,0.534938,0.317896,-0.710087,-0.669259,-1.577440,2.017931,-10.491728
1790549113.1181,-0.001050,0.001165,0.525248,-0.001620,0.003166,0.525248,0.436882,0.122815,-0.736037,0.798895,2.055111,-8.163056
1790549113.1318,0.001365,-0.000737,0.511718,0.000469,0.000434,0.511718,0.320325,-0.009527,-0.695970,-0.465928,3.170511,-7.386832
1790549113.1455,0.007315,-0.004028,0.498820,0.005261,-0.002690,0.498820,0.316682,-0.215931,-0.490780,-1.769080,2.278191,-8.667602
1790549113.1591,0.012090,-0.011569,0.492353,0.010041,-0.008905,0.492353,0.614147,-0.222002,-0.199386,-1.385800,2.426911,-10.025993
1790549113.1731,0.019625,-0.020504,0.491234,0.016750,-0.017024,0.491234,0.714921,-0.469687,0.077439,-1.385800,2.835891,-10.763406
1790549113.1871,0.019061,-0.024174,0.500013,0.018368,-0.022029,0.500013,0.524301,0.064536,0.181855,-0.734224,5.289771,-8.551168
1790549113.2010,0.009683,-0.026062,0.502064,0.012289,-0.024852,0.502064,0.229264,0.680106,0.320267,-0.810880,4.471811,-15.343126
1790549113.2149,0.004110,-0.023728,0.496741,0.006564,-0.024065,0.496741,-0.127694,0.513768,0.611661,-3.340527,2.761531,-12.160609
1790549113.2291,-0.004094,-0.018313,0.495123,-0.000897,-0.020039,0.495123,-0.420302,0.641253,0.899413,-2.573967,1.274331,-10.258860
1790549113.2435,-0.014213,-0.016187,0.496907,-0.010218,-0.017342,0.496907,-0.301316,0.695890,1.121601,-1.500784,-0.287229,-8.240679
1790549113.2575,-0.021152,-0.004713,0.530837,-0.017872,-0.008502,0.530837,-0.632777,0.620613,1.081534,-1.577440,1.757671,-2.962357
1790549113.2715,-0.029699,0.004276,0.557921,-0.026151,0.000443,0.557921,-0.510149,0.493128,1.131314,-0.274288,2.910251,-6.028441
1790549113.2855,-0.035070,-0.005047,0.558783,-0.032395,-0.003400,0.558783,0.440525,0.260013,1.479773,-1.807408,-0.956469,-19.961658
1790549113.2994,-0.043586,-0.010108,0.579861,-0.040228,-0.008095,0.579861,0.253547,0.365643,1.578118,0.798895,1.311511,-9.599070
1790549113.3134,-0.046165,-0.014802,0.593575,-0.044384,-0.012790,0.593575,0.152773,0.005043,1.710460,-0.350944,0.679451,-11.423196
1790549113.3273,-0.047693,-0.024636,0.599995,-0.046700,-0.021082,0.599995,0.549798,0.013542,1.159239,-0.197632,0.344831,-9.443825
1790549113.3414,-0.058288,-0.030692,0.618807,-0.054812,-0.027809,0.618807,0.379818,0.570833,0.850847,1.718767,1.162791,-8.473546
1790549113.3552,-0.075012,-0.037578,0.639526,-0.068952,-0.034647,0.639526,0.461165,1.007924,0.713649,2.638638,1.385871,-9.560259
1790549113.3689,-0.082064,-0.046923,0.651378,-0.078130,-0.043241,0.651378,0.678497,0.446991,0.677225,0.760567,1.571771,-7.774944
1790549113.3826,-0.085373,-0.058007,0.655467,-0.083200,-0.053577,0.655467,0.735561,0.211447,0.546097,0.798895,0.939711,-11.073895
1790549113.3966,-0.082382,-0.064628,0.655000,-0.082627,-0.061313,0.655000,0.394387,-0.188006,0.459893,0.032335,0.753811,-12.393476
1790549113.4106,-0.069376,-0.063795,0.653242,-0.073351,-0.063051,0.653242,-0.160476,-0.915277,0.291128,0.453943,0.084571,-14.838581
1790549113.4246,-0.064267,-0.061373,0.665283,-0.066993,-0.061877,0.665283,-0.355952,-0.530394,0.186711,3.558510,-1.923148,-11.073895
1790549113.4385,-0.055550,-0.055131,0.691566,-0.058983,-0.057155,0.691566,-0.621850,-0.906778,0.126004,4.248414,-1.476988,-7.891378
1790549113.4525,-0.046168,-0.041544,0.712544,-0.050012,-0.046227,0.712544,-1.069868,-0.954129,0.246204,3.635166,-0.101329,-7.231588
1790549113.4664,-0.024654,-0.020850,0.717768,-0.032262,-0.028463,0.717768,-1.621089,-1.627978,0.155144,0.875551,-0.250049,-6.959909
1790549113.4805,-0.011019,0.005252,0.735042,-0.017392,-0.004862,0.735042,-1.937980,-1.323229,0.085938,3.098574,0.158931,-4.825294
1790549113.4956,0.006139,0.035441,0.744706,-0.000920,0.023350,0.744706,-2.116458,-1.393649,-0.024549,3.136902,-0.026969,-6.843476
1790549113.5100,-0.017103,0.032394,0.732749,-0.012248,0.029681,0.732749,0.122420,1.741266,-0.719039,2.523654,-0.138509,-21.281238
1790549113.5243,-0.001706,0.025708,0.712178,-0.004869,0.026900,0.712178,0.440525,-0.702802,-1.286043,-4.413711,1.534591,-21.281238
1790549113.5383,-0.003911,0.037382,0.664731,-0.004198,0.034238,0.664731,-0.393591,0.132528,-1.515516,2.868606,3.914111,-2.496623
1790549113.5527,-0.010645,0.046127,0.646269,-0.008711,0.042560,0.646269,-0.131336,0.535623,-1.174342,0.760567,2.017931,-1.177042
1790549113.5666,-0.004274,0.040530,0.621225,-0.005605,0.041139,0.621225,0.340965,-0.030167,-1.075996,-2.037376,0.233291,-6.688231
1790549113.5809,0.007967,0.037484,0.597678,0.003896,0.038580,0.597678,0.429597,-0.544963,-0.878091,-1.692424,3.914111,-6.765853
1790549113.5947,0.005265,0.033795,0.579009,0.004854,0.035231,0.579009,0.427169,0.444562,-0.991006,-0.465928,3.616671,-8.240679
1790549113.6086,0.007335,0.032056,0.560359,0.006590,0.033009,0.560359,0.308183,0.125243,-0.737251,-1.539112,3.802571,-7.658511
1790549113.6229,0.007281,0.030481,0.546701,0.007074,0.031239,0.546701,0.260832,0.207805,-0.519919,-1.155832,3.393591,-7.619700
1790549113.6368,0.004611,0.029090,0.541879,0.005350,0.029735,0.541879,0.197696,0.262441,-0.036691,-0.580912,2.873071,-8.046623
1790549113.6509,0.004449,0.026870,0.533312,0.004719,0.027729,0.533312,0.231692,0.130100,0.244990,-2.727279,3.802571,-11.500819
1790549113.6653,0.001063,0.018887,0.531645,0.002160,0.021540,0.531645,0.610505,0.262441,0.485390,-2.152360,4.248731,-14.217602
1790549113.6794,-0.003415,0.013343,0.534069,-0.001743,0.015802,0.534069,0.430812,0.296437,0.758572,-1.960720,3.951291,-14.217602
1790549113.6935,-0.009091,0.015769,0.537964,-0.006887,0.015779,0.537964,-0.149548,0.489486,1.034183,-3.838791,2.649991,-9.327392
1790549113.7078,-0.017268,0.016880,0.541076,-0.014154,0.016550,0.541076,-0.142263,0.530766,1.226017,-1.654096,1.237151,-7.852567
1790549113.7218,-0.021369,0.014702,0.547000,-0.019204,0.015257,0.547000,0.039858,0.198092,1.328005,-1.079176,0.679451,-7.153965
1790549113.7359,-0.020356,0.005133,0.569366,-0.020011,0.008170,0.569366,0.543727,-0.361628,1.665536,0.377287,0.605091,-7.153965
1790549113.7500,-0.034621,-0.006211,0.618552,-0.030238,-0.001897,0.618552,0.752559,0.569619,1.925363,2.370342,1.832031,-8.667602
1790549113.7640,-0.045087,-0.017481,0.640736,-0.040632,-0.012806,0.640736,0.598363,0.487057,1.865870,0.530599,0.084571,-10.103616
1790549113.7782,-0.045141,-0.027463,0.653650,-0.043788,-0.023066,0.653650,0.493947,-0.026525,1.629112,-2.918919,-0.175689,-12.277042
1790549113.7922,-0.051993,-0.034421,0.660848,-0.049532,-0.031015,0.660848,0.331252,0.456704,1.211447,-1.040848,0.084571,-9.831937
1790549113.8061,-0.065234,-0.041680,0.673973,-0.060523,-0.038480,0.673973,0.391959,0.810019,1.079106,1.067191,0.456371,-9.521448
1790549113.8197,-0.072994,-0.049991,0.687885,-0.069253,-0.046537,0.687885,0.586222,0.499199,0.971047,0.338959,1.423051,-7.037532
1790549113.8333,-0.078305,-0.059312,0.707548,-0.075590,-0.055480,0.707548,0.700351,0.283081,0.801067,1.182175,2.203831,-8.861658
1790549113.8470,-0.080077,-0.069555,0.718701,-0.078731,-0.065333,0.718701,0.691852,0.054823,0.719720,1.220503,1.237151,-10.530539
1790549113.8609,-0.073783,-0.072599,0.728014,-0.075268,-0.070419,0.728014,0.073854,-0.524323,0.621374,2.025391,-0.510309,-16.002917
1790549113.8750,-0.067836,-0.070806,0.741184,-0.070066,-0.070690,0.741184,-0.279462,-0.536464,0.439253,2.830278,-1.179549,-13.984735
1790549113.8890,-0.058055,-0.065672,0.758327,-0.061658,-0.067178,0.758327,-0.536860,-0.835143,0.350621,2.638638,-1.439808,-10.841028
1790549113.9028,-0.050309,-0.053453,0.808130,-0.053714,-0.057571,0.808130,-1.007947,-0.926204,0.498746,3.903462,-0.287229,-6.494175
1790549113.9169,-0.036561,-0.032730,0.831689,-0.041707,-0.040182,0.831689,-1.545812,-1.215170,0.509673,2.217030,0.530731,-6.571797
1790549113.9310,-0.013868,-0.006168,0.841432,-0.022220,-0.016372,0.841432,-2.004757,-1.693542,0.361548,0.338959,0.084571,-5.679140
1790549113.9449,-0.000715,0.022956,0.868309,-0.007167,0.011157,0.868309,-2.229374,-1.264950,0.242562,2.600310,-0.101329,-5.640329
1790549113.9588,-0.004357,0.042352,0.869496,-0.005200,0.032994,0.869496,-1.460822,0.249085,-0.062188,0.530599,0.567911,-7.192776
1790549113.9729,-0.024036,0.029007,0.859643,-0.018385,0.030203,0.859643,0.869117,1.526363,-0.732394,2.332014,-0.212869,-18.021098
1790549113.9871,-0.002922,0.023970,0.830483,-0.007561,0.025840,0.830483,0.593507,-1.096184,-1.547084,-2.037376,6.256450,-11.539630
1790549114.0017,-0.005716,0.031245,0.818688,-0.006270,0.029623,0.818688,-0.047560,0.247871,-1.046857,2.025391,6.553890,-4.165504
1790549114.0159,-0.006978,0.030634,0.790721,-0.006765,0.030331,0.790721,0.016789,0.456704,-0.778532,-2.918919,0.902531,-9.443825
1790549114.0299,0.002048,0.025847,0.770479,-0.000596,0.027192,0.770479,0.388317,-0.351915,-0.789459,-2.075704,2.203831,-9.521448
1790549114.0439,0.006736,0.026381,0.754908,0.004536,0.026624,0.754908,0.136989,-0.081161,-0.915730,-0.925864,3.430771,-7.270399
1790549114.0575,0.006891,0.027840,0.739863,0.006184,0.027476,0.739863,0.061712,0.240587,-0.910873,-0.887536,3.616671,-7.969000
1790549114.0712,0.005715,0.028741,0.721759,0.005856,0.028361,0.721759,0.050785,0.365643,-0.621907,-2.114032,3.356411,-8.978091
1790549114.0852,0.009581,0.024568,0.706004,0.008463,0.025706,0.706004,0.337323,-0.042309,-0.323228,-2.688951,2.575631,-10.181238
1790549114.0991,0.004899,0.023424,0.710336,0.005969,0.024108,0.710336,0.280258,0.442134,0.073796,-1.270816,3.728211,-6.727042
1790549114.1130,-0.000317,0.026445,0.716656,0.001569,0.025744,0.716656,-0.014779,0.456704,0.308126,-1.730752,4.471811,-7.619700
1790549114.1270,-0.004317,0.025885,0.714311,-0.002551,0.025842,0.714311,0.126062,0.357144,0.435611,-2.765607,4.917971,-13.402567
1790549114.1411,0.002608,0.009014,0.716147,0.001060,0.014063,0.716147,1.196935,-0.513396,0.659013,-1.807408,2.947431,-13.751868
1790549114.1552,-0.003633,0.008151,0.741073,-0.002225,0.009924,0.741073,0.248690,0.348645,1.013542,-1.155832,5.103871,-9.016902
1790549114.1695,-0.011719,0.014265,0.747372,-0.008871,0.012963,0.747372,-0.308601,0.615756,1.172595,-2.650623,3.282051,-6.532986
1790549114.1839,-0.018140,0.014444,0.741938,-0.015360,0.013999,0.741938,-0.122837,0.427564,1.258799,-2.382327,0.976891,-9.754315
1790549114.1979,-0.017401,0.005393,0.746028,-0.016789,0.007975,0.746028,0.466022,-0.190434,1.366857,-0.887536,-0.101329,-10.297672
1790549114.2118,-0.021849,-0.002566,0.766205,-0.020331,0.000596,0.766205,0.474521,0.064536,1.591474,0.415615,1.051251,-8.512357
1790549114.2259,-0.030746,-0.014770,0.780252,-0.027622,-0.010160,0.780252,0.685781,0.423922,1.578118,0.300631,-0.138509,-10.918651
1790549114.2403,-0.032010,-0.023302,0.785517,-0.030694,-0.019359,0.785517,0.427169,0.035396,1.360787,-1.462456,0.121751,-9.560259
1790549114.2546,-0.037214,-0.028915,0.782662,-0.035258,-0.026048,0.782662,0.263260,0.406924,0.751287,-1.500784,0.047391,-10.103616
1790549114.2687,-0.048074,-0.036429,0.788088,-0.044229,-0.033315,0.788088,0.441739,0.684963,0.593449,1.182175,0.382011,-11.462007
1790549114.2822,-0.057767,-0.046111,0.792916,-0.053706,-0.042272,0.792916,0.637216,0.646110,0.548526,0.913879,0.493551,-9.133336
1790549114.2958,-0.067789,-0.055018,0.796265,-0.063564,-0.051195,0.796265,0.620218,0.725029,0.508459,0.338959,1.088431,-9.443825
1790549114.3098,-0.069217,-0.062110,0.796314,-0.067521,-0.058836,0.796314,0.473307,0.138599,0.334837,-0.120976,1.162791,-11.772497
1790549114.3238,-0.063808,-0.066796,0.800400,-0.064922,-0.064408,0.800400,0.296042,-0.405337,0.360334,0.875551,1.274331,-13.829490
1790549114.3378,-0.051461,-0.064963,0.808795,-0.055499,-0.064796,0.808795,-0.281890,-0.978412,0.275344,2.446998,-1.439808,-13.363756
1790549114.3516,-0.048498,-0.061185,0.833941,-0.050598,-0.062268,0.833941,-0.449441,-0.425978,0.309340,3.865134,-1.997508,-10.879840
1790549114.3655,-0.040982,-0.051632,0.877104,-0.043867,-0.054823,0.877104,-0.847680,-0.866711,0.276558,4.056774,-1.291089,-7.309210
1790549114.3795,-0.025066,-0.032107,0.899721,-0.030707,-0.038922,0.899721,-1.488747,-1.369366,0.268059,2.332014,-0.064149,-6.338930
1790549114.3934,-0.005844,-0.009130,0.918154,-0.013303,-0.018067,0.918154,-1.771642,-1.607338,0.160000,2.025391,-0.101329,-6.338930
1790549114.4073,0.006937,0.019187,0.951958,0.000865,0.008011,0.951958,-2.109174,-1.291661,0.105364,2.868606,0.233291,-4.592427
1790549114.4213,0.005146,0.036569,0.954893,0.003862,0.028002,0.954893,-1.403757,0.056037,-0.175103,2.561982,-1.179549,-13.402567
1790549114.4353,-0.019449,0.023670,0.940315,-0.012456,0.024969,0.940315,0.921325,1.929458,-0.573342,-0.044320,2.873071,-21.281238
1790549114.4492,0.012495,0.015702,0.913091,0.005009,0.018482,0.913091,0.674854,-1.794316,-1.613861,-8.936412,6.256450,-21.281238
1790549114.4633,0.003836,0.013119,0.910474,0.004188,0.014728,0.910474,0.248690,0.579332,-1.413528,4.938317,2.203831,-8.784035
1790549114.4772,0.004821,0.018619,0.885681,0.004631,0.017452,0.885681,-0.148334,0.319506,-1.182841,-1.730752,3.356411,-5.407462
1790549114.4914,0.011177,0.012111,0.870250,0.009213,0.013713,0.870250,0.388317,-0.249927,-0.879305,-0.465928,0.307651,-8.512357
1790549114.5058,0.013729,0.007392,0.853944,0.012374,0.009288,0.853944,0.490305,0.114316,-0.818598,-2.037376,3.467951,-7.580888
1790549114.5195,0.017114,0.004421,0.840016,0.015692,0.005881,0.840016,0.322753,-0.004670,-0.779746,-1.577440,2.947431,-8.784035
1790549114.5332,0.019505,0.004614,0.831429,0.018361,0.004994,0.831429,0.147917,0.041467,-0.517491,-1.845736,3.728211,-8.240679
1790549114.5472,0.015887,0.004157,0.830278,0.016629,0.004408,0.830278,0.175842,0.348645,-0.207885,-0.695896,3.505131,-8.434735
1790549114.5613,0.014235,0.005343,0.829927,0.014953,0.005063,0.829927,0.088424,0.233302,0.051942,-1.692424,3.951291,-8.007811
1790549114.5754,0.012150,0.002771,0.829316,0.012991,0.003458,0.829316,0.253547,0.210233,0.385831,-2.229015,3.579491,-11.733686
1790549114.5894,0.004222,-0.004487,0.832089,0.006853,-0.002104,0.832089,0.558297,0.573261,0.697865,-2.229015,3.616671,-14.411658
1790549114.6034,0.004219,-0.006569,0.834253,0.005009,-0.005229,0.834253,0.153987,0.030540,0.923696,-3.915447,3.282051,-15.420749
1790549114.6172,0.002066,-0.003438,0.843331,0.002949,-0.003975,0.843331,-0.212684,0.114316,1.209019,-1.884064,2.203831,-9.172147
1790549114.6312,-0.009451,0.001400,0.864694,-0.005731,-0.000213,0.864694,-0.317100,0.610900,1.303722,0.300631,1.757671,-6.610609
1790549114.6451,-0.013818,0.002307,0.872991,-0.011392,0.001551,0.872991,-0.185973,0.193235,1.467631,-0.619240,0.344831,-4.902916
1790549114.6591,-0.009089,-0.006089,0.891869,-0.009780,-0.003797,0.891869,0.445381,-0.588673,1.649753,0.108991,0.121751,-6.959909
1790549114.6732,-0.020595,-0.014810,0.927244,-0.017350,-0.011506,0.927244,0.587436,0.454276,1.935076,1.833751,2.241011,-10.763406
1790549114.6873,-0.026160,-0.021792,0.949241,-0.023517,-0.018706,0.949241,0.333680,0.150740,1.982428,0.032335,0.567911,-14.566903
1790549114.7013,-0.019613,-0.026478,0.965423,-0.020784,-0.024146,0.965423,0.184341,-0.594743,1.851300,-1.539112,0.567911,-10.025993
1790549114.7153,-0.025634,-0.029825,0.968777,-0.024179,-0.028121,0.968777,0.067783,0.427564,1.202948,-1.730752,-0.398769,-9.210958
1790549114.7292,-0.039259,-0.036214,0.978923,-0.034735,-0.033787,0.978923,0.303327,0.840373,1.019613,0.760567,-0.324409,-7.697322
1790549114.7429,-0.045116,-0.041840,0.999544,-0.042002,-0.039424,0.999544,0.456309,0.287938,0.845991,0.875551,2.017931,-7.153965
1790549114.7570,-0.054984,-0.049928,1.033146,-0.051089,-0.046776,1.033146,0.632359,0.439706,0.786498,2.446998,1.943571,-6.727042
1790549114.7710,-0.062839,-0.060075,1.038184,-0.059314,-0.056085,1.038184,0.717349,0.551407,0.533956,0.262303,1.943571,-12.354665
1790549114.7850,-0.062518,-0.063365,1.041644,-0.061557,-0.061181,1.041644,0.151559,-0.042309,0.499960,0.837223,0.716631,-18.448022
1790549114.7991,-0.053393,-0.056234,1.046335,-0.055842,-0.057718,1.046335,-0.593924,-0.693089,0.378546,1.412143,0.419191,-16.391028
1790549114.8130,-0.049981,-0.050198,1.068467,-0.051739,-0.052454,1.068467,-0.647347,-0.495184,0.393116,2.830278,-1.514168,-6.765853
1790549114.8269,-0.041403,-0.038552,1.095277,-0.044504,-0.042723,1.095277,-0.950882,-0.929846,0.278986,2.102047,-0.175689,-3.893825
1790549114.8409,-0.028892,-0.019982,1.120571,-0.033576,-0.026804,1.120571,-1.289628,-1.187245,0.348192,1.718767,0.939711,-3.622147
1790549114.8551,-0.004759,0.005346,1.133194,-0.013404,-0.004299,1.133194,-1.822636,-1.834382,0.288699,1.143847,1.051251,-7.736133
1790549114.8693,0.004488,0.030438,1.149326,-0.000880,0.020017,1.149326,-1.845705,-0.909206,-0.009980,3.941790,0.567911,-8.861658
1790549114.8831,-0.020890,0.019813,1.139443,-0.014887,0.019874,1.139443,0.619004,1.906389,-0.557558,3.060246,-2.369308,-19.767602
1790549114.8971,0.002237,0.018215,1.102247,-0.002900,0.018713,1.102247,0.218337,-1.136251,-1.278758,-5.831846,3.505131,-11.267951
1790549114.9111,0.011901,0.025640,1.088975,0.007461,0.023562,1.088975,-0.257607,-0.497612,-1.313968,0.568927,5.141051,-7.386832
1790549114.9256,0.003408,0.032860,1.087339,0.004624,0.030070,1.087339,-0.153191,0.569619,-0.927871,1.412143,2.910251,-2.690678
1790549114.9406,0.012962,0.027163,1.060908,0.010460,0.028036,1.060908,0.339751,-0.314276,-0.887804,-2.612295,0.976891,-10.530539
1790549114.9553,0.024799,0.024717,1.040761,0.020497,0.025713,1.040761,0.314254,-0.526751,-0.969152,-1.615768,3.876931,-8.357112
1790549114.9696,0.021594,0.023682,1.026524,0.021265,0.024291,1.026524,0.180698,0.423922,-0.926657,-0.312616,3.505131,-9.366203
1790549114.9842,0.019896,0.025737,1.005524,0.020307,0.025304,1.005524,0.001005,0.398425,-0.737251,-1.807408,3.393591,-7.386832
1790549114.9988,0.020043,0.024573,0.989506,0.020122,0.024792,0.989506,0.203767,0.222374,-0.427645,-2.037376,3.356411,-7.852567
1790549115.0135,0.020903,0.018112,0.980535,0.020669,0.020116,0.980535,0.503660,0.070607,-0.060974,-1.960720,3.096151,-10.336483
1790549115.0275,0.020006,0.012944,0.978334,0.020205,0.015096,0.978334,0.463593,0.134956,0.264416,-1.960720,3.765391,-10.724595
1790549115.0415,0.018417,0.011845,0.981059,0.018953,0.012820,0.981059,0.209838,0.150740,0.269273,-1.539112,4.732071,-11.345574
1790549115.0554,0.013354,0.003326,0.976738,0.015034,0.006174,0.976738,0.667569,0.439706,0.357905,-2.305671,3.356411,-12.277042
1790549115.0695,0.008998,0.000983,0.978973,0.010809,0.002540,0.978973,0.240191,0.332861,0.644443,-2.114032,3.691031,-11.694875
1790549115.0834,0.004299,0.006871,0.981099,0.006252,0.005572,0.981099,-0.377807,0.360787,0.975904,-2.612295,2.910251,-9.870749
1790549115.0972,-0.008925,0.015562,0.987994,-0.004372,0.012565,0.987994,-0.586639,0.902294,1.029326,-1.002520,2.203831,-7.348021
1790549115.1112,-0.009426,0.013101,0.987503,-0.007910,0.012940,0.987503,0.013147,-0.019240,1.097318,-1.615768,-0.101329,-10.375294
1790549115.1252,0.000294,0.006148,1.011380,-0.002167,0.008186,1.011380,0.542513,-0.897065,1.395997,-0.389272,2.203831,-6.727042
1790549115.1392,-0.014288,0.002494,1.064971,-0.010652,0.004202,1.064971,0.315468,0.562334,1.500413,3.635166,2.835891,-9.210958
1790549115.1532,-0.020610,-0.003424,1.073277,-0.017622,-0.001136,1.073277,0.289971,0.317077,1.354716,-0.657568,0.493551,-11.423196
1790549115.1670,-0.020809,-0.009718,1.078182,-0.019853,-0.007143,1.078182,0.356749,-0.053236,1.117958,-1.194160,1.088431,-11.966553
1790549115.1812,-0.024374,-0.013888,1.075844,-0.023018,-0.011865,1.075844,0.153987,0.246657,0.682081,-0.849208,-0.212869,-10.375294
1790549115.1952,-0.032589,-0.022337,1.084588,-0.029718,-0.019195,1.084588,0.509731,0.466417,0.614089,1.258831,0.344831,-10.646972
1790549115.2088,-0.047082,-0.029138,1.117927,-0.041873,-0.026155,1.117927,0.546155,0.774809,0.592235,2.523654,1.534591,-6.338930
1790549115.2225,-0.054657,-0.039205,1.120526,-0.050822,-0.035290,1.120526,0.737990,0.552621,0.521815,-0.082648,1.534591,-8.124245
1790549115.2365,-0.059500,-0.043032,1.127257,-0.056896,-0.040709,1.127257,0.387102,0.354716,0.308126,0.070663,3.430771,-9.754315
1790549115.2508,-0.047521,-0.046829,1.123378,-0.050333,-0.044993,1.123378,0.133347,-0.802362,0.275344,-0.465928,-0.882109,-18.215154
1790549115.2651,-0.035809,-0.041622,1.129637,-0.040166,-0.042633,1.129637,-0.449441,-0.895850,0.158786,2.140375,0.084571,-15.343126
1790549115.2790,-0.034888,-0.034513,1.154565,-0.036471,-0.036949,1.154565,-0.647347,-0.323990,0.209780,4.095102,-1.030829,-9.676693
1790549115.2929,-0.025796,-0.024286,1.171670,-0.028999,-0.028085,1.171670,-0.841609,-0.849713,0.230420,1.680439,-0.101329,-5.679140
1790549115.3068,-0.012060,-0.009860,1.187671,-0.017141,-0.015328,1.187671,-1.117220,-1.170247,0.219493,1.603783,0.233291,-6.261308
1790549115.3208,0.012763,0.009704,1.201213,0.003792,0.002195,1.201213,-1.469321,-1.933942,0.184283,1.258831,0.679451,-7.930189
1790549115.3347,0.024326,0.032744,1.229390,0.018166,0.023579,1.229390,-1.624731,-1.176317,0.377332,4.018446,2.278191,-9.133336
1790549115.3493,0.007563,0.024566,1.221965,0.010744,0.024270,1.221965,0.410171,1.205829,-0.326871,1.220503,-1.662888,-19.651168
1790549115.3633,0.009954,0.015745,1.203307,0.010191,0.018302,1.203307,0.815695,0.058465,-0.666831,-2.420655,7.371850,-14.528091
1790549115.3776,0.017888,0.011361,1.180471,0.015578,0.013444,1.180471,0.331252,-0.268139,-1.045643,-1.730752,1.980751,-10.258860
1790549115.3915,0.012324,0.005873,1.165395,0.013300,0.008144,1.165395,0.478163,0.584189,-1.077211,0.108991,1.683311,-5.795574
1790549115.4049,0.023516,-0.002339,1.149937,0.020452,0.000806,1.149937,0.639644,-0.622669,-0.686257,-1.270816,1.608951,-8.046623
1790549115.4189,0.032078,-0.009468,1.137257,0.028590,-0.006386,1.137257,0.662713,-0.422335,-0.763962,-1.002520,3.096151,-7.153965
1790549115.4326,0.034523,-0.018232,1.132166,0.032743,-0.014679,1.132166,0.776842,-0.092088,-0.729966,0.108991,2.947431,-7.542077
1790549115.4462,0.043157,-0.027155,1.117390,0.040033,-0.023412,1.117390,0.747703,-0.441761,-0.702041,-1.692424,2.947431,-9.637881
1790549115.4602,0.054590,-0.036413,1.101389,0.050223,-0.032512,1.101389,0.754988,-0.609313,-0.671687,-1.845736,2.464091,-7.774944
1790549115.4741,0.055057,-0.048643,1.103003,0.053607,-0.043804,1.103003,0.996602,-0.009527,-0.039119,-0.619240,2.873071,-9.172147
1790549115.4880,0.040734,-0.048679,1.105700,0.044596,-0.047216,1.105700,0.032573,1.005496,0.178212,-0.005993,2.910251,-18.370399
1790549115.5020,0.041697,-0.039051,1.082594,0.042567,-0.041500,1.082594,-0.709268,0.215090,0.288699,-8.821429,1.646131,-16.196973
1790549115.5165,0.034985,-0.028793,1.067522,0.037260,-0.032606,1.067522,-0.763904,0.657037,0.354263,-4.758662,0.642271,-12.238231
1790549115.5306,0.026977,-0.016947,1.058890,0.030062,-0.021645,1.058890,-0.834324,0.772381,0.496318,-1.232488,0.493551,-2.729490
1790549115.5446,0.016821,-0.005876,1.063137,0.020793,-0.010606,1.063137,-0.701983,0.779666,0.574023,-0.580912,0.865351,-2.690678
1790549115.5586,0.004182,0.003764,1.067470,0.009166,-0.000547,1.067470,-0.572070,1.001854,0.512101,-0.964192,1.348691,-3.428091
1790549115.5726,-0.015144,0.010682,1.059675,-0.007851,0.007313,1.059675,-0.557500,1.447444,0.592235,-2.343999,1.423051,-13.363756
1790549115.5866,-0.010958,0.005620,1.054829,-0.010026,0.006128,1.054829,0.190411,-0.167365,0.854490,-8.284837,-0.770569,-19.534735
1790549115.6007,-0.008960,0.002748,1.057878,-0.009279,0.003762,1.057878,0.061712,-0.118800,1.168952,-3.953775,0.307651,-12.548721
1790549115.6147,-0.015100,-0.000594,1.073199,-0.013354,0.000713,1.073199,0.010718,0.188378,1.063322,1.450471,-1.365448,-8.357112
1790549115.6287,-0.020530,-0.011727,1.074773,-0.018377,-0.007995,1.074773,0.559511,0.329219,0.920053,-0.580912,-1.439808,-8.628791
1790549115.6426,-0.037216,-0.023890,1.098998,-0.031565,-0.019121,1.098998,0.841192,0.930219,0.588592,3.136902,0.828171,-8.589979
1790549115.6654,-0.052431,-0.036180,1.114211,-0.046171,-0.031062,1.114211,0.543727,0.603615,0.567952,0.760567,2.464091,-11.267951
1790549115.6793,-0.055297,-0.041417,1.125323,-0.052559,-0.038311,1.125323,0.433240,0.250300,0.566738,-1.117504,2.835891,-9.909560
1790549115.6936,-0.055461,-0.046935,1.126985,-0.054590,-0.044348,1.126985,0.336109,0.051180,0.492675,-0.734224,1.125611,-10.530539
1790549115.7076,-0.051799,-0.051960,1.130252,-0.052636,-0.049676,1.130252,0.258403,-0.299707,0.515744,0.722239,0.344831,-14.217602
1790549115.7216,-0.035597,-0.048969,1.130717,-0.040709,-0.049181,1.130717,-0.291603,-1.143535,0.302055,-0.274288,0.605091,-13.402567
1790549115.7354,-0.032221,-0.040555,1.148800,-0.034767,-0.043143,1.148800,-0.723838,-0.470901,0.412542,3.865134,-0.584669,-11.423196
1790549115.7493,-0.026554,-0.027201,1.169448,-0.029018,-0.031983,1.169448,-1.041943,-0.655450,0.210994,2.945262,-0.064149,-7.309210
1790549115.7636,-0.017294,-0.007041,1.193959,-0.020811,-0.014523,1.193959,-1.454751,-0.922562,0.184283,3.021918,0.493551,-6.765853
1790549115.7778,0.001365,0.018206,1.218220,-0.005288,0.008387,1.218220,-1.862703,-1.610980,0.048299,1.872079,0.121751,-3.971448
1790549115.7918,0.022316,0.046647,1.269361,0.014035,0.035169,1.269361,-1.884557,-1.986150,0.098079,1.987063,1.162791,-2.108511
1790549115.8059,0.009002,0.041180,1.265574,0.010512,0.039377,1.265574,0.282686,0.936290,-0.213956,1.718767,0.270471,-13.247322
1790549115.8198,0.007144,0.024662,1.257378,0.008155,0.029076,1.257378,1.349917,0.304936,-0.335370,-3.378855,10.160350,-21.281238
1790549115.8339,0.027607,0.016325,1.238374,0.021772,0.020151,1.238374,0.668783,-1.152034,-1.394102,-2.037376,5.141051,-17.477742
1790549115.8478,0.023255,0.020404,1.242034,0.022810,0.020328,1.242034,-0.319528,0.185950,-1.148845,7.276324,1.534591,-12.121798
1790549115.8618,0.026003,0.019833,1.236677,0.025045,0.019982,1.236677,-0.017207,-0.155224,-0.634049,0.760567,0.567911,-6.843476
1790549115.8758,0.039804,0.020113,1.204164,0.035376,0.020074,1.204164,0.119991,-0.506111,-0.591554,-2.612295,1.683311,-3.117602
1790549115.8897,0.040845,0.017648,1.189774,0.039204,0.018375,1.189774,0.399244,0.236944,-0.847738,-1.730752,3.467951,-5.252217
1790549115.9032,0.036898,0.016275,1.180083,0.037590,0.016905,1.180083,0.315468,0.533195,-0.675330,-1.500784,3.988471,-6.649420
1790549115.9168,0.036294,0.017910,1.170357,0.036683,0.017608,1.170357,0.014361,0.247871,-0.516277,-1.615768,3.542311,-8.201867
1790549115.9308,0.030239,0.016408,1.162996,0.032172,0.016768,1.162996,0.178270,0.559906,-0.311087,-1.194160,3.319231,-10.724595
1790549115.9449,0.026814,0.012999,1.158764,0.028422,0.014130,1.158764,0.270545,0.315863,0.112649,-1.577440,2.649991,-11.578441
1790549115.9588,0.022225,0.015719,1.165404,0.024084,0.015242,1.165404,-0.022063,0.348645,0.328766,-1.117504,4.285911,-8.628791
1790549115.9728,0.016450,0.016698,1.159076,0.018740,0.016261,1.159076,-0.019635,0.524696,0.289913,-3.263871,3.839751,-13.519000
1790549115.9868,0.010100,0.017815,1.144740,0.012692,0.017349,1.144740,-0.104625,0.646110,0.317839,-4.298727,1.980751,-11.694875
1790549116.0008,0.008387,0.018964,1.139787,0.009679,0.018480,1.139787,-0.154405,0.171380,0.614089,-2.114032,0.976891,-9.870749
1790549116.0149,0.001881,0.023304,1.148063,0.004220,0.021857,1.148063,-0.283104,0.383855,0.765857,-0.465928,1.832031,-7.153965
1790549116.0293,0.001823,0.018109,1.161231,0.002542,0.019233,1.161231,0.252333,-0.213503,1.011114,0.568927,0.270471,-7.076343
1790549116.0434,-0.007301,0.009259,1.201027,-0.004348,0.012251,1.201027,0.660284,0.207805,1.431207,2.753622,2.203831,-8.163056
1790549116.0573,-0.023014,0.000493,1.230580,-0.017414,0.004020,1.230580,0.554654,0.748098,1.564763,2.791950,1.385871,-11.190329
1790549116.0712,-0.022238,-0.007563,1.242973,-0.020791,-0.004088,1.242973,0.461165,-0.184363,1.589045,-1.539112,1.199971,-11.733686
1790549116.0852,-0.025281,-0.014426,1.244645,-0.023934,-0.011325,1.244645,0.350678,0.211447,1.103389,-2.152360,0.270471,-11.850119
1790549116.0992,-0.036267,-0.021162,1.249989,-0.032567,-0.018211,1.249989,0.347036,0.706817,0.961334,-0.082648,0.084571,-9.676693
1790549116.1130,-0.048935,-0.029330,1.269337,-0.044024,-0.025995,1.269337,0.560725,0.703175,0.905483,1.718767,1.274331,-7.736133
1790549116.1266,-0.063245,-0.036297,1.296375,-0.057479,-0.033207,1.296375,0.559511,0.794235,0.906698,2.255358,2.166651,-7.153965
1790549116.1402,-0.069595,-0.044198,1.302531,-0.065960,-0.040901,1.302531,0.568010,0.449419,0.690580,0.032335,2.166651,-11.151518
1790549116.1542,-0.063785,-0.048942,1.308007,-0.064437,-0.046530,1.308007,0.224407,-0.450260,0.663869,0.453943,0.605091,-15.498371
1790549116.1682,-0.057072,-0.046843,1.312005,-0.059282,-0.046749,1.312005,-0.285532,-0.519466,0.532742,0.798895,-0.287229,-15.653616
1790549116.1823,-0.052213,-0.043610,1.324235,-0.054334,-0.044551,1.324235,-0.437300,-0.512182,0.527885,2.332014,-1.551348,-9.405014
1790549116.1963,-0.043655,-0.033847,1.354206,-0.046859,-0.037058,1.354206,-0.801543,-0.969913,0.408899,2.753622,-0.064149,-4.631238
1790549116.2102,-0.034612,-0.019205,1.382379,-0.038286,-0.024561,1.382379,-1.108721,-1.009980,0.489033,3.328542,0.567911,-5.912007
1790549116.2241,-0.016388,0.003189,1.398286,-0.022957,-0.005136,1.398286,-1.653870,-1.513849,0.436825,1.718767,1.311511,-7.930189
1790549116.2381,-0.000677,0.028920,1.424010,-0.007361,0.018703,1.424010,-1.933123,-1.525990,0.343336,4.286742,0.270471,-6.998721
1790549116.2522,0.006223,0.048548,1.438796,0.002148,0.039595,1.438796,-1.429254,-0.748939,0.133289,2.063719,0.828171,-5.252217
1790549116.2661,-0.025732,0.034809,1.433370,-0.017368,0.036245,1.433370,1.022099,2.302200,-0.246737,2.791950,3.207691,-14.605714
1790549116.2807,0.007967,0.026977,1.391586,0.000366,0.029757,1.391586,0.634787,-1.779746,-1.233835,-10.009596,5.475671,-16.662707
1790549116.2947,0.013368,0.024073,1.373702,0.009468,0.025778,1.373702,0.345822,-0.140654,-1.238691,-0.159304,3.244871,-8.124245
1790549116.3087,0.015181,0.022238,1.349679,0.013467,0.023300,1.349679,0.185555,0.207805,-0.959439,-2.765607,2.947431,-11.267951
1790549116.3227,0.022663,0.017456,1.334746,0.019904,0.019209,1.334746,0.330038,-0.322775,-0.772461,-1.155832,1.497411,-9.831937
1790549116.3366,0.033384,0.012807,1.320002,0.029340,0.014728,1.320002,0.463593,-0.527965,-0.771247,-1.884064,3.691031,-8.978091
1790549116.3502,0.033200,0.009015,1.308288,0.032042,0.010729,1.308288,0.390745,0.195663,-0.800386,-0.734224,3.430771,-9.210958
1790549116.3638,0.038373,0.007999,1.291409,0.036474,0.008818,1.291409,0.240191,-0.079947,-0.658332,-2.573967,3.691031,-7.348021
1790549116.3776,0.039256,0.004841,1.280630,0.038421,0.006034,1.280630,0.353107,0.133742,-0.473782,-1.884064,3.579491,-8.822846
1790549116.3917,0.038268,0.001285,1.271399,0.038314,0.002710,1.271399,0.355535,0.241801,-0.240667,-2.343999,3.653851,-10.025993
1790549116.4056,0.034851,0.000470,1.272284,0.035890,0.001142,1.272284,0.191626,0.300079,0.089580,-1.155832,3.728211,-9.327392
1790549116.4197,0.028164,-0.001030,1.276942,0.030482,-0.000378,1.276942,0.257189,0.496770,0.431968,-1.462456,4.248731,-9.793126
1790549116.4337,0.023762,-0.003096,1.266374,0.025778,-0.002281,1.266374,0.155201,0.485843,0.508459,-5.985158,2.984611,-15.149070
1790549116.4476,0.020827,0.000987,1.262574,0.022313,0.000007,1.262574,-0.268534,0.328005,0.723362,-5.141942,3.282051,-13.984735
1790549116.4615,0.016534,0.005452,1.264477,0.018268,0.003819,1.264477,-0.343811,0.312221,0.975904,-3.110559,2.092291,-13.247322
1790549116.4755,0.004452,0.008947,1.276560,0.008597,0.007408,1.276560,-0.292817,0.692247,1.073035,0.147319,0.679451,-5.407462
1790549116.4895,0.002436,0.006829,1.283753,0.004284,0.007003,1.283753,-0.037847,0.014756,1.308579,-0.504256,-0.398769,-4.941727
1790549116.5034,0.004238,-0.002211,1.299168,0.004252,0.000553,1.299168,0.531585,-0.328846,1.511340,-0.465928,0.382011,-9.948371
1790549116.5175,-0.011890,-0.009189,1.321606,-0.007048,-0.006266,1.321606,0.393173,0.857371,1.755383,1.028863,0.790991,-12.548721
1790549116.5321,-0.010858,-0.014994,1.338249,-0.009715,-0.012375,1.338249,0.259618,-0.207432,1.793021,-2.114032,0.493551,-12.354665
1790549116.5461,-0.010245,-0.022910,1.347498,-0.010086,-0.019750,1.347498,0.402886,-0.062949,1.442134,-2.535639,-0.250049,-9.831937
1790549116.5603,-0.023663,-0.029999,1.364299,-0.019590,-0.026924,1.364299,0.367676,0.734742,1.178665,1.105519,-0.138509,-7.270399
1790549116.5744,-0.034121,-0.039794,1.381918,-0.029761,-0.035933,1.381918,0.632359,0.557478,1.103389,1.105519,0.865351,-7.969000
1790549116.5883,-0.046328,-0.047690,1.410231,-0.041358,-0.044163,1.410231,0.642072,0.660680,1.024469,1.872079,2.835891,-8.434735
1790549116.6025,-0.052024,-0.057164,1.418284,-0.048824,-0.053263,1.418284,0.646929,0.400853,0.811995,-0.619240,1.794851,-10.220049
1790549116.6167,-0.053489,-0.062658,1.427990,-0.052089,-0.059840,1.427990,0.365248,0.064536,0.727005,0.338959,2.129471,-13.480189
1790549116.6308,-0.045452,-0.059694,1.434887,-0.047443,-0.059738,1.434887,-0.313457,-0.636024,0.503602,1.335487,0.047391,-14.334035
1790549116.6451,-0.038835,-0.053086,1.450339,-0.041418,-0.055081,1.450339,-0.606066,-0.645737,0.452608,3.213558,-1.030829,-11.617252
1790549116.6592,-0.032798,-0.045149,1.498830,-0.035384,-0.048129,1.498830,-0.778474,-0.867925,0.320267,4.440053,-1.885968,-5.096972
1790549116.6734,-0.020075,-0.030561,1.516300,-0.024668,-0.035831,1.516300,-1.073510,-1.110754,0.400400,1.488799,0.456371,-4.902916
1790549116.6875,-0.000240,-0.008076,1.535256,-0.007568,-0.016403,1.535256,-1.582236,-1.627978,0.486604,1.757095,1.571771,-7.153965
1790549116.7015,0.022911,0.018649,1.554035,0.013767,0.008133,1.554035,-2.021755,-1.910873,0.423469,1.757095,0.084571,-6.959909
1790549116.7158,0.006899,0.032202,1.558797,0.008959,0.024982,1.558797,-1.106292,0.994569,0.028873,4.171758,-1.476988,-16.934385
1790549116.7301,-0.002932,0.017378,1.541040,0.000635,0.019659,1.541040,0.991745,0.921720,-0.831954,-1.615768,1.348691,-21.281238
1790549116.7442,0.018768,0.014910,1.523326,0.013328,0.016335,1.523326,0.490305,-1.228525,-1.428098,-0.964192,5.141051,-6.261308
1790549116.7583,0.016492,0.018064,1.524078,0.015543,0.017545,1.524078,0.085995,0.130100,-1.109992,1.182175,2.129471,-2.341378
1790549116.7727,0.013041,0.016352,1.505385,0.013792,0.016710,1.505385,0.106636,0.478558,-0.851380,-0.695896,0.828171,-5.950818
1790549116.7869,0.026017,0.011149,1.491567,0.022349,0.012817,1.491567,0.417456,-0.714943,-0.873235,-1.117504,2.910251,-11.539630
1790549116.8010,0.025154,0.007974,1.480096,0.024313,0.009427,1.480096,0.342179,0.199306,-1.046857,0.607255,3.430771,-9.133336
1790549116.8146,0.020795,0.008045,1.469002,0.021851,0.008459,1.469002,0.146702,0.461560,-0.893875,0.223975,3.653851,-8.473546
1790549116.8282,0.024520,0.010482,1.443359,0.023719,0.009875,1.443359,-0.059702,0.102174,-0.744536,-3.225543,3.058971,-7.697322
1790549116.8422,0.025328,0.010165,1.426309,0.024845,0.010078,1.426309,0.140632,0.211447,-0.532061,-2.305671,3.058971,-7.736133
1790549116.8562,0.022104,0.008162,1.423306,0.022926,0.008737,1.423306,0.234121,0.298865,-0.051260,-0.810880,3.058971,-9.249770
1790549116.8701,0.017902,0.009189,1.424252,0.019409,0.009054,1.424252,0.045929,0.331647,0.195210,-0.964192,4.025651,-10.375294
1790549116.8840,0.018673,0.009024,1.418261,0.018894,0.009033,1.418261,0.135775,0.090033,0.149073,-3.033903,4.471811,-10.918651
1790549116.8979,0.021251,-0.002249,1.419418,0.020544,0.001136,1.419418,0.900685,-0.137012,0.459893,-2.497311,4.248731,-12.587532
1790549116.9117,0.015350,-0.006830,1.427323,0.016908,-0.004440,1.427323,0.415028,0.381427,0.801067,-1.232488,3.579491,-11.462007
1790549116.9256,0.012700,0.000883,1.437256,0.013963,-0.000714,1.437256,-0.403304,0.187164,1.111888,-2.573967,4.397451,-9.055714
1790549116.9395,0.004447,0.006015,1.452834,0.007302,0.003996,1.452834,-0.290389,0.457918,1.348645,-1.002520,3.356411,-9.560259
1790549116.9535,-0.003502,0.000349,1.477622,-0.000261,0.001443,1.477622,0.298470,0.249085,1.499199,1.143847,0.307651,-7.774944
1790549116.9674,-0.008835,-0.006322,1.505946,-0.006263,-0.003993,1.505946,0.470878,0.068178,1.635183,0.798895,1.460231,-6.571797
1790549116.9817,-0.018300,-0.018850,1.533519,-0.014689,-0.014393,1.533519,0.740418,0.351073,1.848872,1.182175,0.344831,-10.879840
1790549116.9958,-0.026744,-0.027314,1.549412,-0.023127,-0.023438,1.549412,0.429597,0.448205,1.805163,-0.887536,0.010211,-10.802217
1790549117.0109,-0.027330,-0.030996,1.550711,-0.026069,-0.028729,1.550711,0.124848,0.090033,1.122815,-3.877119,0.530731,-14.450469
1790549117.0269,-0.039975,-0.037017,1.566243,-0.035803,-0.034530,1.566243,0.247476,0.636397,0.920053,1.642111,-0.324409,-11.500819
1790549117.0415,-0.046688,-0.044775,1.579877,-0.043422,-0.041702,1.579877,0.480591,0.332861,0.794997,0.952207,0.902531,-7.580888
1790549117.0557,-0.055428,-0.052795,1.598418,-0.051827,-0.049467,1.598418,0.577723,0.446991,0.769500,1.642111,1.646131,-7.619700
1790549117.0707,-0.060696,-0.062669,1.601703,-0.058035,-0.058708,1.601703,0.628717,0.359572,0.548526,-0.120976,1.274331,-10.142427
1790549117.0847,-0.057758,-0.068782,1.608974,-0.057841,-0.065760,1.608974,0.382246,-0.251141,0.565524,0.990535,1.311511,-15.032637
1790549117.0985,-0.047799,-0.064952,1.616202,-0.050812,-0.065194,1.616202,-0.391163,-0.781721,0.453823,1.373815,-0.287229,-14.411658
1790549117.1124,-0.039968,-0.060827,1.629926,-0.043221,-0.062137,1.629926,-0.474938,-0.710087,0.439253,2.638638,-1.737248,-11.772497
1790549117.1266,-0.028431,-0.052558,1.658527,-0.032868,-0.055431,1.658527,-0.803971,-1.141107,0.191568,3.136902,-1.588528,-5.368651
1790549117.1398,-0.016430,-0.038516,1.683374,-0.021361,-0.043591,1.683374,-1.068654,-1.235810,0.388259,2.523654,0.753811,-5.135783
1790549117.1529,0.001572,-0.019453,1.695120,-0.005308,-0.026694,1.695120,-1.464464,-1.515063,0.393116,0.913879,1.199971,-7.153965
1790549117.1660,0.020052,0.005670,1.712212,0.012444,-0.004040,1.712212,-1.953763,-1.642548,0.350621,2.217030,1.088431,-9.055714
1790549117.1800,0.006950,0.016520,1.716287,0.008598,0.010352,1.716287,-0.999448,0.847658,-0.069473,3.865134,-3.930868,-19.030189
1790549117.1940,-0.000354,0.004458,1.697055,0.002332,0.006226,1.697055,0.847262,0.783308,-0.748178,-3.187215,2.017931,-19.263056
1790549117.2080,0.021416,0.006433,1.664730,0.015691,0.006371,1.664730,-0.012350,-1.097398,-1.499732,-5.755190,5.698751,-15.498371
1790549117.2219,0.017159,0.011314,1.666680,0.016719,0.009832,1.666680,0.025288,0.138599,-1.250833,2.791950,3.356411,-2.030888
1790549117.2359,0.017816,0.010456,1.650281,0.017487,0.010268,1.650281,0.113921,0.159239,-0.870806,-0.542584,1.757671,-7.115154
1790549117.2498,0.026098,0.004023,1.636752,0.023515,0.005897,1.636752,0.433240,-0.410194,-0.763962,-0.964192,1.125611,-10.142427
1790549117.2637,0.032683,0.001163,1.618907,0.029933,0.002583,1.618907,0.343393,-0.245070,-0.770033,-1.730752,3.988471,-9.599070
1790549117.2774,0.030276,0.001382,1.609695,0.030173,0.001743,1.609695,0.083567,0.278225,-0.677758,0.108991,3.244871,-9.521448
1790549117.2915,0.034778,0.002974,1.587643,0.033397,0.002605,1.587643,0.056856,-0.025311,-0.502921,-2.803935,3.728211,-7.270399
1790549117.3056,0.030196,0.002291,1.577248,0.031156,0.002385,1.577248,0.146702,0.466417,-0.246737,-1.500784,3.282051,-9.482637
1790549117.3195,0.027358,0.002944,1.568541,0.028498,0.002777,1.568541,0.084781,0.347431,0.005804,-1.922392,3.430771,-8.357112
1790549117.3336,0.024584,0.002009,1.564318,0.025758,0.002239,1.564318,0.178270,0.284296,0.184283,-1.922392,3.914111,-10.569350
1790549117.3477,0.029348,-0.008471,1.562268,0.028271,-0.005258,1.562268,0.790198,-0.270567,0.463536,-3.033903,3.356411,-13.441378
1790549117.3617,0.021634,-0.013459,1.564968,0.023625,-0.010999,1.564968,0.396816,0.550193,0.723362,-2.343999,3.579491,-16.119350
1790549117.3756,0.017215,-0.004098,1.565726,0.019138,-0.006168,1.565726,-0.556286,0.428779,1.024469,-4.107087,3.728211,-9.055714
1790549117.3897,0.007876,0.001078,1.577831,0.011255,-0.001096,1.577831,-0.410589,0.521053,1.281868,-0.542584,1.125611,-9.133336
1790549117.4036,0.004810,-0.003692,1.590001,0.006743,-0.002913,1.590001,0.167343,0.070607,1.380213,-0.619240,-0.659029,-8.163056
1790549117.4176,0.004317,-0.006088,1.614104,0.005045,-0.005136,1.614104,0.259618,-0.175864,1.578118,-0.235960,2.092291,-5.601518
1790549117.4315,-0.002733,-0.012987,1.636109,-0.000400,-0.010632,1.636109,0.384674,0.249085,1.670393,0.453943,0.344831,-10.181238
1790549117.4455,-0.009658,-0.020796,1.656298,-0.006881,-0.017747,1.656298,0.416242,0.273368,1.618185,0.338959,-0.101329,-12.665154
1790549117.4596,-0.006490,-0.027903,1.668923,-0.006607,-0.024856,1.668923,0.368890,-0.297278,1.536837,-2.114032,0.084571,-11.850119
1790549117.4736,-0.011682,-0.031380,1.678229,-0.010159,-0.029423,1.678229,0.169771,0.311007,1.138599,-0.772552,0.605091,-8.861658
1790549117.4876,-0.021694,-0.038295,1.695763,-0.018233,-0.035633,1.695763,0.379818,0.521053,1.030540,1.450471,-0.026969,-9.482637
1790549117.5011,-0.033960,-0.048242,1.721260,-0.029242,-0.044459,1.721260,0.744060,0.633969,0.906698,2.523654,1.571771,-8.007811
1790549117.5149,-0.048351,-0.056920,1.735692,-0.042618,-0.053182,1.735692,0.657856,0.916864,0.810780,1.297159,2.055111,-9.016902
1790549117.5289,-0.053477,-0.064289,1.738109,-0.050219,-0.060957,1.738109,0.591078,0.426350,0.538813,-1.117504,3.096151,-10.996273
1790549117.5434,-0.049136,-0.067100,1.746309,-0.049461,-0.065257,1.746309,0.117563,-0.361628,0.498746,1.450471,0.493551,-15.110259
1790549117.5575,-0.043345,-0.065034,1.754889,-0.045180,-0.065101,1.754889,-0.257607,-0.492755,0.354263,1.987063,-0.621849,-13.907112
1790549117.5716,-0.036328,-0.061097,1.767670,-0.038984,-0.062298,1.767670,-0.436086,-0.637238,0.310554,2.255358,-1.291089,-10.103616
1790549117.5857,-0.025670,-0.051541,1.788008,-0.029664,-0.054768,1.788008,-0.759048,-0.992982,0.247418,2.332014,-0.026969,-6.067252
1790549117.5997,-0.013273,-0.036180,1.813750,-0.018191,-0.041757,1.813750,-1.117220,-1.196958,0.294770,3.060246,0.753811,-6.183686
1790549117.6138,0.003926,-0.011744,1.829145,-0.002709,-0.020748,1.829145,-1.731575,-1.417932,0.235277,2.140375,1.534591,-8.201867
1790549117.6277,0.018426,0.014768,1.847061,0.012086,0.004113,1.847061,-2.033897,-1.280734,0.109006,2.830278,-0.250049,-8.628791
1790549117.6417,0.012957,0.031407,1.849325,0.012695,0.023219,1.849325,-1.295698,0.347431,-0.266164,1.642111,0.084571,-10.064805
1790549117.6556,-0.005454,0.021428,1.838542,-0.000009,0.021965,1.838542,0.595935,1.447444,-0.924229,2.332014,-0.993649,-16.313406
1790549117.6697,0.032561,0.019746,1.805123,0.022790,0.020412,1.805123,0.279044,-2.201053,-1.549512,-6.828373,6.814150,-14.644525
1790549117.6838,0.028469,0.019106,1.791810,0.026765,0.019498,1.791810,0.228050,0.397211,-1.262974,1.910407,4.694891,-8.473546
1790549117.6978,0.026197,0.019094,1.785213,0.026368,0.019215,1.785213,0.042286,0.190807,-1.114849,2.255358,2.092291,-7.891378
1790549117.7118,0.028220,0.017296,1.778457,0.027664,0.017872,1.778457,0.150345,-0.079947,-0.784602,1.220503,2.352551,-10.646972
1790549117.7259,0.025509,0.014217,1.764427,0.026156,0.015314,1.764427,0.225622,0.365643,-0.925443,-0.044320,1.460231,-7.813756
1790549117.7396,0.026394,0.017720,1.746630,0.026322,0.016998,1.746630,-0.119195,0.159239,-0.638905,-1.462456,3.542311,-8.434735
1790549117.7533,0.027996,0.018836,1.725261,0.027494,0.018285,1.725261,0.049571,0.177451,-0.525990,-2.765607,3.542311,-8.395923
1790549117.7673,0.028217,0.018480,1.714725,0.028000,0.018421,1.714725,0.141846,0.133742,-0.196958,-1.730752,3.691031,-9.405014
1790549117.7816,0.025423,0.017023,1.705910,0.026196,0.017443,1.705910,0.230478,0.325576,0.004590,-2.152360,4.323091,-10.220049
1790549117.7959,0.014709,0.022390,1.705143,0.018155,0.020906,1.705143,-0.181116,0.769952,0.320267,-0.964192,4.955151,-8.667602
1790549117.8100,0.015468,0.021737,1.702393,0.016274,0.021488,1.702393,0.122420,0.005043,0.431968,-2.688951,4.323091,-12.975644
1790549117.8239,0.022659,0.006750,1.708112,0.020744,0.011171,1.708112,1.148370,-0.559533,0.711221,-1.692424,3.802571,-12.509909
1790549117.8379,0.012120,0.012945,1.725178,0.014707,0.012413,1.725178,-0.149548,0.618185,1.022041,-0.465928,6.219270,-7.464455
1790549117.8519,0.003475,0.022466,1.728809,0.006844,0.019450,1.728809,-0.608494,0.592688,1.187164,-2.458983,3.542311,-9.754315
1790549117.8658,0.000022,0.019670,1.737656,0.002069,0.019604,1.737656,0.068997,0.131314,1.301294,-1.500784,0.196111,-10.608161
1790549117.8798,0.002425,0.012924,1.757774,0.002318,0.014928,1.757774,0.385888,-0.425978,1.387498,0.223975,0.567911,-7.464455
1790549117.8937,-0.006391,0.005388,1.789278,-0.003778,0.008250,1.789278,0.530371,0.241801,1.691033,1.948735,2.278191,-10.025993
1790549117.9077,-0.015187,-0.004091,1.801914,-0.011764,-0.000389,1.801914,0.585008,0.501627,1.593902,-1.424128,1.014071,-10.569350
1790549117.9216,-0.015691,-0.008301,1.813014,-0.014513,-0.005927,1.813014,0.202553,-0.056878,1.354716,-1.462456,0.976891,-11.267951
1790549117.9355,-0.017114,-0.010715,1.812687,-0.016334,-0.009278,1.812687,0.083567,0.175023,0.847205,-2.765607,0.679451,-10.608161
1790549117.9495,-0.025775,-0.017706,1.823990,-0.022943,-0.015178,1.823990,0.427169,0.479772,0.674796,1.258831,0.753811,-10.608161
1790549117.9632,-0.033004,-0.024428,1.839265,-0.029986,-0.021653,1.839265,0.470878,0.346217,0.688152,1.488799,1.237151,-7.736133
1790549117.9769,-0.042751,-0.032615,1.852577,-0.038921,-0.029327,1.852577,0.602006,0.556263,0.631087,1.680439,1.794851,-9.172147
1790549117.9910,-0.047958,-0.040328,1.855791,-0.045247,-0.037028,1.855791,0.571652,0.369286,0.525457,-0.197632,2.241011,-10.103616
1790549118.0050,-0.043191,-0.046204,1.857797,-0.043808,-0.043451,1.857797,0.288757,-0.306992,0.527885,-1.040848,-0.435949,-13.441378
1790549118.0189,-0.035039,-0.045525,1.865455,-0.037670,-0.044903,1.865455,-0.198114,-0.649380,0.396758,0.990535,-1.030829,-12.859210
1790549118.0331,-0.027520,-0.042358,1.879888,-0.030565,-0.043121,1.879888,-0.386306,-0.682161,0.326338,2.025391,-1.142369,-9.133336
1790549118.0476,-0.021110,-0.034693,1.900134,-0.023947,-0.037221,1.900134,-0.672844,-0.672448,0.162429,2.485326,-0.770569,-6.338930
1790549118.0617,-0.008541,-0.020582,1.916811,-0.013163,-0.025574,1.916811,-1.022516,-1.113182,0.204924,2.868606,1.199971,-8.745224
1790549118.0757,0.008953,-0.000890,1.934578,0.002318,-0.008295,1.934578,-1.424398,-1.483495,0.161214,3.750150,1.571771,-11.035084
1790549118.0898,0.023883,0.025287,1.954515,0.017414,0.015212,1.954515,-1.903984,-1.346297,0.092008,4.095102,1.162791,-9.676693
1790549118.1038,0.021125,0.041092,1.968783,0.020012,0.033328,1.968783,-1.368547,-0.022882,-0.346297,6.011501,-2.703928,-11.850119
1790549118.1178,0.003653,0.036090,1.949017,0.008561,0.035262,1.949017,0.332466,1.540933,-0.796744,-1.999048,1.720491,-13.713056
1790549118.1316,0.035888,0.031557,1.917378,0.027690,0.032668,1.917378,0.416242,-1.799172,-1.116063,-9.358020,4.880791,-13.790679
1790549118.1456,0.029611,0.027804,1.909464,0.029035,0.029263,1.909464,0.281472,0.500413,-1.009219,1.872079,1.794851,-7.774944
1790549118.1596,0.024206,0.028097,1.892964,0.025655,0.028447,1.892964,-0.009922,0.610900,-0.929085,-0.657568,2.278191,-10.918651
1790549118.1736,0.032557,0.026931,1.874404,0.030486,0.027386,1.874404,0.126062,-0.297278,-0.791887,-2.957247,2.947431,-11.151518
1790549118.1876,0.030870,0.020017,1.859106,0.030755,0.022228,1.859106,0.508517,0.332861,-0.851380,-0.734224,1.832031,-8.551168
1790549118.2013,0.035461,0.021722,1.841836,0.034049,0.021874,1.841836,0.110278,-0.049593,-0.609766,-1.999048,3.914111,-5.795574
1790549118.2150,0.033669,0.018971,1.835162,0.033783,0.019842,1.835162,0.266902,0.223589,-0.349939,-0.389272,2.389731,-7.969000
1790549118.2290,0.035138,0.016304,1.827024,0.034732,0.017365,1.827024,0.274187,0.043895,-0.076757,-2.114032,3.021791,-9.094525
1790549118.2428,0.033293,0.014594,1.822123,0.033724,0.015425,1.822123,0.213480,0.236944,0.100507,-1.960720,3.319231,-9.831937
1790549118.2568,0.031065,0.013195,1.820270,0.031863,0.013864,1.820270,0.209838,0.216304,0.132075,-1.692424,4.769251,-12.781588
1790549118.2710,0.034491,0.009590,1.816668,0.033702,0.010872,1.816668,0.309397,-0.127299,0.351835,-3.493839,3.133331,-11.462007
1790549118.2849,0.031461,0.003868,1.823153,0.032133,0.005970,1.823153,0.429597,0.159239,0.754930,-1.539112,2.798711,-14.760958
1790549118.2992,0.023268,0.010648,1.831260,0.025927,0.009245,1.831260,-0.371736,0.538051,1.035397,-2.267343,3.653851,-10.025993
1790549118.3132,0.015320,0.012429,1.844489,0.018502,0.011474,1.844489,-0.176259,0.408138,1.294009,-0.734224,1.088431,-9.948371
1790549118.3273,0.012711,0.008162,1.865082,0.014448,0.009155,1.865082,0.221979,-0.073876,1.480987,0.147319,0.382011,-5.989630
1790549118.3413,0.009944,-0.000458,1.899866,0.011295,0.002426,1.899866,0.587436,-0.241428,1.648538,1.642111,0.902531,-5.912007
1790549118.3553,-0.006803,-0.011833,1.934501,-0.001374,-0.007555,1.934501,0.702779,0.763882,1.959359,2.600310,0.344831,-10.258860
1790549118.3693,-0.015389,-0.014024,1.954319,-0.011184,-0.012083,1.954319,0.102993,0.433635,1.806377,-0.849208,1.720491,-10.181238
1790549118.3834,-0.016584,-0.014575,1.969526,-0.014964,-0.013828,1.969526,-0.092484,-0.042309,1.321934,-0.772552,0.270471,-12.665154
1790549118.3973,-0.022154,-0.016537,1.986788,-0.019997,-0.015724,1.986788,0.049571,0.195663,1.047538,1.412143,0.716631,-10.452916
1790549118.4112,-0.028391,-0.020944,2.006677,-0.025873,-0.019378,2.006677,0.269331,0.194449,0.963762,1.872079,1.088431,-7.658511
1790549118.4249,-0.035924,-0.025020,2.025230,-0.032909,-0.023328,2.025230,0.333680,0.308578,0.915197,1.795423,1.980751,-6.921098
1790549118.4385,-0.042030,-0.031708,2.034154,-0.039294,-0.029194,2.034154,0.481806,0.362001,0.771928,0.530599,1.980751,-10.297672
1790549118.4525,-0.043885,-0.035432,2.041335,-0.042508,-0.033560,2.041335,0.251119,0.064536,0.526671,0.875551,1.869211,-11.656063
1790549118.4665,-0.035793,-0.035794,2.047694,-0.037808,-0.035124,2.047694,-0.003851,-0.615384,0.495103,0.262303,2.017931,-14.566903
1790549118.4805,-0.022652,-0.028405,2.054734,-0.027198,-0.030421,2.054734,-0.613351,-0.997838,0.257132,0.952207,0.307651,-12.315854
1790549118.4944,-0.015504,-0.022973,2.068014,-0.019012,-0.025207,2.068014,-0.546573,-0.671234,0.326338,2.102047,-0.919289,-10.258860
1790549118.5083,-0.002445,-0.012300,2.081198,-0.007415,-0.016172,2.081198,-0.800328,-1.131394,0.149073,1.527127,0.567911,-5.174595
1790549118.5222,0.012928,0.001834,2.095270,0.006825,-0.003568,2.095270,-0.969094,-1.335370,0.230420,2.025391,1.757671,-6.455364
1790549118.5365,0.026194,0.024490,2.110606,0.020383,0.016072,2.110606,-1.537313,-1.190887,0.266845,2.830278,2.464091,-8.201867
1790549118.5510,0.028129,0.041926,2.117192,0.025805,0.034170,2.117192,-1.321195,-0.214717,-0.125323,2.408670,-0.026969,-14.916203
1790549118.5651,0.004981,0.033054,2.103152,0.011228,0.033389,2.103152,0.503660,1.856610,-0.824669,-0.044320,-0.659029,-18.098721
1790549118.5792,0.019097,0.036628,2.068773,0.016736,0.035656,2.068773,0.067783,-0.578959,-1.346750,-2.152360,5.661571,-6.338930
1790549118.5932,0.030019,0.034191,2.048294,0.026034,0.034630,2.048294,0.270545,-0.484256,-1.220479,-1.002520,3.244871,-8.939280
1790549118.6073,0.016092,0.027501,2.037256,0.019075,0.029640,2.037256,0.551012,1.074702,-1.008004,1.297159,1.832031,-5.679140
1790549118.6211,0.027588,0.025047,2.013906,0.025034,0.026425,2.013906,0.254761,-0.469687,-1.044429,-3.110559,3.356411,-10.763406
1790549118.6351,0.031160,0.019540,2.001382,0.029322,0.021606,2.001382,0.406529,-0.089660,-0.896303,-0.120976,2.278191,-10.957462
1790549118.6491,0.028132,0.017046,1.984188,0.028489,0.018414,1.984188,0.217123,0.439706,-0.947297,-0.695896,2.241011,-8.939280
1790549118.6627,0.031191,0.017529,1.968323,0.030380,0.017795,1.968323,0.033787,0.022041,-0.613408,-1.730752,2.315371,-7.697322
1790549118.6764,0.032593,0.014197,1.958139,0.031929,0.015276,1.958139,0.311826,0.056037,-0.360867,-1.309144,2.501271,-8.434735
1790549118.6905,0.033329,0.010399,1.954260,0.032909,0.011862,1.954260,0.368890,0.015970,-0.020907,-1.002520,3.133331,-8.900469
1790549118.7044,0.028390,0.011932,1.949999,0.029746,0.011911,1.949999,0.084781,0.446991,0.077439,-1.577440,4.880791,-8.861658
1790549118.7185,0.026066,0.009021,1.946082,0.027170,0.009888,1.946082,0.298470,0.247871,0.184283,-2.114032,3.951291,-11.694875
1790549118.7324,0.019937,0.008017,1.943691,0.022107,0.008578,1.943691,0.111492,0.501627,0.377332,-2.458983,3.356411,-13.868301
1790549118.7464,0.016775,0.012339,1.945760,0.018375,0.011211,1.945760,-0.290389,0.252728,0.798639,-3.110559,2.835891,-12.742777
1790549118.7602,0.011562,0.016015,1.951025,0.013606,0.014574,1.951025,-0.273391,0.360787,1.054823,-2.229015,1.794851,-9.327392
1790549118.7742,0.004097,0.016965,1.961135,0.006949,0.016248,1.961135,-0.143478,0.411781,1.098532,-0.580912,0.642271,-7.464455
1790549118.7883,0.006068,0.015028,1.978617,0.006333,0.015394,1.978617,0.143060,-0.342202,1.295223,-0.159304,1.385871,-5.834385
1790549118.8027,0.004551,0.006458,2.010669,0.005085,0.009139,2.010669,0.622646,-0.282709,1.616971,1.488799,2.092291,-7.542077
1790549118.8166,-0.010898,-0.002860,2.040646,-0.006103,0.000740,2.040646,0.587436,0.725029,1.850086,2.025391,1.162791,-11.151518
1790549118.8306,-0.015107,-0.006331,2.059702,-0.012406,-0.004210,2.059702,0.183127,0.141027,1.896223,-1.462456,1.534591,-8.822846
1790549118.8445,-0.013929,-0.009819,2.069645,-0.013472,-0.008136,2.069645,0.147917,-0.083589,1.399639,-2.995575,0.790991,-9.754315
1790549118.8584,-0.021006,-0.013393,2.077327,-0.018746,-0.011816,2.077327,0.113921,0.470059,0.975904,-0.887536,-0.175689,-8.124245
1790549118.8724,-0.029811,-0.019993,2.089452,-0.026492,-0.017540,2.089452,0.390745,0.482201,0.801067,1.067191,0.642271,-9.405014
1790549118.8861,-0.038958,-0.025982,2.105384,-0.035218,-0.023449,2.105384,0.447810,0.472488,0.785283,1.757095,1.832031,-8.240679
1790549118.8996,-0.047992,-0.035016,2.116711,-0.044160,-0.031546,2.116711,0.627503,0.525910,0.655370,1.603783,1.237151,-9.637881
1790549118.9136,-0.044122,-0.042128,2.120068,-0.044134,-0.038953,2.120068,0.446595,-0.249927,0.532742,-1.040848,1.162791,-13.829490
1790549118.9277,-0.036170,-0.041846,2.126237,-0.038559,-0.040978,2.126237,-0.090055,-0.606885,0.418613,0.568927,0.753811,-13.286133
1790549118.9417,-0.025152,-0.042521,2.129825,-0.029174,-0.042058,2.129825,-0.165332,-0.740440,0.253489,-0.810880,-1.997508,-9.443825
1790549118.9555,-0.021760,-0.036901,2.156277,-0.023984,-0.038448,2.156277,-0.506506,-0.586244,0.270487,4.095102,-0.250049,-7.076343
1790549118.9695,-0.013190,-0.027117,2.170016,-0.016428,-0.030516,2.170016,-0.786973,-0.809646,0.219493,2.523654,0.084571,-8.395923
1790549118.9835,0.003712,-0.009457,2.180803,-0.002330,-0.015775,2.180803,-1.326052,-1.371794,-0.026978,2.906934,0.530731,-10.569350
1790549118.9975,0.012638,0.013766,2.201672,0.008148,0.004904,2.201672,-1.734004,-0.983269,-0.184816,5.014973,0.233291,-7.037532
1790549119.0116,0.030299,0.036141,2.214668,0.023653,0.026770,2.214668,-1.764357,-1.456784,-0.271020,1.297159,-0.361589,-3.389280
1790549119.0256,0.019973,0.041126,2.204296,0.021077,0.036819,2.204296,-0.487080,0.930219,-0.615837,-1.539112,-0.398769,-18.292777
1790549119.0398,0.007944,0.025940,2.182922,0.011884,0.029204,2.182922,1.104660,1.180332,-0.995863,-2.995575,3.616671,-17.283686
1790549119.0541,0.034551,0.031877,2.147451,0.027751,0.031075,2.147451,-0.232110,-1.244309,-1.776556,-7.671589,6.814150,-11.772497
1790549119.0682,0.030900,0.029543,2.126721,0.029955,0.030003,2.126721,-0.250322,0.688605,-1.462094,-1.309144,-3.038548,-4.631238
1790549119.0823,0.031806,0.036231,2.111838,0.031251,0.034362,2.111838,-0.399662,0.245443,-0.644976,-3.455511,3.579491,-10.375294
1790549119.0971,0.022793,0.041621,2.106405,0.025331,0.039443,2.106405,-0.405732,0.652181,-0.342655,0.875551,1.608951,-12.005364
1790549119.1121,0.023858,0.048870,2.096856,0.024300,0.046042,2.096856,-0.374165,0.125243,-0.399719,-1.692424,3.393591,-7.969000
1790549119.1262,0.015984,0.055632,2.091361,0.018479,0.052755,2.091361,-0.396019,0.653395,-0.179960,-0.504256,2.984611,-8.124245
1790549119.1406,0.013192,0.059098,2.088257,0.014778,0.057195,2.088257,-0.207827,0.292795,0.088366,-1.615768,2.538451,-8.939280
1790549119.1556,0.005109,0.063310,2.091952,0.008010,0.061476,2.091952,-0.187187,0.511340,0.446538,-0.734224,3.765391,-8.861658
1790549119.1699,0.004522,0.060646,2.096915,0.005569,0.060895,2.096915,0.198910,0.023255,0.633516,-2.305671,3.393591,-12.315854
1790549119.1839,0.005063,0.055397,2.107994,0.005214,0.057047,2.107994,0.456309,-0.168579,0.827778,-0.734224,4.211551,-10.530539
1790549119.1980,0.004900,0.051609,2.126503,0.004994,0.053240,2.126503,0.381032,-0.252355,1.063322,0.760567,4.508991,-9.560259
1790549119.2122,0.005760,0.046302,2.146586,0.005530,0.048384,2.146586,0.490305,-0.332489,1.256371,0.262303,4.546171,-9.521448
1790549119.2262,0.006612,0.040833,2.171314,0.006288,0.043098,2.171314,0.541299,-0.401695,1.428779,0.837223,4.694891,-8.434735
1790549119.2402,0.007502,0.034947,2.196807,0.007138,0.037392,2.196807,0.587436,-0.410194,1.557478,0.645583,4.806431,-8.318301
1790549119.2542,0.010531,0.029573,2.227447,0.009513,0.031919,2.227447,0.578937,-0.634810,1.666751,1.565455,5.550031,-8.473546
1790549119.2683,-0.001694,0.026324,2.254765,0.001668,0.028002,2.254765,0.247476,0.463989,1.674035,2.063719,2.947431,-10.608161
1790549119.2822,-0.010137,0.026666,2.272879,-0.006596,0.027067,2.272879,-0.064558,0.365643,1.570833,-0.389272,2.315371,-11.384385
1790549119.2965,-0.011791,0.020336,2.279012,-0.010233,0.022356,2.279012,0.071426,0.149526,1.245443,-4.528694,-4.637288,-9.637881
1790549119.3107,-0.006024,0.016783,2.281752,-0.007287,0.018455,2.281752,-0.064558,-0.289994,0.762215,-3.302199,-2.741108,-7.270399
1790549119.3246,-0.009803,0.018071,2.294670,-0.009048,0.018186,2.294670,-0.086413,0.063322,0.635944,1.833751,2.129471,-9.405014
1790549119.3386,-0.011765,0.014289,2.302677,-0.010950,0.015458,2.302677,0.215908,0.000186,0.328766,1.718767,1.051251,-10.064805
1790549119.3522,-0.014769,0.011775,2.309442,-0.013623,0.012880,2.309442,0.192840,0.091247,0.255917,1.795423,1.980751,-9.870749
1790549119.3658,-0.017324,0.010017,2.311169,-0.016214,0.010876,2.311169,0.141846,0.159239,0.134503,0.607255,2.129471,-10.608161
1790549119.3799,-0.011435,0.010145,2.307733,-0.012869,0.010364,2.307733,-0.073057,-0.310634,-0.009980,-1.347472,0.642271,-9.637881
1790549119.3938,-0.008884,0.012892,2.314425,-0.010079,0.012134,2.314425,-0.134979,-0.305777,0.152715,1.718767,2.687171,-9.016902
1790549119.4077,-0.009708,0.013831,2.321594,-0.009819,0.013322,2.321594,-0.074271,-0.081161,0.192782,1.948735,1.646131,-9.288581
1790549119.4217,-0.002832,0.016299,2.321594,-0.004928,0.015406,2.321594,-0.154405,-0.452689,0.106578,-0.695896,2.092291,-9.210958
1790549119.4356,0.010047,0.022175,2.325583,0.005554,0.020144,2.325583,-0.538074,-0.948059,0.140574,-0.159304,0.047391,-12.277042
1790549119.4496,0.022921,0.035950,2.330130,0.017711,0.031209,2.330130,-0.988520,-0.984483,0.055584,0.683911,2.464091,-12.121798
1790549119.4635,0.021549,0.038482,2.328031,0.020398,0.036300,2.328031,-0.301316,0.098532,-0.375436,1.872079,-0.064149,-14.877392
1790549119.4775,0.020726,0.037980,2.314759,0.020627,0.037476,2.314759,0.053213,0.256370,-0.862307,-0.350944,2.575631,-11.617252
1790549119.4915,0.023416,0.042846,2.300888,0.022579,0.041235,2.300888,-0.159261,-0.005884,-1.078425,0.415615,4.323091,-7.697322
1790549119.5054,0.029756,0.046310,2.278348,0.027603,0.044787,2.278348,-0.185973,-0.037452,-1.203481,-1.845736,1.943571,-5.989630
1790549119.5193,0.014987,0.049495,2.269835,0.018772,0.048083,2.269835,-0.142263,1.096557,-1.015289,2.293686,2.352551,-6.338930
1790549119.5333,0.002895,0.058192,2.253614,0.007658,0.055159,2.253614,-0.553858,1.086844,-0.964295,0.415615,3.542311,-11.617252
1790549119.5473,-0.007587,0.066208,2.238035,-0.003013,0.062894,2.238035,-0.547787,0.971500,-0.929085,0.453943,2.352551,-10.996273
1790549119.5619,-0.012416,0.072741,2.221910,-0.009595,0.069786,2.221910,-0.460369,0.598758,-0.806457,-0.887536,1.869211,-12.044175
1790549119.5757,-0.013559,0.074534,2.208369,-0.012370,0.073110,2.208369,-0.155619,0.351073,-0.597624,-1.424128,1.423051,-9.405014
1790549119.5896,-0.015324,0.078045,2.200844,-0.014438,0.076565,2.200844,-0.132550,0.291580,-0.295303,-0.772552,3.096151,-7.076343
1790549119.6036,-0.017552,0.079023,2.201567,-0.016617,0.078286,2.201567,0.010718,0.156811,0.087152,0.185647,3.207691,-8.124245
1790549119.6175,-0.017777,0.078457,2.204630,-0.017429,0.078406,2.204630,0.093280,-0.020454,0.270487,-0.005993,3.505131,-9.754315
1790549119.6315,-0.022975,0.080440,2.211470,-0.021312,0.079830,2.211470,-0.049989,0.256370,0.464750,0.607255,3.765391,-8.357112
1790549119.6455,-0.027423,0.080248,2.217208,-0.025589,0.080123,2.217208,-0.002637,0.221160,0.589807,-0.082648,2.984611,-11.267951
1790549119.6595,-0.029991,0.075070,2.229528,-0.028670,0.076586,2.229528,0.364034,-0.025311,0.871488,0.645583,3.170511,-10.142427
1790549119.6736,-0.026767,0.069770,2.244890,-0.027338,0.071815,2.244890,0.373747,-0.469687,0.992902,0.530599,3.319231,-9.948371
1790549119.6875,-0.028109,0.062621,2.269586,-0.027878,0.065379,2.269586,0.578937,-0.311848,1.345003,1.948735,4.137191,-8.318301
1790549119.7015,-0.024589,0.052980,2.296025,-0.025576,0.056700,2.296025,0.724634,-0.662735,1.569619,1.373815,4.025651,-8.939280
1790549119.7155,-0.021656,0.043579,2.324600,-0.022832,0.047515,2.324600,0.781699,-0.654236,1.606043,1.795423,4.508991,-7.658511
1790549119.7293,-0.021680,0.030705,2.332013,-0.022025,0.035748,2.332013,0.558297,-0.009527,1.440920,-4.605350,-3.893688,-10.181238
1790549119.7432,-0.014935,0.026355,2.347068,-0.017062,0.029173,2.347068,0.110278,-0.651808,1.151954,-0.427600,-0.398769,-7.386832
1790549119.7572,-0.016971,0.023098,2.373608,-0.016998,0.024920,2.373608,0.259618,-0.285137,1.133742,3.941790,2.984611,-9.094525
1790549119.7710,-0.016111,0.019734,2.392269,-0.016377,0.021290,2.392269,0.201339,-0.362842,0.850847,2.945262,1.906391,-10.763406
1790549119.7850,-0.012303,0.019359,2.394320,-0.013525,0.019938,2.394320,-0.042704,-0.245070,0.387045,-1.424128,1.088431,-11.694875
1790549119.7990,-0.005356,0.022654,2.393873,-0.007807,0.021839,2.393873,-0.331670,-0.451474,0.004590,-0.580912,0.307651,-10.802217
1790549119.8130,-0.003117,0.025065,2.400983,-0.004524,0.024097,2.400983,-0.247894,-0.331274,-0.137465,3.788478,0.567911,-10.802217
1790549119.8266,0.000370,0.028137,2.404632,-0.001098,0.026925,2.404632,-0.232110,-0.344630,-0.042761,1.450471,1.534591,-8.434735
1790549119.8406,0.005107,0.031757,2.407830,0.003245,0.030308,2.407830,-0.207827,-0.427192,-0.052475,1.335487,2.166651,-7.542077
1790549119.8546,0.008265,0.037676,2.411294,0.006759,0.035466,2.411294,-0.368094,-0.322775,0.002162,1.258831,2.241011,-7.348021
1790549119.8685,0.016358,0.044611,2.409031,0.013479,0.041867,2.409031,-0.565999,-0.463616,0.144216,-2.152360,0.828171,-8.706413
1790549119.8824,0.024332,0.051258,2.411924,0.021076,0.048441,2.411924,-0.546573,-0.568032,0.193996,-0.810880,0.902531,-9.210958
1790549119.8965,0.014300,0.047106,2.411312,0.016333,0.047506,2.411312,0.265688,0.676464,-0.105897,2.102047,2.538451,-16.002917
1790549119.9107,0.001482,0.038139,2.396839,0.005937,0.040949,2.396839,0.839977,1.105056,-0.399719,-1.424128,5.624391,-9.637881
1790549119.9245,0.009861,0.037460,2.374087,0.008684,0.038507,2.374087,0.347036,-0.190434,-0.808885,-3.953775,6.182090,-6.998721
1790549119.9386,0.020883,0.034681,2.361056,0.017223,0.035828,2.361056,0.169771,-0.549820,-0.760319,-1.730752,1.534591,-11.306763
1790549119.9526,0.027820,0.036272,2.348229,0.024641,0.036139,2.348229,0.018003,-0.294850,-0.969152,-0.312616,3.914111,-8.939280
1790549119.9665,0.025144,0.039208,2.336766,0.024993,0.038287,2.336766,-0.138621,0.334075,-0.969152,0.875551,3.170511,-9.599070
1790549119.9805,0.017199,0.045924,2.319333,0.019537,0.043633,2.319333,-0.414231,0.807591,-1.136703,0.185647,3.096151,-9.870749
1790549119.9946,0.002442,0.056487,2.305608,0.007571,0.052631,2.305608,-0.648561,1.209472,-1.032287,1.258831,2.873071,-7.813756
1790549120.0086,-0.004624,0.065038,2.285881,-0.000965,0.061316,2.285881,-0.532003,0.820946,-1.039572,-0.657568,2.649991,-8.473546
1790549120.0225,-0.012536,0.071312,2.266322,-0.009065,0.068313,2.266322,-0.362023,0.881654,-1.099065,-0.274288,2.947431,-9.443825
1790549120.0360,-0.015427,0.072638,2.256330,-0.013518,0.071340,2.256330,-0.128908,0.368071,-0.806457,1.067191,1.274331,-9.948371
1790549120.0498,-0.013602,0.069959,2.251183,-0.013577,0.070374,2.251183,0.195268,-0.043523,-0.383935,0.415615,2.241011,-10.569350
1790549120.0642,-0.025042,0.069046,2.258851,-0.021602,0.069444,2.258851,0.143060,0.623041,0.017946,3.021918,2.947431,-7.736133
1790549120.0783,-0.030722,0.073762,2.255050,-0.027986,0.072467,2.255050,-0.296460,0.472488,0.113863,-0.695896,2.873071,-9.288581
1790549120.0922,-0.033073,0.077043,2.254767,-0.031547,0.075670,2.254767,-0.252750,0.183522,0.278986,-0.657568,2.687171,-11.345574
1790549120.1062,-0.032012,0.073130,2.257978,-0.031872,0.073892,2.257978,0.264474,-0.110301,0.469606,-0.734224,2.910251,-11.073895
1790549120.1202,-0.029571,0.063807,2.271445,-0.030261,0.066832,2.271445,0.555868,-0.398052,0.793782,1.258831,1.423051,-11.578441
1790549120.1342,-0.029879,0.058939,2.293340,-0.029994,0.061307,2.293340,0.361606,-0.344630,1.127671,1.987063,2.947431,-7.969000
1790549120.1482,-0.027381,0.048529,2.319264,-0.028165,0.052362,2.319264,0.719777,-0.600814,1.319506,2.140375,2.426911,-7.774944
1790549120.1622,-0.022005,0.038162,2.346682,-0.023853,0.042422,2.346682,0.831478,-0.815717,1.541694,1.718767,3.839751,-7.037532
1790549120.1761,-0.021180,0.026921,2.363210,-0.021982,0.031572,2.363210,0.699137,-0.254783,1.461561,-0.925864,1.311511,-9.948371
1790549120.1902,-0.013133,0.019771,2.380028,-0.015787,0.023311,2.380028,0.365248,-0.735584,1.402068,-1.040848,0.456371,-8.240679
1790549120.2041,-0.004635,0.011958,2.401251,-0.007981,0.015364,2.401251,0.568010,-0.886137,1.323148,0.568927,1.980751,-7.309210
1790549120.2181,-0.006641,0.008868,2.425000,-0.007043,0.010817,2.425000,0.224407,-0.201361,1.269726,2.945262,3.058971,-12.082986
1790549120.2321,-0.004034,0.008175,2.436851,-0.004936,0.008967,2.436851,-0.047560,-0.277852,1.136170,-1.769080,0.902531,-13.053266
1790549120.2460,0.002297,0.010515,2.453708,0.000127,0.010050,2.453708,-0.246680,-0.666378,0.934623,1.220503,1.162791,-13.130889
1790549120.2596,0.005386,0.015637,2.464350,0.003808,0.013961,2.464350,-0.456726,-0.367699,0.555811,0.913879,0.790991,-11.384385
1790549120.2732,0.004745,0.019404,2.471745,0.004464,0.017771,2.471745,-0.372950,-0.071448,0.236491,1.565455,0.382011,-11.384385
1790549120.2868,0.008538,0.021190,2.475198,0.007316,0.020164,2.475198,-0.229682,-0.313062,0.071368,0.415615,0.270471,-9.948371
1790549120.3008,0.010919,0.026444,2.480328,0.009838,0.024560,2.480328,-0.363237,-0.266925,0.175784,1.143847,2.203831,-10.025993
1790549120.3152,0.016285,0.027952,2.481804,0.014351,0.026934,2.481804,-0.219969,-0.311848,0.303269,-1.960720,-0.064149,-9.948371
1790549120.3292,0.018281,0.031472,2.488027,0.017102,0.030111,2.488027,-0.292817,-0.262068,0.141788,1.488799,1.237151,-9.754315
1790549120.3432,0.018076,0.030302,2.485936,0.017784,0.030245,2.485936,0.077496,0.037825,-0.183602,0.377287,2.352551,-13.053266
1790549120.3579,0.010714,0.020573,2.475108,0.012835,0.023474,2.475108,0.678497,0.660680,-0.441000,-1.270816,2.538451,-12.703965
1790549120.3722,0.004168,0.016347,2.458937,0.006768,0.018485,2.458937,0.445381,0.705603,-0.534489,-2.382327,4.546171,-10.452916
1790549120.3864,0.018225,0.016498,2.444789,0.014788,0.017094,2.444789,0.027716,-0.710087,-0.637691,-3.302199,2.575631,-11.073895
1790549120.4004,0.027242,0.019799,2.431824,0.023506,0.018988,2.431824,-0.104625,-0.441761,-0.827097,-1.079176,3.988471,-9.560259
1790549120.4143,0.025632,0.023773,2.422380,0.024994,0.022338,2.422380,-0.189615,0.216304,-0.762748,0.683911,3.542311,-9.948371
1790549120.4283,0.019881,0.029287,2.408773,0.021415,0.027202,2.408773,-0.302530,0.578118,-0.909659,0.262303,3.467951,-9.948371
1790549120.4421,0.008145,0.038169,2.395765,0.012126,0.034879,2.395765,-0.576926,0.990926,-0.949726,1.182175,2.947431,-10.064805
1790549120.4560,0.001146,0.048331,2.379630,0.004440,0.044295,2.379630,-0.663130,0.733528,-0.958225,-0.082648,2.612811,-9.094525
1790549120.4700,-0.003424,0.056297,2.360710,-0.001065,0.052696,2.360710,-0.532003,0.625470,-1.061427,-0.619240,2.166651,-9.405014
1790549120.4840,-0.008740,0.060958,2.343807,-0.006437,0.058480,2.343807,-0.285532,0.642468,-1.008004,-0.082648,2.278191,-9.327392
1790549120.4975,-0.012914,0.062894,2.333779,-0.010971,0.061570,2.333779,-0.103411,0.460346,-0.702041,0.568927,2.203831,-9.016902
1790549120.5112,-0.010757,0.056698,2.331422,-0.010821,0.058160,2.331422,0.382246,-0.115157,-0.169032,0.223975,0.865351,-9.327392
1790549120.5252,-0.013557,0.047262,2.334588,-0.012736,0.050531,2.334588,0.649357,0.137384,0.178212,0.837223,1.757671,-9.754315
1790549120.5391,-0.020320,0.045991,2.344279,-0.018045,0.047353,2.344279,0.152773,0.286724,0.365190,2.446998,3.096151,-8.939280
1790549120.5532,-0.022210,0.047040,2.353430,-0.020960,0.047134,2.353430,-0.063344,-0.016812,0.549740,1.258831,3.058971,-11.073895
1790549120.5678,-0.021366,0.035203,2.368446,-0.021244,0.038782,2.368446,0.737990,-0.281495,0.819279,2.102047,2.129471,-15.149070
1790549120.5820,-0.022049,0.029141,2.384895,-0.021808,0.032033,2.384895,0.451452,-0.196505,1.041467,1.067191,2.873071,-8.628791
1790549120.5961,-0.017305,0.021651,2.400192,-0.018656,0.024766,2.400192,0.538870,-0.531608,1.093676,0.147319,2.464091,-8.589979
1790549120.6100,-0.012698,0.014477,2.419985,-0.014485,0.017564,2.419985,0.568010,-0.611741,1.201734,1.143847,2.947431,-7.930189
1790549120.6240,-0.005778,0.002747,2.430217,-0.008391,0.007192,2.430217,0.588650,-0.512182,1.134956,-2.650623,-1.885968,-9.676693
1790549120.6380,-0.000935,-0.002834,2.445167,-0.003171,0.000174,2.445167,0.401672,-0.463616,1.304936,-1.079176,1.943571,-8.279490
1790549120.6521,0.000056,-0.007479,2.462795,-0.000912,-0.005183,2.462795,0.372533,-0.276638,1.192021,0.530599,2.538451,-8.939280
1790549120.6660,0.012268,-0.015631,2.479880,0.008314,-0.012497,2.479880,0.585008,-1.009980,1.283082,-0.657568,1.497411,-7.464455
1790549120.6802,0.004352,-0.018867,2.500980,0.005541,-0.016956,2.500980,0.211052,0.296437,1.307365,1.565455,1.571771,-10.336483
1790549120.6942,0.000763,-0.016774,2.516416,0.002196,-0.016829,2.516416,-0.142263,0.119172,1.277011,-0.389272,1.980751,-9.482637
1790549120.7081,0.006138,-0.017271,2.525775,0.004956,-0.017138,2.525775,-0.043918,-0.438119,0.769500,-0.964192,0.530731,-12.199420
1790549120.7218,0.002794,-0.012433,2.535360,0.003442,-0.013845,2.535360,-0.379021,0.100960,0.507245,1.297159,1.199971,-9.521448
1790549120.7354,0.001944,-0.013794,2.541567,0.002394,-0.013810,2.541567,0.014361,-0.008313,0.370047,0.568927,0.270471,-11.694875
1790549120.7490,-0.003338,-0.014550,2.552133,-0.001618,-0.014328,2.552133,0.117563,0.168952,0.387045,2.332014,2.092291,-7.580888
1790549120.7630,-0.008722,-0.017059,2.558772,-0.006591,-0.016240,2.558772,0.183127,0.281867,0.394330,1.028863,1.497411,-8.784035
1790549120.7771,-0.010305,-0.019570,2.561813,-0.009190,-0.018571,2.561813,0.175842,0.099746,0.333623,-0.159304,1.497411,-9.599070
1790549120.7912,-0.009270,-0.018715,2.560449,-0.009246,-0.018672,2.560449,-0.100983,0.030540,0.278986,-2.037376,0.902531,-10.181238
1790549120.8053,-0.003110,-0.014529,2.567349,-0.004951,-0.015772,2.567349,-0.348668,-0.504897,0.372475,0.607255,1.162791,-13.790679
1790549120.8197,0.005624,-0.000454,2.572884,0.002452,-0.005050,2.572884,-0.931456,-0.708873,0.101721,1.833751,2.947431,-11.617252
1790549120.8337,0.009601,0.003769,2.574965,0.007456,0.001123,2.574965,-0.499221,-0.287565,-0.097398,0.492271,-2.109048,-12.121798
1790549120.8478,0.009604,0.002422,2.569278,0.008959,0.002032,2.569278,0.043500,0.070607,-0.453142,0.338959,0.939711,-14.838581
1790549120.8618,0.010210,0.006778,2.557769,0.009835,0.005354,2.557769,-0.256393,0.122815,-0.646190,-0.695896,2.129471,-8.706413
1790549120.8758,0.007804,0.014021,2.543433,0.008414,0.011421,2.543433,-0.481009,0.377785,-0.810099,-0.657568,1.608951,-7.697322
1790549120.8898,0.008934,0.019675,2.531831,0.008778,0.017199,2.531831,-0.334098,0.128885,-0.516277,-1.347472,2.166651,-7.503266
1790549120.9037,-0.003252,0.021820,2.522961,0.000357,0.020434,2.522961,-0.127694,0.955716,-0.553915,0.875551,2.017931,-10.064805
1790549120.9177,-0.010917,0.028267,2.511311,-0.007535,0.025917,2.511311,-0.349882,0.700746,-0.632835,-0.005993,3.207691,-9.327392
1790549120.9316,-0.021844,0.037867,2.500270,-0.017551,0.034282,2.500270,-0.643704,0.914435,-0.675330,0.875551,2.389731,-10.841028
1790549120.9456,-0.026578,0.045192,2.484349,-0.023870,0.041919,2.484349,-0.456726,0.614542,-0.745750,-1.232488,2.278191,-9.133336
1790549120.9590,-0.032975,0.047870,2.473253,-0.030243,0.046084,2.473253,-0.178688,0.657037,-0.580626,-0.120976,1.311511,-7.348021
1790549120.9727,-0.029865,0.045937,2.471735,-0.029979,0.045982,2.471735,0.062927,-0.196505,-0.153248,0.492271,0.679451,-9.870749
1790549120.9869,-0.032300,0.042983,2.480240,-0.031604,0.043883,2.480240,0.314254,-0.035024,0.138146,2.983590,3.244871,-7.464455
1790549121.0008,-0.037282,0.046749,2.485172,-0.035579,0.045889,2.485172,-0.188401,0.241801,0.264416,1.642111,3.393591,-8.822846
1790549121.0148,-0.023793,0.038952,2.492295,-0.027329,0.041033,2.492295,0.526729,-1.028192,0.395544,-0.044320,2.612811,-12.354665
1790549121.0288,-0.019608,0.030818,2.507923,-0.021924,0.033882,2.507923,0.757416,-0.568032,0.833849,1.680439,4.471811,-6.882287
1790549121.0427,-0.018352,0.025080,2.525124,-0.019424,0.027720,2.525124,0.507303,-0.381054,0.958906,1.872079,3.579491,-7.891378
1790549121.0570,-0.011566,0.019641,2.542505,-0.013923,0.022065,2.542505,0.387102,-0.716157,1.025684,1.143847,2.873071,-10.452916
1790549121.0714,-0.011782,0.016968,2.559460,-0.012425,0.018497,2.559460,0.337323,-0.258426,1.099746,1.718767,5.178231,-9.016902
1790549121.0854,-0.006079,0.011947,2.574755,-0.007983,0.013912,2.574755,0.467236,-0.617812,1.159239,0.377287,4.137191,-9.055714
1790549121.0995,-0.001496,0.004501,2.591685,-0.003442,0.007324,2.591685,0.750131,-0.587458,1.257585,0.798895,4.434631,-6.261308
1790549121.1133,0.007710,-0.007978,2.613365,0.004364,-0.003387,2.613365,1.006315,-0.950487,1.377785,0.607255,2.017931,-4.902916
1790549121.1273,0.007330,-0.022773,2.624120,0.006440,-0.016957,2.624120,0.785341,0.099746,1.735957,-5.831846,-3.410348,-9.676693
1790549121.1412,-0.002247,-0.023305,2.645326,0.000359,-0.021401,2.645326,-0.035419,0.521053,1.871941,-1.845736,1.460231,-16.817952
1790549121.1552,0.000037,-0.020229,2.666223,0.000134,-0.020581,2.666223,-0.270963,-0.319133,1.784522,-1.615768,1.869211,-13.130889
1790549121.1691,-0.005026,-0.021451,2.685516,-0.003478,-0.021190,2.685516,0.007076,0.156811,1.279439,0.798895,0.679451,-10.258860
1790549121.1833,0.004080,-0.022844,2.689807,0.001813,-0.022348,2.689807,0.065355,-0.582602,0.684510,-2.190688,1.088431,-9.288581
1790549121.1983,0.007019,-0.023080,2.693931,0.005457,-0.022860,2.693931,-0.057274,-0.215931,0.252275,-0.120976,0.196111,-10.414105
1790549121.2133,0.008600,-0.022029,2.705666,0.007657,-0.022278,2.705666,-0.143478,-0.249927,0.433182,1.565455,0.233291,-9.909560
1790549121.2279,0.004695,-0.025346,2.713410,0.005584,-0.024426,2.713410,0.168557,0.177451,0.407685,0.990535,0.605091,-12.471098
1790549121.2427,0.004122,-0.026044,2.715320,0.004560,-0.025558,2.715320,0.065355,0.049966,0.298412,-0.504256,1.423051,-7.969000
1790549121.2569,0.004341,-0.025126,2.716323,0.004407,-0.025255,2.716323,-0.028134,-0.045951,0.004590,0.760567,2.129471,-10.646972
1790549121.2708,0.013619,-0.023427,2.714328,0.010855,-0.023975,2.714328,-0.236967,-0.568032,-0.081614,-1.807408,-0.733389,-13.247322
1790549121.2850,0.023653,-0.012501,2.712765,0.019814,-0.015943,2.712765,-0.782116,-0.708873,-0.336584,0.913879,1.683311,-13.130889
1790549121.2990,0.022942,-0.007499,2.708272,0.022003,-0.010032,2.708272,-0.447013,0.066964,-0.600053,1.335487,0.010211,-10.918651
1790549121.3133,0.024173,-0.007274,2.695621,0.023522,-0.008101,2.695621,-0.018421,0.045110,-0.914515,0.147319,1.274331,-8.784035
1790549121.3275,0.027166,-0.006093,2.678570,0.026073,-0.006695,2.678570,-0.042704,-0.042309,-1.260546,0.377287,2.278191,-10.142427
1790549121.3414,0.034799,-0.005396,2.662772,0.032181,-0.005786,2.662772,-0.036633,-0.120014,-0.380293,-6.713389,1.646131,-8.822846
1790549121.3555,0.026274,0.001122,2.656276,0.028046,-0.000950,2.656276,-0.392377,0.652181,-0.433715,0.377287,2.389731,-8.318301
1790549121.3696,0.023582,0.004624,2.647948,0.024922,0.002952,2.647948,-0.296460,0.292795,-0.541774,-0.120976,0.902531,-10.530539
1790549121.3838,0.017672,0.010275,2.641819,0.019847,0.008078,2.641819,-0.422730,0.455490,-0.508992,0.798895,1.051251,-8.357112
1790549121.3979,0.012299,0.016344,2.632702,0.014563,0.013864,2.632702,-0.451870,0.491914,-0.561200,0.032335,1.051251,-8.124245
1790549121.4115,0.003316,0.021090,2.624968,0.006690,0.018922,2.624968,-0.397233,0.726243,-0.572127,0.875551,0.753811,-9.521448
1790549121.4252,-0.000872,0.026919,2.619279,0.001397,0.024520,2.619279,-0.468868,0.363215,-0.457998,0.760567,0.939711,-9.288581
1790549121.4388,-0.005140,0.031800,2.616095,-0.003179,0.029616,2.616095,-0.411803,0.325576,-0.331727,1.143847,0.828171,-9.521448
1790549121.4528,-0.008855,0.036041,2.614090,-0.007152,0.034113,2.614090,-0.318314,0.273368,-0.165390,0.837223,1.608951,-9.987182
1790549121.4668,-0.010335,0.037952,2.612796,-0.009380,0.036801,2.612796,-0.137407,0.120386,-0.079186,0.492271,2.203831,-11.384385
1790549121.4806,-0.004273,0.032014,2.614211,-0.005805,0.033450,2.614211,0.432026,-0.452689,0.008232,0.453943,2.426911,-11.850119
1790549121.4945,0.000250,0.024857,2.624015,-0.001566,0.027435,2.624015,0.623860,-0.521895,0.388259,2.063719,3.691031,-8.900469
1790549121.5086,0.005432,0.014207,2.637467,0.003332,0.018175,2.637467,0.808410,-0.609313,0.599520,2.217030,2.798711,-9.288581
1790549121.5225,0.016049,0.000052,2.653911,0.012234,0.005489,2.653911,1.069450,-1.029406,0.767071,1.872079,2.352551,-8.163056
1790549121.5366,0.024269,-0.008714,2.669021,0.020659,-0.004453,2.669021,0.863046,-0.865497,0.809566,1.642111,3.653851,-5.523895
