t,imu_roll,imu_pitch,imu_yaw,lpf_roll,lpf_pitch,lpf_yaw,gyro_x,gyro_y,gyro_z,acc_x,acc_y,acc_z
1790548260.4318,-0.015497,-0.024753,0.007978,-0.010848,-0.017327,0.007978,-0.002135,0.010119,0.004800,0.032335,1.385871,-10.064805
1790548260.4472,-0.029784,-0.027220,0.003765,-0.024103,-0.024252,0.003765,-0.010634,-0.016592,-0.001271,0.338959,1.348691,-10.064805
1790548260.4610,-0.029607,-0.028360,0.003970,-0.027956,-0.027128,0.003970,0.008792,-0.005665,-0.001271,0.185647,1.385871,-10.375294
1790548260.4747,-0.032628,-0.029108,0.002963,-0.031226,-0.028514,0.002963,0.018505,-0.003237,-0.002485,0.300631,1.311511,-9.831937
1790548260.4887,-0.028962,-0.028872,0.004101,-0.029641,-0.028765,0.004101,-0.019133,-0.011736,-0.012198,0.032335,1.348691,-9.987182
1790548260.5029,-0.030145,-0.028443,0.003109,-0.029994,-0.028540,0.003109,-0.053129,-0.025091,-0.035267,0.262303,1.311511,-9.793126
1790548260.5173,-0.029909,-0.027444,0.002537,-0.029934,-0.027773,0.002537,-0.056771,-0.011736,-0.038909,0.185647,1.385871,-10.064805
1790548260.5318,-0.034863,-0.024853,0.000614,-0.033384,-0.025729,0.000614,-0.082268,0.045329,0.004800,0.568927,1.571771,-10.530539
1790548260.5458,-0.035672,-0.021140,0.000887,-0.034986,-0.022517,0.000887,-0.136905,0.036830,0.097075,0.262303,1.646131,-10.414105
1790548260.5599,-0.038936,-0.016589,0.002748,-0.037751,-0.018367,0.002748,-0.170901,0.012547,0.243986,0.492271,1.608951,-9.560259
1790548260.5739,-0.044776,-0.017012,0.010873,-0.042668,-0.017418,0.010873,-0.153903,-0.057873,0.404253,0.875551,1.162791,-9.482637
1790548260.5879,-0.048920,-0.018980,0.020639,-0.047045,-0.018512,0.020639,-0.022775,-0.110081,0.548736,0.837223,1.162791,-9.482637
1790548260.6019,-0.047487,-0.022456,0.035905,-0.047354,-0.021273,0.035905,0.000293,-0.043304,0.617942,0.108991,1.014071,-9.754315
1790548260.6159,-0.038830,-0.023138,0.051735,-0.041387,-0.022579,0.051735,-0.072555,-0.076085,0.503813,-0.810880,1.162791,-9.521448
1790548260.6299,-0.031342,-0.032917,0.065304,-0.034356,-0.029815,0.065304,0.064643,-0.150148,0.339903,-0.734224,0.084571,-11.384385
1790548260.6442,-0.031074,-0.041391,0.066746,-0.032059,-0.037918,0.066746,0.037932,-0.016592,0.308336,0.108991,0.047391,-11.267951
1790548260.6581,-0.028687,-0.045185,0.078918,-0.029698,-0.043005,0.078918,0.073142,0.001620,0.322905,-0.274288,0.716631,-9.560259
1790548260.6721,-0.025327,-0.051009,0.092075,-0.026638,-0.048608,0.092075,0.118065,0.001620,0.318049,-0.504256,0.419191,-9.987182
1790548260.6857,-0.027194,-0.053762,0.091242,-0.027027,-0.052216,0.091242,0.052501,0.089038,0.259770,0.185647,0.716631,-9.637881
1790548260.6994,-0.028495,-0.051392,0.097578,-0.028055,-0.051639,0.097578,-0.019133,0.073254,0.240344,0.147319,1.348691,-8.784035
1790548260.7133,-0.027368,-0.048042,0.101392,-0.027574,-0.049121,0.101392,-0.045844,-0.144077,0.165067,0.262303,1.571771,-9.172147
1790548260.7273,-0.025513,-0.043148,0.102435,-0.026132,-0.044940,0.102435,-0.214610,-0.238780,0.168709,0.377287,1.571771,-9.715504
1790548260.7412,-0.024211,-0.039034,0.096303,-0.024787,-0.040805,0.096303,-0.259533,-0.316486,0.137142,0.722239,1.348691,-9.831937
1790548260.7553,-0.022051,-0.037533,0.089281,-0.022872,-0.038515,0.089281,-0.236464,-0.331055,0.060651,0.607255,0.828171,-9.754315
1790548260.7696,-0.018863,-0.032636,0.083958,-0.020065,-0.034399,0.083958,-0.357879,-0.270348,-0.176107,0.338959,1.423051,-11.345574
1790548260.7849,-0.023389,-0.046037,0.078517,-0.022392,-0.042546,0.078517,0.468952,0.369505,-0.399509,0.070663,-0.621849,-16.080539
1790548260.7995,-0.008386,-0.037067,0.100013,-0.012588,-0.038710,0.100013,-0.240107,-0.520461,-0.590130,-2.152360,3.430771,-12.665154
1790548260.8143,-0.009289,-0.035420,0.075188,-0.010279,-0.036407,0.075188,-0.187899,0.010119,-0.937374,0.683911,1.088431,-10.918651
1790548260.8296,-0.018443,-0.029144,0.041079,-0.015993,-0.031323,0.041079,-0.298386,0.409571,-0.964085,1.143847,1.497411,-8.163056
1790548260.8438,-0.014849,-0.014378,0.022414,-0.015193,-0.019462,0.022414,-0.523002,-0.222997,-0.806247,0.223975,2.278191,-6.106063
1790548260.8580,-0.019324,-0.014075,0.010430,-0.018085,-0.015691,0.010430,-0.102909,0.464208,-0.880309,0.032335,1.162791,-10.220049
1790548260.8721,-0.020100,-0.014863,-0.002137,-0.019495,-0.015111,-0.002137,0.020934,0.405929,-1.202057,-0.772552,1.571771,-12.160609
1790548260.8863,-0.024591,-0.013615,-0.024358,-0.023063,-0.014064,-0.024358,-0.206111,0.353721,-1.245766,0.760567,0.865351,-9.443825
1790548260.9006,-0.025992,-0.012595,-0.041286,-0.025113,-0.013036,-0.041286,-0.294743,0.208024,-1.200843,0.415615,0.344831,-8.589979
1790548260.9144,-0.024403,-0.013619,-0.050534,-0.024616,-0.013444,-0.050534,-0.168473,0.115749,-1.168061,-0.082648,0.270471,-8.512357
1790548260.9282,-0.023979,-0.012834,-0.064405,-0.024170,-0.013017,-0.064405,-0.125978,0.166743,-1.168061,0.032335,1.051251,-9.405014
1790548260.9422,-0.023011,-0.012322,-0.079372,-0.023358,-0.012531,-0.079372,-0.130834,0.058684,-1.033291,0.262303,1.014071,-10.258860
1790548260.9565,-0.024867,-0.007858,-0.099508,-0.024414,-0.009260,-0.099508,-0.325097,0.135175,-0.817174,0.722239,1.423051,-9.831937
1790548260.9707,-0.017202,-0.008423,-0.098852,-0.019366,-0.008674,-0.098852,-0.061628,-0.385692,-0.560990,-0.389272,1.348691,-13.441378
1790548260.9846,-0.011950,-0.018425,-0.130141,-0.014175,-0.015500,-0.130141,0.725136,-0.794858,-0.046194,2.906934,1.943571,-13.596623
1790548260.9987,-0.019372,-0.017161,-0.176629,-0.017813,-0.016663,-0.176629,0.462881,-0.242423,0.321691,3.596838,3.728211,-7.658511
1790548261.0130,-0.032014,-0.017580,-0.189232,-0.027753,-0.017305,-0.189232,0.302615,0.530986,0.637368,2.293686,3.914111,-12.820399
1790548261.0273,-0.038277,-0.007504,-0.195716,-0.035120,-0.010444,-0.195716,-0.428299,0.316082,0.953045,0.223975,4.174371,-12.665154
1790548261.0419,-0.030027,-0.004376,-0.176764,-0.031555,-0.006196,-0.176764,-0.206111,-0.634591,1.259009,-0.580912,1.683311,-9.133336
1790548261.0563,-0.031071,0.002022,-0.153273,-0.031216,-0.000443,-0.153273,-0.377305,-0.405118,1.500623,1.067191,1.460231,-6.455364
1790548261.0704,-0.028210,0.010139,-0.143109,-0.029112,0.006964,-0.143109,-0.408873,-0.269134,1.376781,-0.734224,2.464091,-8.318301
1790548261.0844,-0.029124,0.010327,-0.104415,-0.029121,0.009318,-0.104415,-0.213396,-0.244851,1.467841,0.568927,0.865351,-11.694875
1790548261.0992,-0.023069,0.011444,-0.067625,-0.024885,0.010806,-0.067625,-0.236464,-0.525318,1.371924,-0.849208,1.014071,-11.306763
1790548261.1133,-0.018755,0.012052,-0.010487,-0.020594,0.011678,-0.010487,-0.404016,-0.324985,1.181304,-1.194160,-0.398769,-10.724595
1790548261.1273,-0.010050,0.012700,0.044617,-0.013213,0.012393,0.044617,-0.428299,-0.494964,0.942118,-1.922392,-0.659029,-10.220049
1790548261.1412,-0.002486,0.017145,0.068992,-0.005704,0.015720,0.068992,-0.552141,-0.559314,0.639796,-0.734224,0.270471,-9.909560
1790548261.1549,0.005717,0.024055,0.084213,0.002290,0.021554,0.084213,-0.737905,-0.655231,0.423679,-0.274288,0.233291,-7.969000
1790548261.1690,0.008560,0.027703,0.089054,0.006679,0.025858,0.089054,-0.496291,-0.255778,0.121358,-0.005993,0.307651,-12.044175
1790548261.1829,0.005747,0.022356,0.092986,0.006027,0.023407,0.092986,0.263762,0.261446,-0.095974,-0.580912,1.571771,-14.955014
1790548261.1971,0.008680,0.027750,0.092164,0.007884,0.026447,0.092164,0.019719,0.181313,-0.406794,-2.612295,5.066691,-9.366203
1790548261.2110,0.010873,0.031329,0.084829,0.009976,0.029864,0.084829,0.147204,0.214095,-0.537921,-2.152360,4.806431,-8.745224
1790548261.2250,0.007129,0.035972,0.067457,0.007983,0.034139,0.067457,0.153275,0.481206,-0.517281,-0.849208,4.806431,-7.464455
1790548261.2390,0.003470,0.037430,0.057567,0.004824,0.036443,0.057567,0.269833,0.516416,-0.509996,-1.079176,4.137191,-7.736133
1790548261.2531,-0.000093,0.034839,0.046396,0.001382,0.035320,0.046396,0.504162,0.574695,-0.570703,-1.462456,3.914111,-8.046623
1790548261.2670,-0.000525,0.027652,0.036555,0.000047,0.029952,0.036555,0.714209,0.316082,-0.611984,-1.500784,3.802571,-10.530539
1790548261.2813,0.002804,0.028919,0.033948,0.001977,0.029229,0.033948,0.063429,-0.172003,-0.900950,0.990535,4.620531,-13.945924
1790548261.2956,0.005084,0.034840,0.020318,0.004152,0.033157,0.020318,-0.427085,0.002834,-1.248195,0.760567,3.430771,-16.546273
1790548261.3096,0.002036,0.041308,0.012607,0.002671,0.038862,0.012607,-0.400374,0.265088,-1.126780,1.028863,2.092291,-7.658511
1790548261.3238,-0.014935,0.051072,0.005100,-0.009653,0.047409,0.005100,-0.606778,1.155055,-0.949516,1.412143,1.832031,-6.144874
1790548261.3377,-0.030816,0.062656,-0.003842,-0.024467,0.058082,-0.003842,-0.739119,1.216976,-0.712758,0.645583,1.757671,-5.795574
1790548261.3516,-0.043295,0.069136,-0.015750,-0.037647,0.065820,-0.015750,-0.673556,0.987503,-0.609556,1.067191,0.493551,-11.539630
1790548261.3656,-0.048674,0.075620,-0.026288,-0.045366,0.072680,-0.026288,-0.614063,0.523701,-0.524566,0.453943,1.199971,-12.742777
1790548261.3792,-0.047897,0.081682,-0.034723,-0.047138,0.078982,-0.034723,-0.535143,0.092680,-0.582845,0.377287,1.943571,-12.354665
1790548261.3928,-0.044702,0.085792,-0.040215,-0.045433,0.083749,-0.040215,-0.323883,-0.142863,-0.517281,0.568927,2.055111,-9.366203
1790548261.4069,-0.045072,0.088718,-0.046559,-0.045180,0.087227,-0.046559,-0.048272,-0.063944,-0.263525,1.258831,2.798711,-6.882287
1790548261.4210,-0.042556,0.086193,-0.047306,-0.043343,0.086503,-0.047306,0.328112,-0.328627,0.081291,1.373815,3.765391,-9.288581
1790548261.4350,-0.043419,0.080280,-0.061593,-0.043396,0.082147,-0.061593,0.780987,-0.400261,0.450390,3.175230,4.917971,-7.231588
1790548261.4490,-0.049692,0.074597,-0.082859,-0.047803,0.076862,-0.082859,0.916970,0.116963,0.570590,2.446998,6.888510,-7.619700
1790548261.4629,-0.043042,0.062630,-0.075656,-0.044470,0.066900,-0.075656,1.056597,-0.743864,0.724786,1.297159,5.029511,-10.996273
1790548261.4769,-0.038967,0.048976,-0.063895,-0.040618,0.054353,-0.063895,1.112447,-0.549601,0.702932,1.335487,4.174371,-11.035084
1790548261.4908,-0.029994,0.038308,-0.067263,-0.033181,0.043121,-0.067263,1.009245,-0.822783,0.779423,0.377287,4.657711,-9.987182
1790548261.5048,-0.036378,0.032846,-0.066541,-0.035419,0.035929,-0.066541,0.527231,0.318511,0.702932,0.492271,4.174371,-12.082986
1790548261.5187,-0.032835,0.034511,-0.093632,-0.033610,0.034937,-0.093632,-0.043416,-0.142863,1.016180,-3.110559,3.653851,-12.703965
1790548261.5331,-0.025629,0.033210,-0.086676,-0.028024,0.033728,-0.086676,-0.017919,-0.600595,1.148522,-1.194160,1.162791,-10.646972
1790548261.5479,-0.028520,0.027900,0.000896,-0.028371,0.029649,0.000896,0.063429,-0.281275,1.010110,1.948735,-0.584669,-8.124245
1790548261.5625,-0.018585,0.024492,-0.005736,-0.021521,0.026039,-0.005736,0.081641,-0.560528,0.772138,-2.190688,0.270471,-8.163056
1790548261.5766,-0.013267,0.021002,0.002824,-0.015743,0.022513,0.002824,-0.062842,-0.222997,0.294980,-1.999048,-1.216729,-9.172147
1790548261.5906,-0.010192,0.020031,0.003173,-0.011857,0.020775,0.003173,-0.183042,-0.043304,-0.098402,-1.807408,-0.807749,-11.151518
1790548261.6043,-0.006092,0.017816,0.002738,-0.007822,0.018704,0.002738,-0.072555,-0.147720,-0.262311,-1.117504,-0.510309,-10.103616
1790548261.6181,-0.004431,0.014268,0.002174,-0.005448,0.015599,0.002174,0.029433,-0.012950,-0.426220,-0.389272,-0.473129,-9.909560
1790548261.6320,-0.001535,0.011514,-0.005694,-0.002709,0.012739,-0.005694,0.030647,-0.012950,-0.648408,-0.810880,0.084571,-8.784035
1790548261.6462,0.002310,0.009765,-0.014478,0.000804,0.010657,-0.014478,-0.061628,-0.091869,-0.784392,-0.542584,-0.101329,-9.094525
1790548261.6602,-0.000188,0.006736,-0.027331,0.000110,0.007912,-0.027331,0.093782,0.376790,-0.920376,-0.580912,0.679451,-12.277042
1790548261.6742,0.001074,0.006215,-0.035832,0.000784,0.006724,-0.035832,0.284402,0.200739,-0.763752,-1.807408,4.248731,-8.939280
1790548261.6881,0.002404,0.006584,-0.043509,0.001918,0.006626,-0.043509,0.207912,0.165529,-0.656907,-1.539112,3.728211,-8.124245
1790548261.7021,-0.000613,0.002290,-0.053127,0.000146,0.003591,-0.053127,0.443455,0.420499,-0.647194,-0.964192,2.798711,-8.434735
1790548261.7161,-0.004771,-0.000343,-0.050510,-0.003296,0.000837,-0.050510,0.574582,0.444782,-0.743111,-0.312616,4.657711,-6.921098
1790548261.7300,-0.000655,-0.002079,-0.061260,-0.001447,-0.001204,-0.061260,0.142348,-0.158647,-0.870596,-0.120976,2.352551,-12.354665
1790548261.7440,0.003590,0.002069,-0.067160,0.002079,0.001087,-0.067160,-0.237679,-0.219354,-1.245766,1.527127,3.691031,-14.644525
1790548261.7579,0.011732,0.009825,-0.082404,0.008836,0.007204,-0.082404,-0.469580,-0.368694,-1.255479,-0.312616,2.687171,-8.978091
1790548261.7719,0.005145,0.015671,-0.096163,0.006252,0.013131,-0.096163,-0.349380,0.662113,-1.189916,0.070663,1.943571,-6.688231
1790548261.7860,-0.010694,0.018996,-0.098189,-0.005610,0.017236,-0.098189,-0.259533,1.145342,-1.092784,1.450471,1.162791,-6.765853
1790548261.8008,-0.021901,0.021974,-0.109932,-0.017014,0.020553,-0.109932,-0.363949,0.829665,-0.996867,1.450471,-0.138509,-9.288581
1790548261.8149,-0.028868,0.025686,-0.126537,-0.025312,0.024146,-0.126537,-0.440440,0.637830,-0.977441,0.913879,-0.361589,-12.199420
1790548261.8286,-0.032823,0.027583,-0.139338,-0.030570,0.026552,-0.139338,-0.304456,0.385289,-0.898522,1.143847,-0.175689,-10.452916
1790548261.8422,-0.028587,0.028172,-0.153301,-0.029182,0.027686,-0.153301,-0.223109,-0.146506,-0.694546,-0.197632,-0.212869,-9.443825
1790548261.8565,-0.024250,0.025197,-0.161721,-0.025730,0.025943,-0.161721,0.037932,-0.229067,-0.445647,0.185647,-0.175689,-9.405014
1790548261.8707,-0.018900,0.021472,-0.162666,-0.020949,0.022813,-0.162666,0.290473,-0.426972,-0.205246,0.990535,2.092291,-9.521448
1790548261.8847,-0.013185,0.015184,-0.160640,-0.015514,0.017473,-0.160640,0.558799,-0.532603,0.148069,1.067191,3.096151,-9.831937
1790548261.8987,-0.008076,0.008399,-0.156450,-0.010307,0.011121,-0.156450,0.609793,-0.555672,0.333833,1.642111,3.542311,-10.608161
1790548261.9130,-0.002460,0.001879,-0.157390,-0.004814,0.004651,-0.157390,0.692354,-0.575098,0.497742,1.067191,4.360271,-9.133336
1790548261.9271,-0.007763,-0.002902,-0.152462,-0.006878,-0.000636,-0.152462,0.573368,0.116963,0.681077,1.948735,4.508991,-9.676693
1790548261.9411,-0.010058,-0.002232,-0.149406,-0.009104,-0.001753,-0.149406,0.014863,0.099965,0.859556,-1.232488,3.430771,-14.605714
1790548261.9552,-0.003688,-0.001094,-0.140103,-0.005313,-0.001292,-0.140103,-0.084697,-0.537459,1.137595,-1.194160,1.385871,-9.249770
1790548261.9694,0.002802,-0.000131,-0.126773,0.000368,-0.000479,-0.126773,-0.068913,-0.586025,1.392565,-1.002520,1.014071,-7.115154
1790548261.9834,0.003652,0.000832,-0.099169,0.002667,0.000438,-0.099169,-0.201254,-0.327413,1.396207,0.147319,-0.138509,-6.921098
1790548261.9975,0.003700,0.001960,-0.090479,0.003390,0.001504,-0.090479,-0.130834,-0.028734,1.240797,-2.152360,0.716631,-9.094525
1790548262.0117,0.005648,0.004670,-0.082862,0.004970,0.003720,-0.082862,-0.240107,-0.164718,0.843772,-1.577440,0.865351,-9.870749
1790548262.0257,0.011669,0.003382,-0.074959,0.009660,0.003483,-0.074959,-0.085911,-0.443970,0.474673,-1.385800,-0.844929,-12.432287
1790548262.0399,0.013530,0.004379,-0.071234,0.012369,0.004110,-0.071234,-0.206111,-0.139221,0.199063,-0.619240,-0.101329,-10.530539
1790548262.0542,0.019061,0.007598,-0.071680,0.017053,0.006552,-0.071680,-0.349380,-0.266706,-0.002485,-1.960720,0.121751,-10.258860
1790548262.0679,0.022789,0.011663,-0.073593,0.021068,0.010129,-0.073593,-0.404016,-0.283704,-0.194319,0.147319,0.419191,-8.706413
1790548262.0817,0.027036,0.015990,-0.076627,0.025246,0.014232,-0.076627,-0.401588,-0.344411,-0.312091,0.568927,0.716631,-8.551168
1790548262.0957,0.030813,0.021540,-0.080994,0.029143,0.019347,-0.080994,-0.433156,-0.256993,-0.359443,0.185647,1.423051,-9.288581
1790548262.1098,0.028295,0.023084,-0.088682,0.028549,0.021963,-0.088682,-0.232822,0.242020,-0.567061,0.262303,0.865351,-14.023546
1790548262.1238,0.022084,0.018069,-0.099238,0.024024,0.019237,-0.099238,0.360893,0.606262,-0.673905,-0.887536,2.798711,-12.587532
1790548262.1378,0.018834,0.021414,-0.105434,0.020391,0.020761,-0.105434,0.044002,0.458137,-0.694546,-1.539112,5.661571,-8.434735
1790548262.1519,0.015842,0.020213,-0.117429,0.017207,0.020377,-0.117429,0.255263,0.517630,-0.784392,-2.037376,3.802571,-8.046623
1790548262.1659,0.014109,0.016933,-0.128073,0.015038,0.017966,-0.128073,0.453168,0.436283,-0.806247,-1.999048,4.062831,-7.386832
1790548262.1798,0.007342,0.012154,-0.134787,0.009651,0.013897,-0.134787,0.614649,0.733747,-0.851170,-1.002520,4.025651,-6.455364
1790548262.1938,0.005570,-0.002500,-0.143781,0.006795,0.002419,-0.143781,1.111233,0.268731,-0.738255,-0.465928,3.170511,-11.656063
1790548262.2078,0.008546,-0.003551,-0.145847,0.008020,-0.001760,-0.145847,0.176344,-0.144077,-1.100069,1.603783,4.657711,-14.217602
1790548262.2218,0.008549,-0.001270,-0.148561,0.008390,-0.001417,-0.148561,-0.113836,0.036830,-1.378108,2.868606,3.542311,-13.053266
1790548262.2357,0.012637,0.001794,-0.178868,0.011363,0.000830,-0.178868,-0.268032,0.036830,-1.398748,-1.500784,1.423051,-9.793126
1790548262.2497,-0.001283,0.009200,-0.176665,0.002511,0.006689,-0.176665,-0.444083,0.930438,-1.199629,1.872079,1.683311,-5.019350
1790548262.2638,-0.013936,0.012840,-0.189723,-0.009002,0.010995,-0.189723,-0.401588,1.013000,-0.931303,0.837223,-0.064149,-9.327392
1790548262.2779,-0.021672,0.018787,-0.203001,-0.017871,0.016449,-0.203001,-0.506004,0.692467,-0.883952,0.530599,0.753811,-12.277042
1790548262.2916,-0.029348,0.023568,-0.212730,-0.025905,0.021432,-0.212730,-0.445297,0.648757,-0.790463,1.182175,0.493551,-11.384385
1790548262.3056,-0.028845,0.025637,-0.218647,-0.027963,0.024376,-0.218647,-0.271675,-0.002023,-0.520923,1.143847,0.121751,-11.229140
1790548262.3196,-0.023162,0.026058,-0.223821,-0.024602,0.025554,-0.223821,-0.079840,-0.328627,-0.469929,0.223975,1.274331,-11.073895
1790548262.3335,-0.016588,0.022698,-0.224095,-0.018992,0.023555,-0.224095,0.240693,-0.490108,-0.299950,0.798895,1.608951,-8.706413
1790548262.3475,-0.011887,0.017968,-0.228226,-0.014018,0.019644,-0.228226,0.484736,-0.389334,0.015727,0.492271,2.910251,-7.270399
1790548262.3615,-0.009043,0.009575,-0.229926,-0.010535,0.012596,-0.229926,0.787057,-0.349267,0.279196,1.182175,3.876931,-8.473546
1790548262.3755,-0.004093,-0.003206,-0.221947,-0.006026,0.001535,-0.221947,1.040813,-0.527746,0.581518,0.990535,3.579491,-10.646972
1790548262.3894,-0.009891,-0.009001,-0.212506,-0.008731,-0.005840,-0.212506,0.557584,0.209238,0.891124,1.488799,5.103871,-14.411658
1790548262.4036,-0.012553,-0.007990,-0.212097,-0.011407,-0.007345,-0.212097,-0.036131,0.140032,1.089029,-2.382327,3.096151,-15.187882
1790548262.4182,-0.005399,-0.006465,-0.218916,-0.007201,-0.006729,-0.218916,-0.016705,-0.491322,1.293005,-2.382327,2.315371,-8.007811
1790548262.4323,-0.003118,-0.008592,-0.204823,-0.004343,-0.008033,-0.204823,0.064643,-0.303130,1.260223,-0.504256,0.121751,-5.756762
1790548262.4465,-0.004902,-0.010520,-0.193152,-0.004735,-0.009774,-0.193152,0.002721,0.029545,1.137595,-0.887536,-0.361589,-7.619700
1790548262.4607,-0.000392,-0.012979,-0.189765,-0.001695,-0.012018,-0.189765,0.094996,-0.300702,0.942118,-2.114032,0.233291,-8.784035
1790548262.4747,-0.001290,-0.014597,-0.182466,-0.001412,-0.013823,-0.182466,-0.003349,0.004048,0.631297,-0.619240,-0.287229,-10.841028
1790548262.4895,-0.000141,-0.018120,-0.178591,-0.000523,-0.016831,-0.178591,0.085283,-0.065158,0.403039,-1.462456,-1.105189,-12.354665
1790548262.5038,0.002607,-0.020679,-0.178807,0.001668,-0.019524,-0.178807,0.118065,-0.134364,0.237915,-1.539112,0.530731,-10.414105
1790548262.5177,0.002913,-0.019202,-0.180860,0.002540,-0.019299,-0.180860,-0.184256,0.010119,0.015727,-0.619240,0.344831,-10.025993
1790548262.5315,0.006310,-0.016236,-0.184780,0.005179,-0.017154,-0.184780,-0.265604,-0.179288,-0.153038,-0.772552,0.753811,-9.366203
1790548262.5454,0.009071,-0.014705,-0.188405,0.007904,-0.015440,-0.188405,-0.172115,-0.193857,-0.302378,0.300631,0.642271,-9.288581
1790548262.5600,0.010228,-0.011537,-0.192181,0.009530,-0.012708,-0.192181,-0.263176,-0.084584,-0.366727,0.683911,1.014071,-10.530539
1790548262.5743,0.011249,-0.008134,-0.196920,0.010733,-0.009506,-0.196920,-0.275317,-0.055445,-0.398295,0.377287,1.051251,-9.172147
1790548262.5884,0.008842,-0.007342,-0.201096,0.009410,-0.007991,-0.201096,-0.163616,0.152173,-0.497855,1.412143,0.196111,-11.811308
1790548262.6025,0.002747,-0.011634,-0.212639,0.004746,-0.010541,-0.212639,0.229766,0.614761,-0.735827,-1.270816,0.790991,-12.509909
1790548262.6168,0.000505,-0.009005,-0.193421,0.001777,-0.009466,-0.193421,0.158132,0.387717,-0.584059,-1.654096,4.657711,-5.562707
1790548262.6308,-0.007426,-0.015054,-0.199690,-0.004665,-0.013378,-0.199690,0.578225,0.677897,-0.664192,-0.120976,3.319231,-8.628791
1790548262.6449,-0.002815,-0.017413,-0.213165,-0.003370,-0.016202,-0.213165,0.235837,-0.117366,-0.800176,-1.807408,3.058971,-11.927742
1790548262.6588,0.000620,-0.013447,-0.227028,-0.000577,-0.014274,-0.227028,-0.264390,-0.096726,-1.217841,0.377287,2.835891,-14.217602
1790548262.6728,0.004833,-0.011806,-0.247770,0.003210,-0.012546,-0.247770,-0.193970,-0.096726,-1.363538,-0.159304,0.753811,-10.996273
1790548262.6868,0.009597,-0.004795,-0.263673,0.007681,-0.007120,-0.263673,-0.411301,-0.085799,-1.219055,-0.887536,2.315371,-6.959909
1790548262.7008,-0.003769,0.002470,-0.276284,-0.000334,-0.000407,-0.276284,-0.499933,1.089491,-1.057574,0.453943,1.571771,-7.076343
1790548262.7147,-0.014823,0.003656,-0.295389,-0.010476,0.002437,-0.295389,-0.201254,0.948650,-1.053932,0.568927,0.047391,-10.414105
1790548262.7286,-0.023252,0.010900,-0.310796,-0.019419,0.008361,-0.310796,-0.513289,0.765315,-1.159562,0.798895,1.683311,-9.715504
1790548262.7424,-0.029560,0.018082,-0.325813,-0.026518,0.015166,-0.325813,-0.640774,0.539485,-1.038148,1.757095,-0.175689,-9.831937
1790548262.7559,-0.030997,0.022660,-0.340864,-0.029653,0.020412,-0.340864,-0.445297,0.268731,-0.853598,0.185647,0.121751,-10.569350
1790548262.7695,-0.026081,0.024740,-0.351409,-0.027153,0.023442,-0.351409,-0.207325,-0.224211,-0.704259,-0.005993,1.125611,-11.694875
1790548262.7833,-0.021765,0.024723,-0.355453,-0.023381,0.024338,-0.355453,0.061000,-0.255778,-0.479643,0.530599,2.761531,-10.103616
1790548262.7974,-0.016234,0.022533,-0.352759,-0.018378,0.023074,-0.352759,0.263762,-0.446399,-0.179749,1.143847,3.207691,-8.900469
1790548262.8121,-0.013619,0.017667,-0.344031,-0.015047,0.019289,-0.344031,0.479879,-0.333484,0.184493,1.872079,4.137191,-9.249770
1790548262.8263,-0.009493,0.008634,-0.330962,-0.011159,0.011830,-0.330962,0.784629,-0.519247,0.542665,1.795423,3.728211,-8.939280
1790548262.8407,-0.006705,-0.000224,-0.319587,-0.008042,0.003392,-0.319587,0.836837,-0.435471,0.730857,1.527127,4.285911,-7.813756
1790548262.8549,-0.011581,-0.008142,-0.303972,-0.010519,-0.004682,-0.303972,0.636504,0.130319,0.931191,1.642111,4.397451,-15.847672
1790548262.8702,-0.012893,-0.009676,-0.297277,-0.012181,-0.008178,-0.297277,0.114423,0.012547,1.070817,-2.267343,2.835891,-15.808861
1790548262.8846,-0.006351,-0.008024,-0.290968,-0.008100,-0.008071,-0.290968,-0.156331,-0.503463,1.238368,-3.033903,1.162791,-13.363756
1790548262.8991,-0.005747,-0.009891,-0.273673,-0.006453,-0.009345,-0.273673,0.014863,-0.205999,1.243225,-0.274288,-0.175689,-5.291028
1790548262.9135,-0.003876,-0.010473,-0.264566,-0.004649,-0.010134,-0.264566,0.081641,-0.205999,0.984613,-1.002520,1.683311,-8.046623
1790548262.9281,-0.003672,-0.008884,-0.260728,-0.003965,-0.009259,-0.260728,-0.124763,-0.031162,0.654366,-1.079176,0.976891,-7.930189
1790548262.9420,0.000081,-0.009360,-0.259960,-0.001133,-0.009329,-0.259960,-0.102909,-0.242423,0.335047,-1.500784,-0.659029,-11.462007
1790548262.9559,0.002559,-0.010398,-0.259217,0.001451,-0.010078,-0.259217,-0.048272,-0.170789,0.184493,-0.887536,-0.435949,-12.703965
1790548262.9700,0.006644,-0.006200,-0.261761,0.005086,-0.007363,-0.261761,-0.380947,-0.233924,-0.017054,-1.194160,0.382011,-11.539630
1790548262.9837,0.011204,-0.002465,-0.266294,0.009369,-0.003935,-0.266294,-0.371234,-0.264277,-0.216174,-0.734224,0.196111,-9.521448
1790548262.9973,0.016624,0.001257,-0.272740,0.014448,-0.000301,-0.272740,-0.340881,-0.314057,-0.416507,-0.465928,0.642271,-8.163056
1790548263.0114,0.019380,0.004321,-0.277838,0.017901,0.002935,-0.277838,-0.312955,-0.198714,-0.497855,0.913879,0.419191,-9.637881
1790548263.0254,0.022665,0.006392,-0.283692,0.021236,0.005355,-0.283692,-0.229180,-0.216926,-0.506354,0.645583,0.716631,-10.220049
1790548263.0395,0.018061,0.005461,-0.294190,0.019014,0.005429,-0.294190,-0.059200,0.413214,-0.711544,0.377287,0.196111,-12.509909
1790548263.0537,0.011890,-0.000241,-0.298546,0.014027,0.001460,-0.298546,0.521160,0.713107,-0.739469,-2.573967,3.802571,-9.443825
1790548263.0682,0.012409,0.002103,-0.296261,0.012894,0.001910,-0.296261,0.074356,0.176456,-0.718829,-1.462456,4.546171,-6.998721
1790548263.0822,0.008674,-0.003032,-0.307278,0.009940,-0.001549,-0.307278,0.493235,0.532200,-0.837814,-1.692424,3.021791,-7.425644
1790548263.0962,0.002395,-0.007925,-0.311453,0.004658,-0.006012,-0.311453,0.625576,0.708250,-0.888808,-1.347472,4.025651,-5.640329
1790548263.1102,0.008288,-0.011775,-0.319897,0.007199,-0.010046,-0.319897,0.512661,-0.180502,-1.012651,-1.577440,5.141051,-8.395923
1790548263.1242,0.015073,-0.009076,-0.338745,0.012711,-0.009367,-0.338745,-0.181828,-0.248494,-1.318615,-1.270816,3.207691,-14.605714
1790548263.1383,0.017771,-0.005779,-0.351069,0.016253,-0.006856,-0.351069,-0.247392,-0.036019,-1.444886,0.798895,2.241011,-11.345574
1790548263.1524,0.020537,-0.003491,-0.377248,0.019252,-0.004500,-0.377248,-0.210968,0.092680,-1.465526,-1.155832,1.571771,-9.909560
1790548263.1664,0.006485,-0.000100,-0.388925,0.010315,-0.001420,-0.388925,-0.274103,1.121059,-1.362324,0.798895,0.902531,-5.291028
1790548263.1803,-0.003478,0.002637,-0.413589,0.000660,0.001420,-0.413589,-0.334810,0.900085,-1.203271,0.377287,-0.138509,-9.987182
1790548263.1943,-0.008937,0.008655,-0.436725,-0.006058,0.006485,-0.436725,-0.515717,0.606262,-1.277334,0.147319,0.605091,-10.608161
1790548263.2079,-0.014311,0.012688,-0.453737,-0.011835,0.010827,-0.453737,-0.391875,0.520058,-1.078215,1.182175,0.382011,-10.802217
1790548263.2214,-0.016090,0.014857,-0.472359,-0.014813,0.013648,-0.472359,-0.277745,0.280872,-0.882738,0.262303,0.010211,-11.229140
1790548263.2351,-0.010620,0.013696,-0.485748,-0.011878,0.013681,-0.485748,-0.032489,-0.303130,-0.599843,0.108991,0.010211,-11.656063
1790548263.2495,-0.001595,0.011019,-0.488687,-0.004680,0.011818,-0.488687,0.193342,-0.590882,-0.416507,0.262303,1.571771,-8.279490
1790548263.2634,0.003487,0.006558,-0.484043,0.001037,0.008136,-0.484043,0.376677,-0.416045,-0.111758,0.722239,2.241011,-8.589979
1790548263.2774,0.009772,0.000020,-0.473889,0.007152,0.002455,-0.473889,0.573368,-0.532603,0.216061,0.377287,2.873071,-8.667602
1790548263.2915,0.011963,-0.008827,-0.454362,0.010519,-0.005443,-0.454362,0.818625,-0.379621,0.548736,2.025391,4.694891,-10.220049
1790548263.3054,0.001350,-0.010758,-0.437741,0.004101,-0.009164,-0.437741,0.268619,0.566196,0.934833,1.067191,4.583351,-13.402567
1790548263.3197,0.006609,-0.008371,-0.428771,0.005857,-0.008609,-0.428771,-0.144190,-0.457326,1.152164,-2.497311,2.538451,-15.304315
1790548263.3339,0.011224,-0.005852,-0.414320,0.009614,-0.006679,-0.414320,-0.150260,-0.474324,1.385280,-1.117504,1.311511,-8.357112
1790548263.3479,0.010034,-0.004985,-0.396492,0.009908,-0.005493,-0.396492,-0.077412,-0.133150,1.365853,-0.120976,0.567911,-6.494175
1790548263.3620,0.008367,-0.005281,-0.395954,0.008829,-0.005344,-0.395954,-0.051915,0.089038,1.225013,-1.692424,0.047391,-6.183686
1790548263.3759,0.006501,-0.005878,-0.388176,0.007200,-0.005718,-0.388176,0.019719,0.050185,1.062318,-1.155832,0.753811,-8.007811
1790548263.3899,0.004416,-0.004425,-0.381546,0.005251,-0.004813,-0.381546,-0.156331,0.047757,0.802491,-0.657568,0.716631,-12.393476
1790548263.4039,0.006007,-0.003773,-0.378723,0.005780,-0.004085,-0.378723,-0.106551,-0.159861,0.559663,-1.040848,0.642271,-12.199420
1790548263.4180,0.010145,-0.005264,-0.380911,0.008836,-0.004910,-0.380911,0.020934,-0.249708,0.352045,-2.037376,0.158931,-11.035084
1790548263.4320,0.013250,-0.001426,-0.384723,0.011926,-0.002471,-0.384723,-0.351808,-0.185358,0.106788,-1.117504,0.382011,-10.064805
1790548263.4456,0.018936,0.003047,-0.390526,0.016833,0.001391,-0.390526,-0.412515,-0.358981,-0.104473,-0.887536,0.382011,-8.784035
1790548263.4594,0.024335,0.007711,-0.394119,0.022084,0.005815,-0.394119,-0.391875,-0.407546,-0.234386,0.377287,0.828171,-8.667602
1790548263.4735,0.027840,0.011405,-0.399763,0.026113,0.009728,-0.399763,-0.354236,-0.264277,-0.319376,0.645583,0.456371,-9.793126
1790548263.4876,0.027959,0.013130,-0.407778,0.027405,0.012109,-0.407778,-0.187899,0.036830,-0.439576,0.147319,1.311511,-12.898021
1790548263.5016,0.021588,0.007799,-0.415018,0.023333,0.009092,-0.415018,0.374249,0.567410,-0.490570,-0.810880,2.426911,-12.315854
1790548263.5157,0.016438,0.011478,-0.395030,0.018507,0.010762,-0.395030,-0.023990,0.510345,-0.608342,-0.810880,5.141051,-7.852567
1790548263.5297,0.013517,0.010652,-0.395913,0.015014,0.010685,-0.395913,0.205483,0.414428,-0.728542,-1.309144,3.802571,-8.163056
1790548263.5436,0.010350,0.007379,-0.396131,0.011749,0.008371,-0.396131,0.444669,0.469064,-0.806247,-1.539112,4.285911,-7.192776
1790548263.5579,0.003447,0.000583,-0.400335,0.005938,0.002920,-0.400335,0.669286,0.698537,-0.839029,-0.964192,3.616671,-6.571797
1790548263.5724,0.002351,-0.008817,-0.414117,0.003427,-0.005296,-0.414117,0.685069,0.269945,-0.874239,-1.232488,2.910251,-11.888930
1790548263.5864,0.008654,-0.006122,-0.412404,0.007086,-0.005875,-0.412404,-0.073769,-0.377193,-1.219055,2.102047,5.401311,-13.984735
1790548263.6003,0.010986,-0.002628,-0.422301,0.009816,-0.003602,-0.422301,-0.230394,-0.026306,-1.447314,1.603783,3.579491,-14.799770
1790548263.6143,0.013523,-0.001954,-0.440079,0.012411,-0.002448,-0.440079,-0.060414,0.040472,-1.464312,-0.044320,1.385871,-6.998721
1790548263.6283,-0.000838,0.002816,-0.446475,0.003137,0.001237,-0.446475,-0.298386,1.004501,-1.226340,2.178703,1.608951,-5.640329
1790548263.6423,-0.009049,0.006592,-0.466027,-0.005393,0.004985,-0.466027,-0.393089,0.694895,-1.026007,1.143847,-0.138509,-9.831937
1790548263.6563,-0.015134,0.011701,-0.485796,-0.012212,0.009687,-0.485796,-0.441655,0.615976,-1.068501,0.300631,0.642271,-11.500819
1790548263.6700,-0.020158,0.015403,-0.504640,-0.017774,0.013688,-0.504640,-0.380947,0.499418,-0.945873,0.913879,0.010211,-11.539630
1790548263.6836,-0.024337,0.020484,-0.516701,-0.022368,0.018445,-0.516701,-0.447725,0.381646,-0.728542,1.220503,0.605091,-10.996273
1790548263.6976,-0.016403,0.016513,-0.528538,-0.018192,0.017093,-0.528538,0.154489,-0.514391,-0.417721,0.415615,-0.398769,-13.635434
1790548263.7115,-0.010483,0.014023,-0.530745,-0.012796,0.014944,-0.530745,0.209126,-0.388120,-0.355800,0.300631,2.092291,-9.133336
1790548263.7255,-0.002789,0.007919,-0.529855,-0.005791,0.010027,-0.529855,0.484736,-0.536245,-0.032838,-0.312616,2.055111,-8.201867
1790548263.7394,0.000859,0.000837,-0.525862,-0.001136,0.003594,-0.525862,0.671714,-0.312843,0.180851,0.108991,3.839751,-8.706413
1790548263.7533,0.005085,-0.010926,-0.513454,0.003219,-0.006570,-0.513454,0.976463,-0.462183,0.523239,0.990535,3.616671,-9.987182
1790548263.7672,-0.004785,-0.016986,-0.496868,-0.002384,-0.013861,-0.496868,0.534516,0.481206,0.866841,2.370342,4.397451,-14.683336
1790548263.7812,-0.004681,-0.015380,-0.489016,-0.003992,-0.014924,-0.489016,-0.090767,-0.091869,1.126667,-2.037376,2.724351,-15.265504
1790548263.7950,0.002950,-0.012298,-0.479087,0.000868,-0.013086,-0.479087,-0.144190,-0.658874,1.381637,-1.960720,2.835891,-10.841028
1790548263.8090,0.005699,-0.011767,-0.461849,0.004249,-0.012163,-0.461849,0.040360,-0.371122,1.422918,-0.619240,1.757671,-7.153965
1790548263.8235,0.000497,-0.012405,-0.446982,0.001623,-0.012332,-0.446982,-0.017919,0.169171,1.336714,-0.197632,0.121751,-6.959909
1790548263.8375,-0.003687,-0.014826,-0.437072,-0.002094,-0.014077,-0.437072,0.139920,0.178884,1.229869,-0.734224,0.567911,-7.192776
1790548263.8515,0.000889,-0.012986,-0.437014,-0.000006,-0.013314,-0.437014,-0.214610,-0.350482,0.919049,-2.382327,0.047391,-12.277042
1790548263.8656,0.003376,-0.010480,-0.437187,0.002362,-0.011330,-0.437187,-0.265604,-0.197500,0.592445,-1.500784,0.010211,-12.005364
1790548263.8796,0.004855,-0.012380,-0.440706,0.004107,-0.012065,-0.440706,-0.031274,-0.128294,0.315620,-0.657568,-1.476988,-11.772497
1790548263.8935,0.011419,-0.011897,-0.444861,0.009226,-0.011948,-0.444861,-0.123549,-0.434257,0.059437,-1.040848,0.084571,-9.831937
1790548263.9071,0.015859,-0.008946,-0.451226,0.013869,-0.009847,-0.451226,-0.297172,-0.271562,-0.210103,-0.619240,0.344831,-9.443825
1790548263.9207,0.020225,-0.006315,-0.458803,0.018318,-0.007374,-0.458803,-0.278959,-0.249708,-0.301164,-0.619240,0.307651,-8.551168
1790548263.9348,0.022905,-0.003790,-0.463880,0.021529,-0.004865,-0.463880,-0.229180,-0.178073,-0.346087,0.300631,0.976891,-10.064805
1790548263.9486,0.022703,-0.000441,-0.467502,0.022351,-0.001768,-0.467502,-0.289887,-0.016592,-0.400723,1.067191,0.976891,-9.016902
1790548263.9625,0.016247,-0.002128,-0.477776,0.018078,-0.002020,-0.477776,0.052501,0.543127,-0.568275,0.070663,0.976891,-11.617252
1790548263.9765,0.009555,-0.004386,-0.478468,0.012112,-0.003676,-0.478468,0.302615,0.632974,-0.641123,-0.925864,3.951291,-9.016902
1790548263.9903,0.004844,-0.003949,-0.472825,0.007024,-0.003867,-0.472825,0.198198,0.501846,-0.565847,-1.117504,4.508991,-7.348021
1790548264.0043,0.001900,-0.008803,-0.483197,0.003437,-0.007322,-0.483197,0.447098,0.443567,-0.729756,-1.769080,2.910251,-8.240679
1790548264.0183,0.004091,-0.010805,-0.487957,0.003895,-0.009760,-0.487957,0.230980,-0.034805,-0.726113,-0.427600,3.467951,-10.879840
1790548264.0323,0.007840,-0.007679,-0.501221,0.006656,-0.008303,-0.501221,-0.206111,-0.091869,-1.060003,-0.657568,3.058971,-14.139979
1790548264.0463,0.003790,-0.002883,-0.517286,0.004650,-0.004509,-0.517286,-0.388232,0.431426,-1.308902,1.373815,1.794851,-14.334035
1790548264.0605,0.011954,0.006903,-0.527794,0.009762,0.003479,-0.527794,-0.497505,-0.303130,-1.197201,-0.925864,2.947431,-5.096972
1790548264.0749,-0.002417,0.012422,-0.541877,0.001237,0.009739,-0.541877,-0.413729,1.140485,-1.202057,1.028863,1.311511,-7.969000
1790548264.0889,-0.009764,0.014531,-0.563984,-0.006464,0.013093,-0.563984,-0.241321,0.731319,-1.079429,-0.044320,0.456371,-10.025993
1790548264.1029,-0.019151,0.019647,-0.586315,-0.015345,0.017681,-0.586315,-0.464723,0.856376,-1.100069,0.568927,0.196111,-11.617252
1790548264.1169,-0.023323,0.025763,-0.607358,-0.020930,0.023338,-0.607358,-0.555784,0.462994,-0.985940,0.683911,-0.212869,-12.121798
1790548264.1305,-0.028385,0.032374,-0.621223,-0.026148,0.029663,-0.621223,-0.592208,0.428998,-0.839029,1.795423,0.047391,-9.172147
1790548264.1442,-0.023619,0.033188,-0.636178,-0.024378,0.032131,-0.636178,-0.198826,-0.199928,-0.594986,-0.427600,-0.361589,-10.103616
1790548264.1583,-0.020226,0.031143,-0.644336,-0.021472,0.031439,-0.644336,0.069499,-0.189001,-0.408008,0.492271,0.679451,-10.258860
1790548264.1725,-0.013722,0.029037,-0.641980,-0.016047,0.029757,-0.641980,0.211554,-0.456112,-0.170036,0.377287,2.873071,-9.482637
1790548264.1869,-0.009197,0.025428,-0.632048,-0.011252,0.026727,-0.632048,0.343895,-0.453684,0.109216,1.987063,3.691031,-10.336483
1790548264.2009,-0.004333,0.020191,-0.618329,-0.006409,0.022152,-0.618329,0.507805,-0.516819,0.394540,1.488799,4.285911,-10.181238
1790548264.2149,-0.000355,0.013655,-0.601237,-0.002171,0.016204,-0.601237,0.658358,-0.507106,0.614299,1.527127,4.471811,-8.512357
1790548264.2293,0.000665,0.006609,-0.584021,-0.000186,0.009487,-0.584021,0.676570,-0.309201,0.800063,1.335487,4.100011,-8.163056
1790548264.2433,-0.006816,0.003376,-0.566629,-0.004827,0.005209,-0.566629,0.349966,0.290585,1.000397,1.450471,4.137191,-11.306763
1790548264.2575,-0.002697,0.004107,-0.559539,-0.003336,0.004438,-0.559539,-0.031274,-0.379621,1.235940,-2.842263,2.612811,-13.635434
1790548264.2718,0.003239,0.006494,-0.542647,0.001267,0.005877,-0.542647,-0.099266,-0.601809,1.464199,-1.079176,2.241011,-8.667602
1790548264.2857,0.007943,0.008367,-0.523678,0.005940,0.007620,-0.523678,-0.134477,-0.567813,1.343999,-0.197632,0.865351,-6.494175
1790548264.2996,0.009050,0.008907,-0.505791,0.008117,0.008521,-0.505791,-0.191541,-0.331055,1.140023,0.300631,-0.584669,-4.980539
1790548264.3137,0.010056,0.010557,-0.494555,0.009474,0.009946,-0.494555,-0.100481,-0.204784,0.853485,-0.350944,1.237151,-7.153965
1790548264.3279,0.017149,0.012258,-0.488355,0.014846,0.011564,-0.488355,-0.198826,-0.567813,0.587588,-1.194160,0.196111,-12.509909
1790548264.3420,0.019225,0.016773,-0.486982,0.017911,0.015210,-0.486982,-0.412515,-0.161075,0.328976,-1.347472,0.158931,-12.626343
1790548264.3556,0.025580,0.023165,-0.488968,0.023279,0.020778,-0.488968,-0.581281,-0.422116,0.110430,-1.884064,0.010211,-12.393476
1790548264.3692,0.033626,0.028167,-0.491059,0.030522,0.025950,-0.491059,-0.475650,-0.575098,-0.153038,-0.350944,0.196111,-8.978091
1790548264.3828,0.040354,0.032317,-0.495426,0.037404,0.030407,-0.495426,-0.385804,-0.460968,-0.418935,0.108991,0.790991,-8.706413
1790548264.3968,0.040377,0.033761,-0.502274,0.039485,0.032754,-0.502274,-0.138119,0.056256,-0.569489,0.415615,2.166651,-11.345574
1790548264.4109,0.039158,0.033806,-0.511837,0.039256,0.033491,-0.511837,0.086497,0.297870,-0.679976,-1.845736,4.285911,-9.909560
1790548264.4249,0.036822,0.033298,-0.523691,0.037552,0.033356,-0.523691,0.155703,0.464208,-0.762538,-2.880591,4.583351,-8.978091
1790548264.4389,0.034081,0.029380,-0.534559,0.035122,0.030573,-0.534559,0.388819,0.458137,-0.757681,-2.037376,3.876931,-8.318301
1790548264.4528,0.027517,0.022048,-0.545450,0.029798,0.024605,-0.545450,0.637718,0.719178,-0.800176,-1.577440,3.653851,-7.852567
1790548264.4668,0.025398,0.012636,-0.561754,0.026718,0.016227,-0.561754,0.791914,0.486062,-0.863311,-2.573967,3.356411,-7.076343
1790548264.4808,0.019805,0.000847,-0.570008,0.021879,0.005461,-0.570008,0.970393,0.628117,-0.955586,-0.964192,3.021791,-6.494175
1790548264.4947,0.031258,-0.012531,-0.578153,0.028444,-0.007133,-0.578153,0.944896,-0.714724,-0.937374,-0.005993,2.612811,-15.381938
1790548264.5087,0.037028,-0.012273,-0.585775,0.034453,-0.010731,-0.585775,-0.056771,-0.321342,-1.256694,2.025391,3.505131,-19.922847
1790548264.5228,0.036413,-0.009841,-0.595907,0.035825,-0.010108,-0.595907,-0.255891,0.126676,-1.274906,1.987063,1.794851,-15.187882
1790548264.5368,0.029742,-0.006678,-0.604735,0.031567,-0.007707,-0.604735,-0.297172,0.533414,-1.149849,1.143847,0.902531,-7.076343
1790548264.5507,0.020158,-0.002262,-0.618141,0.023581,-0.003896,-0.618141,-0.410087,0.800525,-0.951944,0.300631,0.456371,-6.028441
1790548264.5649,0.013506,-0.000357,-0.630634,0.016528,-0.001419,-0.630634,-0.243749,0.545555,-0.847528,0.798895,0.233291,-9.172147
1790548264.5797,0.007889,0.001202,-0.640655,0.010481,0.000416,-0.640655,-0.208539,0.396216,-0.775893,1.795423,0.158931,-9.948371
1790548264.5935,0.003041,0.005674,-0.645414,0.005273,0.004096,-0.645414,-0.393089,0.327010,-0.525780,1.718767,0.716631,-9.909560
1790548264.6073,-0.001077,0.007464,-0.649313,0.000828,0.006454,-0.649313,-0.252248,0.223808,-0.279309,1.987063,-0.250049,-10.220049
1790548264.6216,0.005383,0.004541,-0.653682,0.004016,0.005115,-0.653682,0.079212,-0.422116,-0.098402,-0.427600,-0.361589,-8.512357
1790548264.6357,0.006435,-0.001287,-0.652545,0.005710,0.000634,-0.652545,0.319613,-0.130722,0.100717,0.338959,0.047391,-7.503266
1790548264.6498,0.009743,-0.010238,-0.646404,0.008533,-0.006976,-0.646404,0.635290,-0.324985,0.342332,0.338959,1.497411,-10.646972
1790548264.6641,0.014091,-0.017118,-0.639525,0.012423,-0.014075,-0.639525,0.578225,-0.460968,0.463746,1.297159,3.207691,-10.724595
1790548264.6783,0.011783,-0.018765,-0.639788,0.011975,-0.017358,-0.639788,0.356037,0.040472,0.695647,0.223975,4.955151,-8.706413
1790548264.6923,0.006209,-0.018393,-0.633467,0.007939,-0.018083,-0.633467,0.019719,0.356149,0.885053,-2.075704,2.649991,-13.519000
1790548264.7065,0.009448,-0.013822,-0.622362,0.008995,-0.015100,-0.622362,-0.246178,-0.318914,1.074459,-1.730752,3.058971,-12.471098
1790548264.7207,0.009450,-0.012192,-0.610182,0.009314,-0.013064,-0.610182,-0.106551,-0.104011,1.140023,-1.385800,1.311511,-10.375294
1790548264.7346,0.009836,-0.012736,-0.596107,0.009679,-0.012835,-0.596107,0.010006,-0.168360,1.144880,-0.542584,0.456371,-7.192776
1790548264.7486,0.009219,-0.015272,-0.582630,0.009357,-0.014541,-0.582630,0.064643,-0.105225,1.089029,-0.312616,-0.584669,-7.115154
1790548264.7627,0.008154,-0.014498,-0.571819,0.008515,-0.014511,-0.571819,-0.065270,-0.016592,0.893552,-0.887536,1.051251,-10.258860
1790548264.7769,0.011194,-0.012520,-0.565944,0.010391,-0.013117,-0.565944,-0.179400,-0.241209,0.568162,-1.539112,0.790991,-12.471098
1790548264.7908,0.011159,-0.011220,-0.561253,0.010928,-0.011789,-0.561253,-0.161188,-0.073657,0.352045,0.147319,0.307651,-11.035084
1790548264.8048,0.013228,-0.012993,-0.558686,0.012538,-0.012632,-0.558686,0.065857,-0.162290,0.258556,-0.657568,0.382011,-9.637881
1790548264.8187,0.018662,-0.010529,-0.557424,0.016825,-0.011160,-0.557424,-0.227965,-0.365051,0.150497,-1.232488,0.642271,-10.685784
1790548264.8329,0.020953,-0.006361,-0.556626,0.019715,-0.007801,-0.556626,-0.355450,-0.215712,0.058222,0.377287,0.493551,-9.870749
1790548264.8471,0.025879,-0.003206,-0.556907,0.024030,-0.004584,-0.556907,-0.260747,-0.351696,-0.042551,-0.235960,0.865351,-9.016902
1790548264.8611,0.030684,0.000847,-0.558702,0.028688,-0.000782,-0.558702,-0.344523,-0.378407,-0.167608,0.453943,0.679451,-8.512357
1790548264.8754,0.023553,-0.001725,-0.567246,0.025094,-0.001442,-0.567246,0.105924,0.535842,-0.494212,0.607255,0.902531,-12.005364
1790548264.8896,0.018660,-0.001476,-0.572737,0.020590,-0.001466,-0.572737,0.190914,0.521272,-0.548849,-1.500784,4.769251,-7.697322
1790548264.9040,0.012308,-0.003226,-0.580277,0.014792,-0.002698,-0.580277,0.278332,0.600192,-0.542778,-1.232488,4.025651,-8.124245
1790548264.9182,0.006277,-0.007276,-0.588120,0.008832,-0.005902,-0.588120,0.445883,0.579551,-0.575560,-0.964192,3.653851,-7.542077
1790548264.9323,0.004924,-0.012462,-0.598881,0.006096,-0.010494,-0.598881,0.522374,0.303941,-0.664192,-1.999048,4.434631,-9.560259
1790548264.9474,0.011843,-0.013435,-0.610491,0.010119,-0.012553,-0.610491,0.120493,-0.307987,-0.915520,-0.810880,3.876931,-13.596623
1790548264.9631,0.010298,-0.010572,-0.625832,0.010244,-0.011166,-0.625832,-0.230394,0.205596,-1.344112,2.025391,1.571771,-12.936833
1790548264.9776,0.016190,-0.006155,-0.646276,0.014406,-0.007658,-0.646276,-0.320240,-0.164718,-1.270049,-0.925864,1.571771,-8.551168
1790548264.9922,0.005378,0.000952,-0.658995,0.008087,-0.001631,-0.658995,-0.469580,0.861232,-1.181417,0.683911,1.423051,-5.679140
1790548265.0075,-0.002606,0.004659,-0.678947,0.000602,0.002772,-0.678947,-0.316598,0.710679,-1.084285,-0.082648,0.605091,-9.637881
1790548265.0218,-0.009788,0.010089,-0.693744,-0.006671,0.007894,-0.693744,-0.455010,0.622046,-1.113425,1.642111,0.753811,-12.626343
1790548265.0358,-0.017048,0.016211,-0.708488,-0.013935,0.013716,-0.708488,-0.536358,0.634188,-1.039362,1.527127,0.158931,-11.617252
1790548265.0497,-0.020178,0.024043,-0.720733,-0.018305,0.020945,-0.720733,-0.666271,0.340365,-0.784392,0.683911,0.121751,-10.685784
1790548265.0635,-0.020636,0.028230,-0.730861,-0.019937,0.026044,-0.730861,-0.397945,0.155816,-0.590130,-0.044320,0.344831,-11.035084
1790548265.0781,-0.017892,0.027471,-0.736256,-0.018505,0.027043,-0.736256,0.005150,-0.140435,-0.398295,0.530599,1.162791,-10.879840
1790548265.0926,-0.013214,0.026004,-0.737162,-0.014802,0.026316,-0.737162,0.136277,-0.354124,-0.223459,1.143847,2.389731,-9.405014
1790548265.1069,-0.008818,0.023208,-0.734011,-0.010613,0.024140,-0.734011,0.286831,-0.408760,0.065507,1.297159,3.244871,-9.210958
1790548265.1209,-0.002982,0.016681,-0.727305,-0.005271,0.018919,-0.727305,0.585510,-0.555672,0.369043,0.913879,3.467951,-8.822846
1790548265.1350,0.002959,0.008098,-0.717495,0.000490,0.011344,-0.717495,0.754275,-0.607880,0.613085,0.952207,3.653851,-8.745224
1790548265.1490,0.007253,-0.001071,-0.707753,0.005224,0.002654,-0.707753,0.858692,-0.505892,0.810990,0.798895,4.508991,-8.667602
1790548265.1630,-0.001306,-0.006817,-0.693840,0.000653,-0.003976,-0.693840,0.513875,0.408357,1.029536,0.913879,3.988471,-12.936833
1790548265.1770,-0.000776,-0.005541,-0.683207,-0.000347,-0.005071,-0.683207,-0.054343,-0.148934,1.215300,-2.152360,3.021791,-15.187882
1790548265.1908,0.003353,-0.005630,-0.665455,0.002243,-0.005462,-0.665455,-0.030060,-0.470682,1.513979,-1.117504,0.567911,-8.589979
1790548265.2047,0.001592,-0.005675,-0.644235,0.001787,-0.005611,-0.644235,-0.043416,-0.100368,1.467841,-0.159304,0.344831,-7.115154
1790548265.2188,-0.001519,-0.004258,-0.626725,-0.000527,-0.004664,-0.626725,-0.178186,0.051399,1.299076,-0.465928,0.047391,-6.843476
1790548265.2326,0.002373,-0.003832,-0.616113,0.001503,-0.004082,-0.616113,-0.043416,-0.357766,1.023465,-1.270816,0.939711,-7.891378
1790548265.2467,0.005446,-0.002130,-0.607907,0.004263,-0.002715,-0.607907,-0.136905,-0.287346,0.677435,-0.925864,1.237151,-10.491728
1790548265.2606,0.006178,-0.001197,-0.602205,0.005604,-0.001652,-0.602205,-0.159974,-0.094298,0.441891,-0.849208,-0.026969,-12.548721
1790548265.2746,0.007818,-0.003203,-0.600363,0.007154,-0.002738,-0.600363,0.027004,-0.083370,0.248843,-1.654096,-0.473129,-11.617252
1790548265.2882,0.009835,-0.004078,-0.601367,0.009031,-0.003676,-0.601367,-0.048272,-0.117366,-0.057121,-0.619240,-0.212869,-10.802217
1790548265.3019,0.012151,-0.004700,-0.605986,0.011215,-0.004393,-0.605986,-0.062842,-0.108867,-0.340016,-0.312616,-0.026969,-8.395923
1790548265.3158,0.015412,-0.005160,-0.611349,0.014153,-0.004930,-0.611349,-0.023990,-0.204784,-0.434719,0.300631,0.716631,-8.745224
1790548265.3299,0.015184,-0.007214,-0.618599,0.014875,-0.006529,-0.618599,0.084069,0.064755,-0.523352,0.300631,0.790991,-10.181238
1790548265.3442,0.009073,-0.011731,-0.628053,0.010814,-0.010170,-0.628053,0.362108,0.521272,-0.602271,-0.197632,3.058971,-11.578441
1790548265.3582,0.002160,-0.012356,-0.635048,0.004756,-0.011700,-0.635048,0.211554,0.580765,-0.528208,-0.120976,4.174371,-8.784035
1790548265.3721,-0.000836,-0.015595,-0.645047,0.000842,-0.014427,-0.645047,0.381534,0.404715,-0.619269,-1.424128,3.430771,-7.891378
1790548265.3860,0.002110,-0.022287,-0.655772,0.001729,-0.019929,-0.655772,0.544229,-0.042089,-0.683618,-1.347472,2.612811,-9.909560
1790548265.3999,0.004263,-0.023833,-0.665440,0.003503,-0.022662,-0.665440,0.175130,-0.050588,-0.853598,0.070663,3.133331,-11.617252
1790548265.4140,0.008871,-0.022098,-0.679640,0.007261,-0.022267,-0.679640,-0.130834,-0.193857,-1.137708,0.223975,2.166651,-13.247322
1790548265.4280,0.007490,-0.019453,-0.690324,0.007421,-0.020297,-0.690324,-0.201254,0.141246,-1.249409,1.948735,1.571771,-9.366203
1790548265.4422,0.008997,-0.012653,-0.712924,0.008524,-0.014946,-0.712924,-0.485364,0.164315,-1.353825,-1.002520,1.348691,-7.192776
1790548265.4563,0.005613,-0.004803,-0.727713,0.006487,-0.007846,-0.727713,-0.487792,0.420499,-0.948301,-0.504256,2.166651,-6.998721
1790548265.4703,-0.007727,-0.003942,-0.744305,-0.003463,-0.005114,-0.744305,-0.146618,1.122273,-0.996867,0.108991,0.493551,-12.005364
1790548265.4841,-0.013077,-0.001971,-0.757591,-0.010193,-0.002914,-0.757591,-0.206111,0.509131,-0.970156,0.722239,0.679451,-11.384385
1790548265.4982,-0.018185,0.002202,-0.766600,-0.015788,0.000667,-0.766600,-0.393089,0.410786,-0.801390,1.833751,0.010211,-11.888930
1790548265.5120,-0.021792,0.005580,-0.772885,-0.019991,0.004106,-0.772885,-0.343309,0.288157,-0.571917,1.220503,0.010211,-9.482637
1790548265.5257,-0.020522,0.006622,-0.778571,-0.020362,0.005867,-0.778571,-0.166044,-0.014164,-0.429863,-0.005993,0.158931,-8.861658
1790548265.5397,-0.017136,0.002495,-0.783001,-0.018104,0.003507,-0.783001,0.172701,-0.150148,-0.307234,-0.580912,-0.361589,-9.016902
1790548265.5537,-0.013098,-0.002998,-0.782782,-0.014600,-0.001047,-0.782782,0.342681,-0.299488,-0.035267,0.185647,0.642271,-8.085434
1790548265.5675,-0.005618,-0.008983,-0.778512,-0.008312,-0.006602,-0.778512,0.383962,-0.603023,0.213633,0.338959,0.828171,-10.918651
1790548265.5818,0.005706,-0.016184,-0.772165,0.001501,-0.013309,-0.772165,0.511447,-0.921128,0.326548,1.182175,1.794851,-11.888930
1790548265.5965,0.002585,-0.018415,-0.766491,0.002260,-0.016883,-0.766491,0.264976,0.033187,0.496528,2.523654,4.620531,-13.635434
1790548265.6105,-0.000258,-0.010196,-0.759870,0.000498,-0.012202,-0.759870,-0.498719,0.091466,0.577875,0.453943,3.988471,-13.829490
1790548265.6247,0.006378,-0.007461,-0.747272,0.004614,-0.008883,-0.747272,-0.167258,-0.570241,0.871698,-0.657568,1.348691,-7.542077
1790548265.6386,0.010001,-0.002447,-0.732440,0.008385,-0.004378,-0.732440,-0.227965,-0.531389,1.005253,0.952207,2.055111,-5.756762
1790548265.6527,0.014215,0.002823,-0.715033,0.012466,0.000663,-0.715033,-0.300814,-0.532603,1.181304,0.223975,1.608951,-6.688231
1790548265.6667,0.009221,0.003783,-0.693750,0.010194,0.002847,-0.693750,-0.102909,0.097537,1.346427,0.377287,0.605091,-10.103616
1790548265.6808,0.009146,0.006414,-0.676410,0.009460,0.005344,-0.676410,-0.200040,-0.156219,1.197088,-0.964192,1.162791,-10.724595
1790548265.6948,0.012369,0.008661,-0.659741,0.011497,0.007666,-0.659741,-0.224323,-0.358981,1.021037,-1.232488,0.307651,-11.539630
1790548265.7088,0.016170,0.011405,-0.646656,0.014768,0.010283,-0.646656,-0.303242,-0.343197,0.722358,-1.155832,-0.324409,-9.249770
1790548265.7228,0.022182,0.013932,-0.637963,0.019957,0.012837,-0.637963,-0.270460,-0.400261,0.435821,-1.922392,0.010211,-8.628791
1790548265.7363,0.027997,0.018025,-0.632477,0.025585,0.016469,-0.632477,-0.407659,-0.401476,0.242772,-1.769080,-0.101329,-10.879840
1790548265.7500,0.033812,0.026222,-0.630543,0.031344,0.023296,-0.630543,-0.683269,-0.423330,0.046081,-0.734224,0.456371,-9.987182
1790548265.7636,0.039593,0.031874,-0.632110,0.037118,0.029300,-0.632110,-0.527859,-0.419688,-0.137255,-0.312616,0.196111,-10.802217
1790548265.7776,0.039656,0.032910,-0.637696,0.038894,0.031827,-0.637696,-0.139333,0.063541,-0.376441,-0.504256,1.497411,-12.315854
1790548265.7917,0.038756,0.035460,-0.645200,0.038798,0.034370,-0.645200,-0.076198,0.276016,-0.632624,-1.960720,4.360271,-9.405014
1790548265.8057,0.034275,0.034828,-0.655494,0.035632,0.034691,-0.655494,0.171487,0.521272,-0.698188,-1.309144,4.471811,-8.745224
1790548265.8196,0.029775,0.033704,-0.666288,0.031532,0.034000,-0.666288,0.227338,0.569838,-0.724899,-1.884064,4.620531,-8.357112
1790548265.8337,0.023656,0.030105,-0.677093,0.026019,0.031274,-0.677093,0.409459,0.657256,-0.698188,-1.500784,4.508991,-8.085434
1790548265.8482,0.018444,0.022916,-0.688645,0.020716,0.025423,-0.688645,0.632861,0.591693,-0.712758,-1.539112,3.876931,-7.658511
1790548265.8622,0.012981,0.013167,-0.698787,0.015302,0.016844,-0.698787,0.880546,0.605048,-0.671477,-1.232488,3.728211,-6.416553
1790548265.8761,0.006710,-0.001199,-0.708722,0.009288,0.004214,-0.708722,1.084522,0.606262,-0.648408,-0.849208,2.835891,-10.142427
1790548265.8902,0.014147,-0.000996,-0.716704,0.012689,0.000567,-0.716704,0.007578,-0.445185,-1.005366,1.603783,3.951291,-16.740329
1790548265.9042,0.014227,0.003604,-0.727373,0.013765,0.002693,-0.727373,-0.342095,0.052614,-1.234839,2.791950,2.575631,-12.820399
1790548265.9181,0.012834,0.013078,-0.748108,0.013114,0.009962,-0.748108,-0.594636,0.381646,-1.125566,-1.117504,2.464091,-6.416553
1790548265.9320,-0.005477,0.021284,-0.756402,0.000100,0.017887,-0.756402,-0.600707,1.372386,-0.771037,0.875551,1.014071,-5.174595
1790548265.9460,-0.020473,0.027821,-0.768225,-0.014301,0.024841,-0.768225,-0.543642,1.172053,-0.636267,0.760567,0.642271,-9.909560
1790548265.9599,-0.029205,0.037490,-0.781362,-0.024734,0.033696,-0.781362,-0.802255,0.734961,-0.686047,0.952207,0.084571,-11.073895
1790548265.9735,-0.037100,0.044101,-0.790064,-0.033390,0.040979,-0.790064,-0.590994,0.597763,-0.524566,2.370342,0.158931,-12.471098
1790548265.9872,-0.036798,0.048790,-0.796464,-0.035776,0.046447,-0.796464,-0.489006,0.004048,-0.280523,0.875551,-0.398769,-11.306763
1790548266.0012,-0.034197,0.051062,-0.798364,-0.034671,0.049678,-0.798364,-0.238893,-0.193857,-0.155467,0.875551,0.865351,-10.452916
1790548266.0152,-0.029725,0.048742,-0.796361,-0.031209,0.049023,-0.796361,0.138705,-0.386906,0.032725,0.913879,1.497411,-8.667602
1790548266.0290,-0.025751,0.046383,-0.793521,-0.027388,0.047175,-0.793521,0.313542,-0.452469,0.287695,1.718767,4.397451,-8.900469
1790548266.0431,-0.021394,0.037428,-0.784915,-0.023192,0.040352,-0.784915,0.746991,-0.571455,0.564520,2.332014,3.802571,-9.055714
1790548266.0571,-0.018946,0.025817,-0.775310,-0.020220,0.030177,-0.775310,0.982534,-0.476752,0.824346,2.332014,4.434631,-8.706413
1790548266.0709,-0.015616,0.013613,-0.763035,-0.016997,0.018582,-0.763035,1.026243,-0.535031,0.971257,1.910407,4.211551,-9.327392
1790548266.0852,-0.010948,0.002274,-0.752725,-0.012763,0.007166,-0.752725,0.977678,-0.587239,1.068389,1.220503,4.583351,-8.978091
1790548266.0996,-0.018022,-0.002465,-0.733932,-0.016444,0.000424,-0.733932,0.383962,0.216523,1.063532,2.332014,3.319231,-12.315854
1790548266.1136,-0.017992,-0.002177,-0.716947,-0.017528,-0.001396,-0.716947,-0.042202,-0.184144,1.255366,-0.350944,1.683311,-12.082986
1790548266.1277,-0.014188,-0.002903,-0.696675,-0.015190,-0.002451,-0.696675,0.019719,-0.475538,1.439916,-0.389272,0.939711,-7.891378
1790548266.1417,-0.009481,-0.005862,-0.679877,-0.011194,-0.004839,-0.679877,0.127778,-0.453684,1.277221,-1.232488,0.158931,-8.163056
1790548266.1559,-0.004515,-0.006410,-0.668137,-0.006519,-0.005939,-0.668137,-0.066485,-0.385692,0.950617,-1.692424,-0.250049,-8.124245
1790548266.1699,-0.003926,-0.006222,-0.656660,-0.004704,-0.006137,-0.656660,-0.139333,-0.101582,0.575447,-0.619240,-0.584669,-9.987182
1790548266.1839,0.002325,-0.005296,-0.652480,0.000216,-0.005548,-0.652480,-0.172115,-0.402690,0.231845,-1.845736,-0.287229,-11.772497
1790548266.1975,0.004883,-0.001683,-0.650168,0.003483,-0.002843,-0.650168,-0.348166,-0.179288,0.004800,-0.389272,0.307651,-10.957462
1790548266.2112,0.009061,-0.000546,-0.650358,0.007388,-0.001235,-0.650358,-0.202469,-0.239995,-0.184606,-0.925864,-0.287229,-11.035084
1790548266.2248,0.011896,0.000041,-0.653078,0.010543,-0.000342,-0.653078,-0.149046,-0.155005,-0.376441,-0.120976,0.047391,-9.443825
1790548266.2389,0.015374,0.000507,-0.658305,0.013925,0.000253,-0.658305,-0.122335,-0.185358,-0.526994,0.070663,0.307651,-8.318301
1790548266.2529,0.013771,-0.002850,-0.668266,0.013817,-0.001919,-0.668266,0.164202,0.250519,-0.767394,-0.465928,0.828171,-11.578441
1790548266.2669,0.006988,-0.008679,-0.680255,0.009037,-0.006651,-0.680255,0.407031,0.659685,-0.757681,-0.964192,1.683311,-9.987182
1790548266.2809,0.003398,-0.009447,-0.697918,0.005089,-0.008608,-0.697918,0.222481,0.456923,-0.723685,-1.347472,3.839751,-7.774944
1790548266.2948,0.002125,-0.013962,-0.713730,0.003014,-0.012356,-0.713730,0.408245,0.350078,-0.814746,-2.190688,2.835891,-8.900469
1790548266.3087,0.000323,-0.019142,-0.728244,0.001131,-0.017106,-0.728244,0.506590,0.300299,-0.879095,-0.695896,3.393591,-8.279490
1790548266.3227,0.004600,-0.021147,-0.740602,0.003559,-0.019935,-0.740602,0.194556,-0.175645,-0.911877,-0.274288,3.133331,-12.471098
1790548266.3367,0.007630,-0.019124,-0.756576,0.006409,-0.019367,-0.756576,-0.158759,-0.073657,-1.248195,0.568927,2.241011,-14.256413
1790548266.3511,0.013231,-0.017102,-0.772323,0.011184,-0.017782,-0.772323,-0.147832,-0.281275,-1.356253,1.143847,1.794851,-9.599070
1790548266.3653,0.011078,-0.008341,-0.790926,0.011110,-0.011173,-0.790926,-0.509646,0.280872,-1.345326,0.568927,2.129471,-5.135783
1790548266.3793,-0.002140,-0.000646,-0.802388,0.001835,-0.003804,-0.802388,-0.472008,0.975362,-1.005366,1.488799,2.129471,-6.183686
1790548266.3933,-0.012947,0.002645,-0.817847,-0.008513,0.000711,-0.817847,-0.310527,0.954721,-1.123138,0.262303,0.530731,-10.375294
1790548266.4072,-0.017443,0.005944,-0.829960,-0.014764,0.004374,-0.829960,-0.349380,0.460565,-1.144992,1.143847,-0.250049,-11.035084
1790548266.4213,-0.023950,0.010996,-0.839096,-0.021194,0.009009,-0.839096,-0.467151,0.516416,-0.977441,2.370342,-0.287229,-11.073895
1790548266.4349,-0.024310,0.015346,-0.846190,-0.023375,0.013445,-0.846190,-0.447725,0.147317,-0.751610,0.338959,-0.398769,-9.870749
1790548266.4486,-0.023370,0.016268,-0.850620,-0.023372,0.015421,-0.850620,-0.183042,0.004048,-0.554919,0.492271,-0.175689,-8.939280
1790548266.4627,-0.021824,0.012222,-0.853118,-0.022288,0.013182,-0.853118,0.171487,-0.044518,-0.377655,0.108991,-0.212869,-9.133336
1790548266.4766,-0.014837,0.006361,-0.852725,-0.017072,0.008407,-0.852725,0.413102,-0.584811,-0.029196,1.527127,1.794851,-11.539630
1790548266.4906,-0.006793,0.001391,-0.853837,-0.009877,0.003496,-0.853837,0.428885,-0.737793,0.247629,2.217030,3.393591,-11.617252
1790548266.5045,-0.002513,-0.003392,-0.858585,-0.004723,-0.001326,-0.858585,0.498091,-0.530175,0.489243,2.485326,4.360271,-10.103616
1790548266.5185,0.005508,-0.009200,-0.861280,0.002439,-0.006838,-0.861280,0.604936,-0.718367,0.634940,0.453943,3.839751,-8.007811
1790548266.5326,0.000282,-0.013349,-0.859174,0.000929,-0.011395,-0.859174,0.513875,0.099965,0.826774,2.102047,4.025651,-7.386832
1790548266.5466,-0.002623,-0.014297,-0.848708,-0.001557,-0.013426,-0.848708,0.111994,0.064755,0.944546,-0.044320,3.096151,-14.955014
1790548266.5605,0.001370,-0.015380,-0.828893,0.000492,-0.014794,-0.828893,0.040360,-0.428187,1.211657,-0.964192,0.753811,-11.500819
1790548266.5746,0.003738,-0.011913,-0.808586,0.002764,-0.012777,-0.808586,-0.243749,-0.337126,1.458128,-0.925864,1.088431,-8.939280
1790548266.5889,0.007921,-0.008326,-0.786879,0.006374,-0.009662,-0.786879,-0.251034,-0.488894,1.368282,-0.465928,1.051251,-9.327392
1790548266.6033,0.011851,-0.005316,-0.765921,0.010208,-0.006620,-0.765921,-0.285030,-0.335912,1.142451,-1.692424,-0.101329,-7.231588
1790548266.6175,0.012836,0.001362,-0.754591,0.012047,-0.001032,-0.754591,-0.489006,-0.124651,0.738142,-1.270816,0.976891,-9.405014
1790548266.6314,0.017592,0.002502,-0.737935,0.015929,0.001442,-0.737935,-0.221895,-0.409975,0.532952,-0.810880,-1.030829,-11.500819
1790548266.6456,0.021174,0.003814,-0.727049,0.019601,0.003102,-0.727049,-0.191541,-0.270348,0.362972,-1.270816,-0.212869,-11.500819
1790548266.6594,0.025211,0.007410,-0.719156,0.023528,0.006117,-0.719156,-0.372448,-0.283704,0.171138,-1.232488,-0.250049,-11.694875
1790548266.6731,0.028048,0.010165,-0.715203,0.026692,0.008951,-0.715203,-0.304456,-0.210855,-0.018269,-0.274288,0.047391,-8.628791
1790548266.6870,0.032258,0.014216,-0.715746,0.030588,0.012636,-0.715746,-0.356665,-0.317700,-0.189463,0.223975,0.642271,-8.046623
1790548266.7010,0.030994,0.014986,-0.720067,0.030872,0.014281,-0.720067,-0.139333,0.126676,-0.408008,0.223975,0.753811,-10.802217
1790548266.7150,0.027758,0.012725,-0.735943,0.028692,0.013192,-0.735943,0.263762,0.391359,-0.579202,-1.424128,4.211551,-10.297672
1790548266.7289,0.023769,0.013970,-0.758586,0.025246,0.013736,-0.758586,0.092568,0.507917,-0.700616,-1.884064,5.141051,-8.745224
1790548266.7429,0.020258,0.012256,-0.776717,0.021755,0.012700,-0.776717,0.257691,0.471493,-0.743111,-1.730752,4.397451,-9.133336
1790548266.7569,0.016388,0.009135,-0.795596,0.017998,0.010205,-0.795596,0.393675,0.517630,-0.818388,-1.615768,4.397451,-7.969000
1790548266.7709,0.008814,0.002395,-0.811526,0.011569,0.004738,-0.811526,0.636504,0.721606,-0.779536,-0.619240,3.282051,-6.610609
1790548266.7847,0.006964,-0.005480,-0.829075,0.008345,-0.002414,-0.829075,0.754275,0.382860,-0.879095,-1.309144,3.356411,-6.144874
1790548266.7986,0.011762,-0.011082,-0.839952,0.010737,-0.008482,-0.839952,0.462881,-0.226639,-0.880309,-0.005993,4.062831,-14.139979
1790548266.8126,0.019126,-0.008944,-0.852671,0.016610,-0.008805,-0.852671,-0.156331,-0.397833,-1.284619,1.258831,3.765391,-18.137532
1790548266.8265,0.019031,-0.006489,-0.863558,0.018304,-0.007184,-0.863558,-0.230394,0.113321,-1.305259,1.335487,1.460231,-10.569350
1790548266.8406,0.008932,-0.000309,-0.877043,0.011744,-0.002372,-0.877043,-0.431941,0.834521,-1.193558,0.683911,1.385871,-5.834385
1790548266.8550,-0.004369,0.003701,-0.878099,0.000465,0.001879,-0.878099,-0.402802,0.932867,-0.854812,1.603783,-0.138509,-6.804665
1790548266.8690,-0.011350,0.009238,-0.885677,-0.007805,0.007031,-0.885677,-0.474436,0.596549,-0.824459,0.875551,0.530731,-11.306763
1790548266.8830,-0.020763,0.017046,-0.890889,-0.016876,0.014041,-0.890889,-0.640774,0.726462,-0.762538,1.718767,0.419191,-10.841028
1790548266.8966,-0.028155,0.023835,-0.893804,-0.024771,0.020897,-0.893804,-0.600707,0.594121,-0.564633,1.335487,0.158931,-11.384385
1790548266.9102,-0.026510,0.026872,-0.890335,-0.025989,0.025079,-0.890335,-0.366378,-0.129508,-0.185820,0.990535,-0.547489,-12.393476
1790548266.9242,-0.023475,0.026770,-0.891453,-0.024229,0.026263,-0.891453,0.023362,-0.267920,-0.143325,1.220503,1.943571,-8.900469
1790548266.9381,-0.017533,0.022497,-0.890471,-0.019542,0.023626,-0.890471,0.347538,-0.494964,0.122572,0.453943,1.757671,-6.804665
1790548266.9521,-0.017711,0.017234,-0.895553,-0.018260,0.019151,-0.895553,0.513875,-0.150148,0.350831,1.680439,3.876931,-8.900469
1790548266.9661,-0.015848,0.005851,-0.892634,-0.016572,0.009841,-0.892634,0.902401,-0.280061,0.560877,0.875551,3.319231,-10.103616
1790548266.9800,-0.009548,-0.007661,-0.889137,-0.011655,-0.002410,-0.889137,1.106377,-0.660088,0.729643,1.450471,3.839751,-9.599070
1790548266.9941,-0.009696,-0.018126,-0.880679,-0.010284,-0.013411,-0.880679,0.831981,-0.174431,0.848629,1.258831,3.691031,-12.820399
1790548267.0079,-0.011591,-0.017465,-0.877755,-0.011199,-0.016249,-0.877755,0.008792,0.090252,0.946974,-2.152360,3.505131,-14.916203
1790548267.0220,-0.008417,-0.018550,-0.869681,-0.009252,-0.017860,-0.869681,0.082855,-0.254564,1.184946,-3.225543,1.943571,-13.053266
1790548267.0376,-0.008822,-0.024648,-0.831153,-0.008951,-0.022612,-0.831153,0.171487,-0.147720,1.245653,-0.120976,-1.514168,-5.446273
1790548267.0524,-0.011921,-0.029969,-0.812366,-0.011030,-0.027762,-0.812366,0.238265,0.166743,1.113312,-1.500784,-0.659029,-7.852567
1790548267.0670,-0.007706,-0.032739,-0.802861,-0.008703,-0.031246,-0.802861,0.098639,-0.208427,0.808562,-3.378855,-0.361589,-9.754315
1790548267.0811,-0.009070,-0.035246,-0.794373,-0.008960,-0.034046,-0.794373,0.073142,0.093894,0.427322,-1.002520,-0.547489,-11.267951
1790548267.0964,-0.011921,-0.040340,-0.788124,-0.011033,-0.038452,-0.788124,0.207912,0.214095,0.234273,-1.117504,-1.179549,-11.190329
1790548267.1108,-0.010577,-0.042710,-0.785917,-0.010714,-0.041432,-0.785917,0.119279,-0.044518,0.081291,-1.079176,0.456371,-10.608161
1790548267.1242,-0.011004,-0.042874,-0.786609,-0.010917,-0.042442,-0.786609,-0.049487,0.070826,-0.139683,-0.350944,0.233291,-10.064805
1790548267.1379,-0.009406,-0.042380,-0.790040,-0.009859,-0.042398,-0.790040,-0.060414,-0.040875,-0.304806,-0.542584,0.679451,-8.279490
1790548267.1521,-0.008000,-0.042026,-0.796328,-0.008558,-0.042138,-0.796328,-0.057986,-0.082156,-0.467501,0.568927,0.642271,-9.327392
1790548267.1660,-0.008513,-0.042191,-0.803054,-0.008526,-0.042175,-0.803054,-0.015491,0.018618,-0.443218,1.105519,0.753811,-9.560259
1790548267.1800,-0.008700,-0.042933,-0.809611,-0.008648,-0.042706,-0.809611,0.035503,0.021046,-0.449289,0.683911,0.865351,-9.210958
1790548267.1939,-0.008421,-0.041085,-0.816441,-0.008489,-0.041571,-0.816441,-0.116264,-0.017807,-0.399509,0.607255,1.274331,-8.357112
1790548267.2079,-0.012720,-0.046237,-0.825136,-0.011450,-0.044837,-0.825136,0.295330,0.392573,-0.732184,0.108991,0.010211,-13.557812
1790548267.2218,-0.011998,-0.047436,-0.840677,-0.011834,-0.046657,-0.840677,0.250406,0.019832,-0.576774,-0.120976,5.215411,-12.936833
1790548267.2359,-0.002920,-0.039196,-0.852984,-0.005594,-0.041434,-0.852984,-0.502362,-0.521676,-0.715186,-0.887536,3.021791,-11.151518
1790548267.2506,-0.005249,-0.033087,-0.868778,-0.005352,-0.035591,-0.868778,-0.418586,0.225022,-1.055146,1.373815,1.683311,-12.005364
1790548267.2647,-0.009190,-0.027278,-0.887798,-0.008039,-0.029772,-0.887798,-0.402802,0.492133,-1.234839,-0.734224,1.460231,-9.210958
1790548267.2790,0.003323,-0.020848,-0.907830,-0.000086,-0.023525,-0.907830,-0.425871,-0.599381,-1.359896,-1.615768,1.832031,-8.978091
1790548267.2933,-0.004152,-0.013794,-0.925836,-0.002932,-0.016713,-0.925836,-0.439226,0.597763,-1.126780,1.527127,2.612811,-9.599070
1790548267.3074,-0.012862,-0.012082,-0.943414,-0.009883,-0.013472,-0.943414,-0.220681,0.828450,-1.355039,0.070663,-0.064149,-12.548721
1790548267.3217,-0.018646,-0.009238,-0.962969,-0.016017,-0.010508,-0.962969,-0.266818,0.591693,-1.482524,0.952207,0.344831,-11.306763
1790548267.3359,-0.023901,-0.002068,-0.979936,-0.021536,-0.004600,-0.979936,-0.560640,0.454495,-1.297974,2.178703,0.456371,-9.560259
1790548267.3499,-0.024425,0.003018,-0.992484,-0.023558,0.000733,-0.992484,-0.469580,0.239592,-1.221483,0.147319,-0.361589,-9.909560
1790548267.3639,-0.026056,0.007591,-1.004878,-0.025307,0.005533,-1.004878,-0.383376,0.282086,-1.045433,0.338959,0.493551,-8.706413
1790548267.3780,-0.021281,0.006294,-1.010263,-0.022489,0.006066,-1.010263,-0.021561,-0.196285,-0.757681,-0.197632,-0.398769,-12.393476
1790548267.3919,-0.015394,0.003431,-1.019204,-0.017523,0.004221,-1.019204,0.218839,-0.470682,-0.414079,2.255358,2.203831,-11.927742
1790548267.4061,-0.010325,0.000151,-1.028393,-0.012484,0.001372,-1.028393,0.335396,-0.480395,-0.015840,2.255358,3.728211,-10.763406
1790548267.4202,-0.005190,-0.005426,-1.033306,-0.007379,-0.003387,-1.033306,0.521160,-0.493750,0.246414,1.335487,3.505131,-9.288581
1790548267.4343,0.000287,-0.011359,-1.039768,-0.002013,-0.008968,-1.039768,0.632861,-0.578740,0.417608,1.642111,4.025651,-7.348021
1790548267.4485,-0.008177,-0.013382,-1.036673,-0.006328,-0.012058,-1.036673,0.295330,0.348864,0.676221,2.830278,4.211551,-9.987182
1790548267.4625,-0.007665,-0.011602,-1.023587,-0.007264,-0.011738,-1.023587,-0.136905,-0.073657,0.922692,-2.650623,1.943571,-14.955014
1790548267.4765,-0.000504,-0.008760,-1.008071,-0.002532,-0.009654,-1.008071,-0.158759,-0.626092,1.282078,-1.884064,2.464091,-11.500819
1790548267.4904,-0.003484,-0.004645,-0.988220,-0.003198,-0.006147,-0.988220,-0.268032,-0.065158,1.367068,0.453943,0.828171,-4.514804
1790548267.5049,-0.008592,-0.000859,-0.976283,-0.006974,-0.002446,-0.976283,-0.186685,0.167957,1.193445,-0.044320,1.423051,-5.058161
1790548267.5192,-0.002866,-0.000605,-0.960573,-0.004099,-0.001158,-0.960573,-0.027632,-0.485251,1.025894,-1.500784,1.274331,-9.288581
1790548267.5333,-0.001200,0.003613,-0.942251,-0.002069,0.002182,-0.942251,-0.361521,-0.301916,0.775780,0.875551,0.642271,-11.694875
1790548267.5472,0.003015,0.007424,-0.924876,0.001490,0.005852,-0.924876,-0.382162,-0.356552,0.548736,-1.002520,-0.175689,-11.617252
1790548267.5612,0.008812,0.012685,-0.910931,0.006615,0.010635,-0.910931,-0.491434,-0.396619,0.296194,-1.730752,-0.250049,-11.966553
1790548267.5751,0.013075,0.018762,-0.900795,0.011137,0.016324,-0.900795,-0.554570,-0.283704,0.109216,-0.849208,-0.138509,-8.589979
1790548267.5888,0.018980,0.023469,-0.895792,0.016627,0.021326,-0.895792,-0.411301,-0.416045,-0.003699,-0.542584,0.642271,-8.163056
1790548267.6027,0.021927,0.028095,-0.893338,0.020337,0.026064,-0.893338,-0.414943,-0.280061,-0.059549,0.798895,0.530731,-8.978091
1790548267.6172,0.023676,0.032301,-0.891511,0.022674,0.030430,-0.891511,-0.379733,-0.085799,-0.211317,-0.312616,0.679451,-11.772497
1790548267.6312,0.017802,0.029593,-0.895491,0.019264,0.029844,-0.895491,0.124136,0.506703,-0.403152,-0.465928,1.608951,-14.838581
1790548267.6453,0.018029,0.030221,-0.911994,0.018400,0.030108,-0.911994,0.093782,0.201953,-0.551277,-2.343999,4.769251,-9.754315
1790548267.6595,0.017933,0.028339,-0.927348,0.018073,0.028870,-0.927348,0.251621,0.271159,-0.643552,-2.612295,4.100011,-8.978091
1790548267.6733,0.014454,0.025285,-0.945784,0.015540,0.026360,-0.945784,0.379106,0.490919,-0.756467,-1.615768,4.434631,-8.318301
1790548267.6873,0.008574,0.021059,-0.965208,0.010664,0.022650,-0.965208,0.535730,0.674254,-0.747968,-1.577440,4.769251,-6.688231
1790548267.7013,0.004427,0.015425,-0.982330,0.006298,0.017593,-0.982330,0.614649,0.585622,-0.775893,-1.884064,4.062831,-6.300119
1790548267.7152,0.002803,0.007669,-0.994743,0.003851,0.010646,-0.994743,0.783415,0.313654,-0.837814,-0.887536,5.252591,-8.085434
1790548267.7292,0.008725,0.004366,-1.012822,0.007263,0.006250,-1.012822,0.203055,-0.187787,-1.205700,-1.232488,2.426911,-16.352217
1790548267.7431,0.016319,0.003787,-1.027833,0.013602,0.004526,-1.027833,-0.014276,-0.377193,-1.566300,1.527127,1.943571,-14.217602
1790548267.7570,0.018138,0.007489,-1.050669,0.016777,0.006600,-1.050669,-0.276531,0.155816,-1.487381,-0.734224,1.906391,-8.357112
1790548267.7709,0.005276,0.013995,-1.062432,0.008727,0.011777,-1.062432,-0.418586,1.039711,-1.171704,1.028863,2.129471,-6.571797
1790548267.7848,-0.010391,0.018683,-1.072751,-0.004656,0.016611,-1.072751,-0.422228,1.241259,-0.950730,1.105519,0.567911,-9.715504
1790548267.7987,-0.013895,0.024655,-1.090578,-0.011124,0.022242,-1.090578,-0.509646,0.522487,-0.941017,-1.539112,0.605091,-10.996273
1790548267.8123,-0.021068,0.032869,-1.102139,-0.018085,0.029681,-1.102139,-0.661414,0.681539,-0.880309,0.683911,1.274331,-13.635434
1790548267.8258,-0.017984,0.034666,-1.104182,-0.018015,0.033171,-1.104182,-0.252248,-0.196285,-0.581631,1.757095,0.010211,-13.596623
1790548267.8397,-0.017236,0.038187,-1.105418,-0.017470,0.036682,-1.105418,-0.270460,-0.088227,-0.472358,2.485326,1.943571,-11.345574
1790548267.8537,-0.010107,0.035051,-1.103098,-0.012315,0.035540,-1.103098,0.241907,-0.586025,-0.137255,1.143847,1.720491,-7.386832
1790548267.8680,-0.009082,0.029689,-1.104129,-0.010052,0.031445,-1.104129,0.545443,-0.204784,0.145641,1.335487,3.616671,-6.843476
1790548267.8819,-0.010489,0.018712,-1.097343,-0.010358,0.022532,-1.097343,0.912114,-0.113724,0.404253,1.987063,3.282051,-7.969000
1790548267.8960,-0.008847,0.006113,-1.093915,-0.009300,0.011039,-1.093915,1.084522,-0.324985,0.491671,1.987063,4.657711,-8.745224
1790548267.9100,-0.012661,-0.003623,-1.080082,-0.011653,0.000776,-1.080082,0.799199,0.008905,0.693219,3.175230,4.062831,-11.772497
1790548267.9242,-0.016178,-0.002585,-1.077913,-0.014820,-0.001577,-1.077913,-0.023990,0.186169,0.763639,-1.424128,3.914111,-15.925294
1790548267.9384,-0.015580,-0.003254,-1.060421,-0.015352,-0.002751,-1.060421,-0.038559,-0.174431,1.029536,-0.427600,0.196111,-7.542077
1790548267.9524,-0.015942,-0.004863,-1.040424,-0.015765,-0.004229,-1.040424,0.090140,-0.192643,1.159449,0.338959,0.790991,-6.144874
1790548267.9665,-0.014043,-0.009090,-1.018310,-0.014559,-0.007632,-1.018310,0.142348,-0.254564,1.148522,-0.580912,-0.547489,-5.407462
1790548267.9804,-0.010974,-0.010991,-1.008383,-0.012050,-0.009983,-1.008383,0.063429,-0.233924,0.978542,-2.114032,0.270471,-9.094525
1790548267.9943,-0.008953,-0.011792,-0.997038,-0.009882,-0.011249,-0.997038,-0.050701,-0.176859,0.653152,-1.347472,-0.324409,-11.345574
1790548268.0083,-0.006197,-0.016110,-0.987718,-0.007302,-0.014652,-0.987718,0.152061,-0.179288,0.413966,-1.654096,-1.365448,-11.539630
1790548268.0222,-0.003086,-0.019317,-0.984186,-0.004351,-0.017917,-0.984186,0.131421,-0.145292,0.246414,-2.229015,-0.287229,-10.996273
1790548268.0358,-0.000556,-0.018950,-0.982604,-0.001695,-0.018640,-0.982604,-0.121121,-0.112510,0.044867,-1.424128,-0.101329,-10.025993
1790548268.0495,0.001232,-0.018079,-0.982738,0.000354,-0.018247,-0.982738,-0.129620,-0.090655,-0.105687,-0.465928,0.344831,-8.551168
1790548268.0632,0.002283,-0.018701,-0.984096,0.001705,-0.018565,-0.984096,-0.025204,-0.093083,-0.225887,0.568927,0.307651,-8.822846
1790548268.0775,0.001400,-0.018809,-0.987350,0.001492,-0.018736,-0.987350,-0.039773,0.063541,-0.295093,0.568927,0.716631,-9.909560
1790548268.0920,0.002415,-0.018319,-0.989948,0.002138,-0.018444,-0.989948,-0.066485,-0.078514,-0.238028,0.607255,0.976891,-10.336483
1790548268.1063,0.004727,-0.015289,-0.992769,0.003950,-0.016236,-0.992769,-0.229180,-0.173217,-0.234386,0.530599,1.162791,-9.249770
1790548268.1208,-0.001322,-0.018360,-0.999912,0.000260,-0.017723,-0.999912,0.141134,0.516416,-0.564633,-0.427600,0.530731,-13.169700
1790548268.1350,-0.009698,-0.021357,-1.026469,-0.006710,-0.020267,-1.026469,0.493235,0.730105,-0.542778,-0.925864,5.959010,-8.085434
1790548268.1492,-0.004855,-0.017751,-1.038279,-0.005411,-0.018506,-1.038279,-0.144190,-0.189001,-0.536707,-1.270816,3.058971,-8.822846
1790548268.1633,-0.004355,-0.017105,-1.047641,-0.004672,-0.017525,-1.047641,-0.038559,0.001620,-0.784392,1.335487,1.869211,-10.957462
1790548268.1772,-0.003664,-0.015031,-1.065748,-0.003966,-0.015779,-1.065748,-0.098052,0.114535,-1.186273,0.108991,2.612811,-10.414105
1790548268.1913,0.001641,-0.009303,-1.084103,-0.000041,-0.011246,-1.084103,-0.390661,-0.190215,-1.297974,-0.044320,1.906391,-9.172147
1790548268.2052,0.002721,-0.004099,-1.104993,0.001892,-0.006243,-1.104993,-0.322669,0.158244,-1.278548,-0.504256,1.906391,-6.843476
1790548268.2192,-0.010274,-0.001100,-1.122701,-0.006624,-0.002643,-1.122701,-0.244963,1.110131,-1.221483,0.415615,1.162791,-8.822846
1790548268.2330,-0.016382,0.000229,-1.136467,-0.013455,-0.000632,-1.136467,-0.209753,0.618404,-1.250623,0.683911,-0.287229,-11.384385
1790548268.2471,-0.023006,0.004020,-1.150291,-0.020140,0.002624,-1.150291,-0.340881,0.595335,-1.250623,1.757095,0.344831,-10.918651
1790548268.2612,-0.025251,0.009917,-1.163200,-0.023718,0.007729,-1.163200,-0.516931,0.331866,-1.205700,0.760567,-0.138509,-10.064805
1790548268.2748,-0.026759,0.014940,-1.173419,-0.025847,0.012777,-1.173419,-0.464723,0.237163,-1.038148,0.913879,0.010211,-8.240679
1790548268.2884,-0.024127,0.014999,-1.180185,-0.024643,0.014332,-1.180185,-0.104123,-0.063944,-0.807461,0.338959,0.010211,-9.754315
1790548268.3025,-0.020026,0.013611,-1.188950,-0.021411,0.013828,-1.188950,0.120493,-0.256993,-0.585273,1.335487,2.315371,-11.190329
1790548268.3164,-0.013932,0.011973,-1.197026,-0.016176,0.012529,-1.197026,0.210340,-0.487680,-0.270810,1.603783,3.430771,-10.220049
1790548268.3304,-0.009430,0.007947,-1.201401,-0.011453,0.009321,-1.201401,0.391247,-0.456112,0.043653,2.178703,3.616671,-10.103616
1790548268.3443,-0.004968,0.001106,-1.205438,-0.006914,0.003571,-1.205438,0.654716,-0.462183,0.298622,1.220503,3.691031,-8.163056
1790548268.3583,-0.001057,-0.007407,-1.205896,-0.002814,-0.004114,-1.205896,0.785843,-0.458540,0.486815,1.297159,3.579491,-7.542077
1790548268.3727,-0.005599,-0.011797,-1.199092,-0.004764,-0.009492,-1.199092,0.374249,0.172814,0.719930,0.913879,4.137191,-15.847672
1790548268.3865,-0.004462,-0.010084,-1.188845,-0.004552,-0.009906,-1.188845,-0.134477,-0.091869,0.926334,-3.647151,1.980751,-15.925294
1790548268.4005,0.005495,-0.004102,-1.175006,0.002481,-0.005843,-1.175006,-0.383376,-0.781502,1.267508,-2.995575,2.464091,-11.811308
1790548268.4146,0.006825,-0.002474,-1.145163,0.005522,-0.003485,-1.145163,-0.251034,-0.280061,1.325787,-0.312616,-0.435949,-4.320748
1790548268.4285,-0.004430,0.001794,-1.128605,-0.001444,0.000211,-1.128605,-0.128406,0.408357,1.144880,2.638638,3.058971,-6.222497
1790548268.4425,-0.005869,0.001257,-1.112464,-0.004542,0.000943,-1.112464,-0.009420,-0.023877,0.953045,-0.504256,0.679451,-8.745224
1790548268.4564,0.000072,0.001154,-1.096105,-0.001312,0.001091,-1.096105,-0.079840,-0.505892,0.715073,-1.079176,0.158931,-12.199420
1790548268.4705,0.004821,0.003335,-1.082356,0.002981,0.002662,-1.082356,-0.271675,-0.338340,0.462532,-1.922392,-0.473129,-12.587532
1790548268.4845,0.011117,0.007344,-1.071869,0.008676,0.005939,-1.071869,-0.405230,-0.405118,0.271911,-2.114032,-0.435949,-11.462007
1790548268.4981,0.017529,0.009765,-1.065786,0.014873,0.008618,-1.065786,-0.288673,-0.418473,0.029083,-1.194160,-0.064149,-8.861658
1790548268.5117,0.023561,0.011815,-1.062931,0.020955,0.010856,-1.062931,-0.254677,-0.413617,-0.155467,-0.350944,0.084571,-7.930189
1790548268.5258,0.026947,0.013809,-1.062435,0.025149,0.012923,-1.062435,-0.237679,-0.224211,-0.224673,-0.044320,0.233291,-7.619700
1790548268.5398,0.029471,0.017397,-1.064621,0.028174,0.016055,-1.064621,-0.323883,-0.172003,-0.287808,0.262303,0.828171,-9.715504
1790548268.5539,0.024111,0.018274,-1.070839,0.025330,0.017608,-1.070839,-0.136905,0.435068,-0.462645,0.377287,1.311511,-14.062357
1790548268.5677,0.017353,0.014488,-1.079996,0.019746,0.015424,-1.079996,0.284402,0.606262,-0.483285,-0.887536,2.947431,-12.742777
1790548268.5818,0.012801,0.015581,-1.099090,0.014885,0.015534,-1.099090,0.086497,0.545555,-0.512424,-2.267343,4.546171,-8.628791
1790548268.5958,0.010973,0.013895,-1.115678,0.012147,0.014387,-1.115678,0.254049,0.352507,-0.659336,-1.807408,3.951291,-8.628791
1790548268.6099,0.002565,0.009423,-1.135561,0.005439,0.010912,-1.135561,0.502948,0.761673,-0.755253,-0.465928,4.100011,-7.192776
1790548268.6243,0.003340,0.002737,-1.154479,0.003970,0.005189,-1.154479,0.598865,0.244448,-0.823245,-2.152360,3.058971,-6.765853
1790548268.6385,0.012878,-0.002085,-1.169048,0.010206,0.000097,-1.169048,0.417958,-0.487680,-0.972584,-0.964192,3.876931,-11.617252
1790548268.6526,0.018509,-0.000573,-1.184052,0.016018,-0.000372,-1.184052,-0.065270,-0.267920,-1.302831,1.603783,4.955151,-16.507462
1790548268.6666,0.020601,0.000309,-1.200813,0.019226,0.000105,-1.200813,-0.149046,0.027117,-1.472811,0.913879,1.237151,-12.587532
1790548268.6806,0.013890,0.006187,-1.218846,0.015491,0.004362,-1.218846,-0.387018,0.630545,-1.358681,1.028863,2.687171,-8.745224
1790548268.6946,0.001935,0.011857,-1.230714,0.006001,0.009608,-1.230714,-0.512075,0.982646,-1.136493,1.182175,0.419191,-9.831937
1790548268.7086,-0.009160,0.018229,-1.242608,-0.004611,0.015643,-1.242608,-0.581281,0.963220,-1.039362,0.530599,-0.101329,-11.345574
1790548268.7224,-0.015039,0.022944,-1.251439,-0.011911,0.020754,-1.251439,-0.461081,0.556483,-0.903378,1.028863,-0.175689,-14.256413
1790548268.7361,-0.022571,0.027342,-1.259164,-0.019373,0.025366,-1.259164,-0.423442,0.615976,-0.826887,1.795423,0.158931,-10.181238
1790548268.7498,-0.019976,0.028615,-1.261943,-0.019795,0.027641,-1.261943,-0.200040,-0.123437,-0.551277,0.875551,0.158931,-13.053266
1790548268.7638,-0.014264,0.027525,-1.266427,-0.015923,0.027560,-1.266427,0.057358,-0.346839,-0.472358,0.415615,1.608951,-10.375294
1790548268.7777,-0.006920,0.023379,-1.271926,-0.009621,0.024633,-1.271926,0.374249,-0.573884,-0.185820,0.913879,2.426911,-7.503266
1790548268.7915,-0.006342,0.018466,-1.282512,-0.007326,0.020316,-1.282512,0.539372,-0.163504,0.065507,1.527127,4.025651,-7.697322
1790548268.8055,-0.004696,0.005925,-1.282333,-0.005485,0.010242,-1.282333,1.027457,-0.278847,0.399396,1.488799,3.876931,-9.831937
1790548268.8195,-0.001695,-0.008142,-1.284151,-0.002832,-0.002627,-1.284151,1.239932,-0.428187,0.603372,1.948735,5.401311,-9.055714
1790548268.8333,-0.010645,-0.012840,-1.276006,-0.008301,-0.009776,-1.276006,0.426457,0.461780,0.826774,1.795423,4.620531,-15.847672
1790548268.8474,-0.007679,-0.011171,-1.269119,-0.007865,-0.010753,-1.269119,-0.096838,-0.247279,0.912978,-2.650623,2.724351,-14.877392
1790548268.8614,-0.000683,-0.011628,-1.256178,-0.002838,-0.011365,-1.256178,-0.002135,-0.479181,1.133952,-2.497311,0.530731,-7.037532
1790548268.8756,-0.000584,-0.015759,-1.228044,-0.001260,-0.014441,-1.228044,0.118065,-0.133150,1.119383,-0.542584,-0.993649,-6.067252
1790548268.8895,-0.003429,-0.018542,-1.210818,-0.002778,-0.017312,-1.210818,0.098639,0.142460,0.974900,-1.079176,-0.287229,-7.736133
1790548268.9035,0.000953,-0.018999,-1.199611,-0.000166,-0.018493,-1.199611,0.000293,-0.281275,0.835273,-2.535639,0.679451,-9.133336
1790548268.9175,0.000409,-0.020721,-1.187598,0.000237,-0.020052,-1.187598,0.008792,-0.015378,0.552378,-0.619240,-0.659029,-11.462007
1790548268.9315,0.002280,-0.027025,-1.177249,0.001667,-0.024933,-1.177249,0.300186,-0.112510,0.377542,-1.730752,-1.551348,-12.354665
1790548268.9454,0.004752,-0.031699,-1.171144,0.003826,-0.029669,-1.171144,0.262548,-0.093083,0.276768,-2.075704,0.010211,-9.327392
1790548268.9591,0.007140,-0.031698,-1.167751,0.006146,-0.031089,-1.167751,-0.085911,-0.068801,0.092218,-2.114032,-0.138509,-9.870749
1790548268.9727,0.009984,-0.030089,-1.167232,0.008833,-0.030389,-1.167232,-0.178186,-0.112510,-0.078976,-1.347472,0.307651,-8.240679
1790548268.9866,0.011299,-0.029794,-1.170106,0.010559,-0.029972,-1.170106,-0.102909,-0.090655,-0.193105,0.108991,0.047391,-9.094525
1790548269.0005,0.011066,-0.029983,-1.173935,0.010914,-0.029980,-1.173935,-0.038559,-0.000809,-0.207675,0.530599,0.567911,-10.297672
1790548269.0145,0.008680,-0.029746,-1.178423,0.009350,-0.029816,-1.178423,-0.050701,0.148531,-0.213745,0.683911,0.902531,-10.530539
1790548269.0284,0.008154,-0.028545,-1.182304,0.008513,-0.028926,-1.182304,-0.094410,0.018618,-0.188248,0.453943,1.088431,-8.473546
1790548269.0425,0.002062,-0.031428,-1.190032,0.003998,-0.030677,-1.190032,0.162988,0.425355,-0.397081,1.182175,0.939711,-12.626343
1790548269.0565,-0.001366,-0.038897,-1.195919,0.000243,-0.036431,-1.195919,0.515089,0.397430,-0.558562,-1.692424,1.274331,-12.044175
1790548269.0705,-0.000226,-0.034333,-1.204168,-0.000085,-0.034963,-1.204168,-0.155117,-0.028734,-0.384939,-0.235960,4.917971,-10.918651
1790548269.0844,-0.002650,-0.027627,-1.217687,-0.001880,-0.029828,-1.217687,-0.430727,0.261446,-0.847528,0.415615,2.873071,-12.199420
1790548269.0983,-0.010297,-0.021426,-1.234867,-0.007772,-0.023947,-1.234867,-0.404016,0.611119,-1.028435,1.450471,2.203831,-9.560259
1790548269.1129,-0.001402,-0.011227,-1.250125,-0.003313,-0.015043,-1.250125,-0.695410,-0.246065,-1.216627,-3.493839,1.646131,-9.715504
1790548269.1284,-0.003532,-0.004407,-1.269798,-0.003467,-0.007598,-1.269798,-0.390661,0.289371,-1.182631,0.415615,2.055111,-7.503266
1790548269.1435,-0.016178,-0.000794,-1.289145,-0.012365,-0.002835,-1.289145,-0.263176,1.040925,-1.148635,-0.044320,1.237151,-9.870749
1790548269.1583,-0.019057,0.004991,-1.308485,-0.017049,0.002643,-1.308485,-0.468366,0.402287,-1.322257,0.492271,0.270471,-13.674245
1790548269.1737,-0.028944,0.010942,-1.329593,-0.025375,0.008452,-1.329593,-0.470794,0.784741,-1.276120,1.987063,-0.175689,-11.462007
1790548269.1880,-0.027414,0.016881,-1.343678,-0.026802,0.014352,-1.343678,-0.508432,0.125462,-1.168061,-0.235960,-0.064149,-9.754315
1790548269.2015,-0.028608,0.022361,-1.358405,-0.028066,0.019958,-1.358405,-0.456224,0.161886,-0.951944,1.527127,0.679451,-8.357112
1790548269.2152,-0.026889,0.024693,-1.370567,-0.027242,0.023273,-1.370567,-0.149046,-0.053017,-0.747968,1.450471,2.426911,-11.772497
1790548269.2292,-0.022954,0.024926,-1.380197,-0.024241,0.024430,-1.380197,0.037932,-0.292203,-0.455360,1.910407,3.133331,-11.345574
1790548269.2432,-0.018664,0.020954,-1.387800,-0.020337,0.021997,-1.387800,0.402174,-0.406332,-0.143325,2.217030,3.988471,-9.987182
1790548269.2573,-0.015346,0.014137,-1.393473,-0.016844,0.016495,-1.393473,0.641360,-0.321342,0.030297,1.143847,3.728211,-7.736133
1790548269.2716,-0.012496,0.003961,-1.395191,-0.013800,0.007721,-1.395191,0.852621,-0.345625,0.148069,1.642111,3.244871,-7.658511
1790548269.2855,-0.003817,-0.007502,-1.395373,-0.006812,-0.002935,-1.395373,0.941253,-0.728080,0.196635,0.913879,3.133331,-8.667602
1790548269.2996,-0.002379,-0.017931,-1.390056,-0.003709,-0.013432,-1.390056,0.793128,-0.244851,0.392111,1.642111,2.910251,-12.626343
1790548269.3136,-0.009123,-0.013647,-1.385098,-0.007499,-0.013582,-1.385098,-0.254677,0.413214,0.660437,-0.695896,3.876931,-16.817952
1790548269.3277,0.000738,-0.008686,-1.367127,-0.001733,-0.010155,-1.367127,-0.355450,-0.675872,1.045320,-3.877119,1.534591,-11.073895
1790548269.3416,-0.002480,-0.010782,-1.331716,-0.002256,-0.010594,-1.331716,-0.040988,-0.053017,1.183732,0.837223,-0.956469,-5.213406
1790548269.3556,-0.002470,-0.010624,-1.315959,-0.002406,-0.010615,-1.315959,-0.039773,0.093894,0.860770,-2.688951,0.605091,-6.532986
1790548269.3696,-0.000238,-0.010181,-1.305190,-0.000888,-0.010311,-1.305190,-0.011848,-0.190215,0.768495,-1.385800,1.497411,-8.551168
1790548269.3841,0.009310,-0.010478,-1.291716,0.006251,-0.010428,-1.291716,-0.077412,-0.613950,0.508669,-2.765607,-0.398769,-11.267951
1790548269.3981,0.012625,-0.005997,-1.281508,0.010713,-0.007326,-1.281508,-0.421014,-0.238780,0.444320,-1.922392,-0.435949,-13.907112
1790548269.4123,0.019243,0.001134,-1.273120,0.016684,-0.001404,-1.273120,-0.588566,-0.428187,0.297408,-2.267343,0.084571,-12.005364
1790548269.4260,0.026110,0.008238,-1.268381,0.023282,0.005345,-1.268381,-0.638346,-0.503463,0.139570,-0.734224,-0.324409,-8.939280
1790548269.4397,0.036879,0.016433,-1.265358,0.032800,0.013107,-1.265358,-0.702695,-0.701369,-0.114186,-1.155832,0.047391,-6.804665
1790548269.4536,0.043633,0.023437,-1.271682,0.040383,0.020338,-1.271682,-0.607992,-0.562956,-0.204032,0.990535,0.158931,-8.318301
1790548269.4677,0.032347,0.018538,-1.285313,0.034758,0.019078,-1.285313,0.207912,0.794454,-0.496641,2.025391,-0.026969,-14.101168
1790548269.4817,0.030532,0.012703,-1.286766,0.031800,0.014615,-1.286766,0.403388,0.386503,-0.592558,-3.762135,2.612811,-12.859210
1790548269.4956,0.023071,0.010351,-1.295540,0.025690,0.011630,-1.295540,0.296544,0.721606,-0.601057,-1.385800,3.876931,-8.395923
1790548269.5095,0.015606,0.006516,-1.302404,0.018631,0.008050,-1.302404,0.399746,0.785955,-0.603485,-2.114032,3.356411,-7.503266
1790548269.5236,0.007355,0.000581,-1.310314,0.010738,0.002822,-1.310314,0.613435,0.907370,-0.579202,-3.033903,3.914111,-6.455364
1790548269.5376,-0.001171,-0.008223,-1.318788,0.002402,-0.004910,-1.318788,0.823482,0.836949,-0.632624,-1.615768,3.728211,-6.649420
1790548269.5517,0.004330,-0.014891,-1.327642,0.003751,-0.011897,-1.327642,0.672928,-0.124651,-0.682404,-2.957247,4.806431,-8.512357
1790548269.5656,0.008564,-0.011039,-1.340249,0.007120,-0.011297,-1.340249,-0.246178,-0.187787,-1.126780,1.105519,4.211551,-17.632987
1790548269.5796,0.007483,-0.004707,-1.358607,0.007374,-0.006684,-1.358607,-0.484149,0.221379,-1.341683,1.258831,2.092291,-13.790679
1790548269.5936,0.010293,0.000206,-1.380333,0.009417,-0.001861,-1.380333,-0.402802,0.121820,-1.222698,-2.267343,1.162791,-9.676693
1790548269.6076,-0.007226,0.009096,-1.394432,-0.002233,0.005809,-1.394432,-0.540000,1.320178,-1.138922,1.105519,1.683311,-4.359560
1790548269.6218,-0.019221,0.017860,-1.411046,-0.014125,0.014245,-1.411046,-0.667485,0.948650,-0.973798,1.412143,0.902531,-9.637881
1790548269.6361,-0.027687,0.024599,-1.427709,-0.023618,0.021493,-1.427709,-0.538786,0.676683,-0.939802,2.332014,0.642271,-12.509909
1790548269.6502,-0.029524,0.031683,-1.442234,-0.027752,0.028626,-1.442234,-0.580067,0.273587,-0.853598,0.722239,0.530731,-12.199420
1790548269.6638,-0.029819,0.037714,-1.453195,-0.029199,0.034988,-1.453195,-0.524216,0.086610,-0.650837,1.373815,0.530731,-11.112707
1790548269.6778,-0.025684,0.040235,-1.461578,-0.026739,0.038661,-1.461578,-0.263176,-0.192643,-0.542778,0.185647,0.530731,-10.064805
1790548269.6918,-0.020152,0.039168,-1.464234,-0.022128,0.039016,-1.464234,0.113208,-0.442756,-0.223459,0.990535,1.757671,-6.571797
1790548269.7058,-0.023662,0.034274,-1.465157,-0.023201,0.035697,-1.465157,0.450740,0.104822,0.089790,1.987063,3.096151,-7.969000
1790548269.7198,-0.022659,0.022987,-1.459859,-0.022822,0.026800,-1.459859,0.898758,-0.235138,0.424893,1.527127,3.691031,-10.103616
1790548269.7338,-0.019375,0.009479,-1.452591,-0.020409,0.014675,-1.452591,1.137944,-0.471896,0.651938,2.140375,4.917971,-9.482637
1790548269.7480,-0.013390,-0.001403,-1.442923,-0.015496,0.003420,-1.442923,0.926684,-0.671015,0.704146,2.140375,4.285911,-8.900469
1790548269.7621,-0.006412,-0.009720,-1.434861,-0.009137,-0.005778,-1.434861,0.712995,-0.637019,0.696861,0.530599,4.880791,-13.169700
1790548269.7762,-0.007784,-0.008501,-1.427079,-0.008190,-0.007684,-1.427079,-0.055557,0.040472,0.844986,-1.922392,3.096151,-15.304315
1790548269.7902,-0.002188,-0.005167,-1.416336,-0.003988,-0.005922,-1.416336,-0.243749,-0.439114,1.097528,-3.340527,1.906391,-13.713056
1790548269.8042,0.000551,-0.007507,-1.400083,-0.000811,-0.007031,-1.400083,0.125350,-0.331055,1.212871,-0.580912,0.344831,-5.329839
1790548269.8181,-0.005921,-0.011873,-1.378381,-0.004388,-0.010420,-1.378381,0.260120,0.143674,0.957902,1.412143,0.233291,-4.864105
1790548269.8321,0.000603,-0.013147,-1.371334,-0.000894,-0.012329,-1.371334,0.035503,-0.428187,0.642225,-1.692424,0.307651,-6.765853
1790548269.8461,0.004367,-0.012944,-1.366601,0.002789,-0.012759,-1.366601,-0.121121,-0.256993,0.260984,-1.309144,-0.435949,-12.509909
1790548269.8602,0.005947,-0.010644,-1.365082,0.004999,-0.011278,-1.365082,-0.268032,-0.074871,0.057008,-1.117504,-0.287229,-11.694875
1790548269.8743,0.009367,-0.008339,-1.365053,0.008056,-0.009221,-1.365053,-0.264390,-0.184144,-0.057121,-1.347472,-0.175689,-12.587532
1790548269.8885,0.015273,-0.006041,-1.366759,0.013108,-0.006995,-1.366759,-0.282602,-0.335912,-0.210103,-1.079176,-0.361589,-9.288581
1790548269.9022,0.019800,-0.003672,-1.371923,0.017793,-0.004669,-1.371923,-0.248606,-0.259421,-0.427434,-0.350944,0.456371,-8.240679
1790548269.9163,0.024150,-0.000740,-1.378825,0.022243,-0.001919,-1.378825,-0.291101,-0.224211,-0.531851,-0.312616,0.419191,-8.163056
1790548269.9303,0.022784,-0.001023,-1.388079,0.022622,-0.001292,-1.388079,-0.071341,0.193454,-0.626554,-0.274288,0.642271,-13.208511
1790548269.9443,0.018311,-0.005169,-1.396638,0.019604,-0.004006,-1.396638,0.289259,0.512773,-0.662978,-2.075704,2.315371,-12.354665
1790548269.9583,0.013832,-0.003213,-1.402314,0.015564,-0.003451,-1.402314,0.062214,0.488491,-0.536707,-1.577440,5.141051,-8.706413
1790548269.9723,0.012095,-0.005710,-1.410001,0.013135,-0.005032,-1.410001,0.278332,0.382860,-0.592558,-2.727279,3.170511,-8.512357
1790548269.9863,0.002874,-0.011173,-1.416721,0.005952,-0.009331,-1.416721,0.561227,0.766529,-0.635053,-0.159304,3.579491,-7.153965
1790548270.0003,0.000329,-0.017647,-1.427134,0.002016,-0.015152,-1.427134,0.689926,0.407143,-0.766180,-1.385800,3.765391,-6.028441
1790548270.0142,0.011699,-0.021219,-1.435534,0.008794,-0.019399,-1.435534,0.280760,-0.719581,-0.831744,-0.005993,2.947431,-14.372847
1790548270.0283,0.016995,-0.015909,-1.450001,0.014534,-0.016956,-1.450001,-0.407659,-0.273991,-1.284619,1.757095,2.575631,-16.895574
1790548270.0423,0.020029,-0.008776,-1.462136,0.018380,-0.011230,-1.462136,-0.425871,-0.099154,-1.204485,0.607255,3.133331,-8.473546
1790548270.0564,0.014350,-0.003513,-1.483340,0.015559,-0.005828,-1.483340,-0.374877,0.669398,-1.174132,-0.849208,1.199971,-5.446273
1790548270.0705,0.002961,-0.001220,-1.495126,0.006740,-0.002602,-1.495126,-0.261961,0.812667,-0.985940,1.642111,0.196111,-6.106063
1790548270.0844,-0.004610,0.004788,-1.509491,-0.001205,0.002571,-1.509491,-0.533929,0.615976,-1.043005,1.757095,0.158931,-10.336483
1790548270.0984,-0.013257,0.008224,-1.524769,-0.009642,0.006528,-1.524769,-0.394303,0.692467,-0.971370,2.102047,-0.844929,-12.005364
1790548270.1120,-0.018528,0.013062,-1.538425,-0.015862,0.011102,-1.538425,-0.478079,0.495775,-0.894879,0.913879,-0.324409,-9.909560
1790548270.1261,-0.020043,0.015603,-1.549453,-0.018789,0.014252,-1.549453,-0.355450,0.147317,-0.649622,1.488799,-1.365448,-10.608161
1790548270.1411,-0.013427,0.012005,-1.554447,-0.015035,0.012679,-1.554447,0.125350,-0.378407,-0.403152,0.032335,-0.361589,-11.112707
1790548270.1554,-0.007056,0.006473,-1.557496,-0.009450,0.008335,-1.557496,0.374249,-0.480395,-0.233172,1.067191,1.423051,-9.405014
1790548270.1695,0.000235,-0.000556,-1.559698,-0.002671,0.002111,-1.559698,0.590366,-0.652803,0.027869,1.910407,3.058971,-9.443825
1790548270.1835,0.004467,-0.007145,-1.560492,0.002326,-0.004368,-1.560492,0.626791,-0.463397,0.282839,1.603783,3.728211,-8.512357
1790548270.1978,0.011429,-0.014425,-1.556799,0.008698,-0.011408,-1.556799,0.672928,-0.654017,0.507455,1.143847,3.802571,-8.861658
1790548270.2120,0.007190,-0.016897,-1.550784,0.007643,-0.015250,-1.550784,0.296544,0.177670,0.721144,0.147319,4.248731,-12.548721
1790548270.2260,0.008677,-0.012692,-1.541189,0.008367,-0.013460,-1.541189,-0.243749,-0.176859,0.886267,-1.845736,3.207691,-14.722147
1790548270.2402,0.021815,-0.006750,-1.527591,0.017781,-0.008763,-1.527591,-0.385804,-0.944197,1.108455,-2.650623,1.311511,-8.240679
1790548270.2545,0.021151,-0.006874,-1.506073,0.020140,-0.007441,-1.506073,-0.043416,-0.169574,1.290577,-0.082648,-0.026969,-6.377742
1790548270.2686,0.015881,-0.004318,-1.490993,0.017159,-0.005255,-1.490993,-0.218252,0.289371,1.114526,-1.385800,0.344831,-7.891378
1790548270.2829,0.015061,-0.003409,-1.478451,0.015690,-0.003962,-1.478451,-0.048272,0.010119,0.965187,-1.807408,1.237151,-8.589979
1790548270.2970,0.015916,-0.002332,-1.467038,0.015848,-0.002821,-1.467038,-0.132048,-0.156219,0.757568,-0.772552,0.344831,-10.491728
1790548270.3110,0.021605,-0.001148,-1.458505,0.019878,-0.001650,-1.458505,-0.170901,-0.413617,0.507455,-2.037376,-0.138509,-12.238231
1790548270.3253,0.027268,0.000934,-1.453099,0.025051,0.000159,-1.453099,-0.234036,-0.356552,0.284053,-2.037376,-0.064149,-10.336483
1790548270.3391,0.033251,0.005347,-1.451478,0.030791,0.003790,-1.451478,-0.430727,-0.419688,0.064293,-0.925864,-0.250049,-10.103616
1790548270.3529,0.037873,0.009504,-1.453865,0.035748,0.007790,-1.453865,-0.412515,-0.334698,-0.157895,-0.120976,-0.026969,-9.948371
1790548270.3670,0.043679,0.012336,-1.457393,0.041300,0.010972,-1.457393,-0.288673,-0.416045,-0.235600,0.070663,0.382011,-8.589979
1790548270.3812,0.043892,0.013273,-1.465165,0.043114,0.012583,-1.465165,-0.168473,0.035616,-0.472358,-0.005993,0.567911,-11.617252
1790548270.3958,0.041243,0.012843,-1.472283,0.041805,0.012765,-1.472283,0.130206,0.286943,-0.534279,-0.734224,4.546171,-10.646972
1790548270.4099,0.034918,0.014253,-1.478034,0.036984,0.013807,-1.478034,0.029433,0.571052,-0.463859,-1.040848,4.397451,-9.288581
1790548270.4238,0.028699,0.012725,-1.484671,0.031185,0.013050,-1.484671,0.237051,0.637830,-0.560990,-1.730752,4.100011,-8.745224
1790548270.4377,0.021518,0.009219,-1.492052,0.024418,0.010368,-1.492052,0.405817,0.686396,-0.602271,-1.079176,3.951291,-7.736133
1790548270.4518,0.011739,0.001850,-1.501120,0.015543,0.004406,-1.501120,0.706924,0.885515,-0.683618,-0.887536,3.356411,-5.912007
1790548270.4658,0.015269,-0.008618,-1.513771,0.015351,-0.004711,-1.513771,0.918185,0.045329,-0.825673,-2.343999,3.542311,-6.610609
1790548270.4798,0.021816,-0.011904,-1.521146,0.019877,-0.009746,-1.521146,0.273475,-0.423330,-1.101283,2.830278,4.694891,-17.167252
1790548270.4937,0.025147,-0.011674,-1.539299,0.023566,-0.011095,-1.539299,-0.082268,-0.077300,-1.505593,1.297159,2.464091,-18.913756
1790548270.5077,0.023986,-0.009317,-1.563988,0.023860,-0.009850,-1.563988,-0.327525,0.336723,-1.460669,-0.964192,-0.250049,-12.393476
1790548270.5219,0.016933,-0.005345,-1.579578,0.019011,-0.006696,-1.579578,-0.410087,0.567410,-1.136493,0.990535,0.047391,-5.912007
1790548270.5358,0.005320,-0.002837,-1.594217,0.009427,-0.003995,-1.594217,-0.277745,0.912226,-1.005366,1.105519,0.344831,-7.930189
1790548270.5500,0.000925,0.001786,-1.610485,0.003476,0.000052,-1.610485,-0.383376,0.483634,-1.062431,-0.044320,0.865351,-8.978091
1790548270.5644,-0.005313,0.006520,-1.624023,-0.002676,0.004580,-1.624023,-0.434370,0.483634,-0.911877,2.217030,0.047391,-12.277042
1790548270.5782,-0.012805,0.013340,-1.633729,-0.009766,0.010712,-1.633729,-0.572782,0.517630,-0.672691,2.485326,0.493551,-9.870749
1790548270.5919,-0.015414,0.018481,-1.637479,-0.013720,0.016150,-1.637479,-0.512075,0.178884,-0.325447,1.335487,-0.510309,-10.996273
1790548270.6059,-0.009361,0.014918,-1.635869,-0.010669,0.015287,-1.635869,0.136277,-0.453684,-0.059549,0.338959,-0.175689,-9.443825
1790548270.6199,-0.006692,0.008642,-1.635147,-0.007885,0.010635,-1.635147,0.445883,-0.317700,0.131071,1.450471,1.497411,-8.822846
1790548270.6343,-0.003772,0.003885,-1.632472,-0.005006,0.005910,-1.632472,0.426457,-0.395405,0.468602,1.872079,3.356411,-10.025993
1790548270.6488,0.002226,-0.001077,-1.626274,0.000057,0.001019,-1.626274,0.473809,-0.621235,0.709003,1.373815,3.839751,-9.870749
1790548270.6629,0.009255,-0.008058,-1.618232,0.006496,-0.005335,-1.618232,0.664429,-0.705011,0.889910,0.760567,3.876931,-8.978091
1790548270.6770,0.002459,-0.015434,-1.606910,0.003670,-0.012404,-1.606910,0.611007,0.268731,0.999182,1.220503,3.356411,-12.315854
1790548270.6909,0.002024,-0.014797,-1.594476,0.002518,-0.014079,-1.594476,0.006364,-0.025091,1.133952,-2.727279,2.873071,-13.519000
1790548270.7050,0.005783,-0.013174,-1.575215,0.004804,-0.013446,-1.575215,-0.094410,-0.374764,1.419276,-2.612295,1.943571,-13.092077
1790548270.7191,0.009332,-0.012537,-1.551030,0.007974,-0.012809,-1.551030,-0.115050,-0.443970,1.427775,-0.580912,-0.101329,-8.667602
1790548270.7330,0.007003,-0.010792,-1.532155,0.007294,-0.011398,-1.532155,-0.130834,-0.057873,1.266294,0.262303,0.753811,-7.309210
1790548270.7470,0.007752,-0.010134,-1.512778,0.007615,-0.010513,-1.512778,-0.150260,-0.144077,1.068389,-1.002520,-0.361589,-6.998721
1790548270.7610,0.013911,-0.009181,-1.498871,0.012022,-0.009581,-1.498871,-0.146618,-0.475538,0.707788,-1.807408,-0.064149,-11.656063
1790548270.7748,0.018950,-0.008880,-1.489525,0.016872,-0.009091,-1.489525,-0.122335,-0.402690,0.422465,-1.040848,-0.398769,-12.587532
1790548270.7887,0.020835,-0.008156,-1.482729,0.019646,-0.008436,-1.482729,-0.163616,-0.145292,0.275554,-1.079176,-0.547489,-12.277042
1790548270.8025,0.026131,-0.007582,-1.478943,0.024186,-0.007838,-1.478943,-0.150260,-0.368694,0.057008,-0.887536,-0.287229,-10.414105
1790548270.8161,0.028458,-0.006145,-1.481425,0.027177,-0.006653,-1.481425,-0.176972,-0.179288,-0.176107,0.147319,0.493551,-9.754315
1790548270.8301,0.030398,-0.004857,-1.486600,0.029432,-0.005396,-1.486600,-0.164830,-0.127079,-0.340016,0.185647,0.493551,-8.085434
1790548270.8441,0.030948,-0.003410,-1.493879,0.030493,-0.004006,-1.493879,-0.130834,-0.005665,-0.429863,0.147319,1.534591,-10.608161
1790548270.8582,0.024521,-0.007548,-1.502761,0.026312,-0.006485,-1.502761,0.251621,0.534628,-0.539136,-0.197632,1.646131,-12.936833
1790548270.8723,0.018731,-0.007658,-1.512514,0.021005,-0.007306,-1.512514,0.193342,0.577123,-0.480857,-1.539112,4.323091,-7.813756
1790548270.8863,0.012748,-0.010564,-1.521764,0.015225,-0.009587,-1.521764,0.337825,0.617190,-0.569489,-1.654096,3.505131,-8.201867
1790548270.9009,0.007111,-0.016855,-1.532597,0.009545,-0.014675,-1.532597,0.577011,0.520058,-0.588915,-0.810880,3.653851,-7.930189
1790548270.9154,0.004531,-0.028065,-1.542831,0.006035,-0.024048,-1.542831,0.891474,0.370719,-0.627768,-2.075704,3.802571,-10.181238
1790548270.9294,0.011195,-0.029989,-1.553735,0.009647,-0.028207,-1.553735,0.181200,-0.365051,-0.841457,-0.389272,3.393591,-14.450469
1790548270.9434,0.014555,-0.026902,-1.571067,0.013083,-0.027293,-1.571067,-0.255891,-0.101582,-1.282191,0.492271,2.129471,-16.507462
1790548270.9573,0.011740,-0.020737,-1.588149,0.012143,-0.022704,-1.588149,-0.412515,0.278444,-1.274906,1.067191,1.794851,-6.959909
1790548270.9712,0.012894,-0.011780,-1.603904,0.012669,-0.015057,-1.603904,-0.588566,0.146103,-0.982297,-0.887536,1.497411,-5.213406
1790548270.9852,-0.000970,-0.011527,-1.614881,0.003122,-0.012586,-1.614881,-0.168473,1.011786,-0.823245,1.412143,-0.547489,-7.619700
1790548270.9990,-0.007864,-0.009458,-1.627759,-0.004568,-0.010396,-1.627759,-0.179400,0.624475,-0.869382,0.185647,1.274331,-10.918651
1790548271.0130,-0.013583,-0.005250,-1.638354,-0.010879,-0.006794,-1.638354,-0.396731,0.448424,-0.815960,2.102047,0.047391,-13.130889
1790548271.0266,-0.020549,0.000367,-1.646843,-0.017648,-0.001781,-1.646843,-0.496291,0.513988,-0.647194,2.217030,0.233291,-12.044175
1790548271.0402,-0.021351,0.003461,-1.649774,-0.020240,0.001888,-1.649774,-0.361521,0.115749,-0.415293,0.300631,-0.547489,-9.560259
1790548271.0544,-0.019146,0.002214,-1.651012,-0.019474,0.002116,-1.651012,-0.036131,-0.089441,-0.314519,-0.159304,-0.435949,-9.249770
1790548271.0689,-0.014333,-0.003047,-1.648849,-0.015876,-0.001498,-1.648849,0.275903,-0.307987,-0.058335,-0.235960,0.084571,-8.007811
1790548271.0832,-0.008080,-0.010236,-1.647735,-0.010419,-0.007615,-1.647735,0.515089,-0.535031,0.179637,1.220503,2.017931,-11.345574
1790548271.0973,-0.001245,-0.015306,-1.647755,-0.003997,-0.012998,-1.647755,0.468952,-0.654017,0.394540,1.872079,3.728211,-11.190329
1790548271.1116,0.004552,-0.019241,-1.646956,0.001987,-0.017368,-1.646956,0.432528,-0.639447,0.603372,2.255358,3.839751,-9.133336
1790548271.1258,-0.000774,-0.023936,-1.643149,0.000054,-0.021965,-1.643149,0.475023,0.147317,0.756354,2.102047,3.691031,-9.754315
1790548271.1400,-0.001678,-0.021906,-1.632193,-0.001158,-0.021924,-1.632193,-0.081054,-0.028734,0.948189,-1.117504,3.207691,-13.907112
1790548271.1544,0.004606,-0.019214,-1.614015,0.002876,-0.020027,-1.614015,-0.164830,-0.542316,1.209229,-1.424128,1.571771,-10.064805
1790548271.1684,0.003465,-0.018490,-1.591881,0.003289,-0.018951,-1.591881,-0.078626,-0.117366,1.416847,-0.197632,0.493551,-7.580888
1790548271.1825,0.005114,-0.018382,-1.566707,0.004566,-0.018553,-1.566707,-0.074984,-0.258207,1.428989,-1.002520,-0.026969,-7.658511
1790548271.1967,0.001316,-0.019081,-1.545166,0.002291,-0.018923,-1.545166,-0.017919,0.082967,1.286934,-0.120976,0.010211,-7.619700
1790548271.2119,0.004658,-0.016222,-1.527387,0.003948,-0.017032,-1.527387,-0.186685,-0.210855,0.919049,-2.420655,1.088431,-8.434735
1790548271.2265,0.003909,-0.013979,-1.515962,0.003920,-0.014895,-1.515962,-0.231608,-0.038447,0.622798,-0.235960,-0.026969,-11.772497
1790548271.2412,0.006831,-0.013723,-1.505760,0.005958,-0.014074,-1.505760,-0.106551,-0.241209,0.454033,-0.734224,-0.212869,-11.229140
1790548271.2560,0.010075,-0.012634,-1.500040,0.008840,-0.013066,-1.500040,-0.130834,-0.250922,0.245200,-0.389272,0.456371,-10.646972
1790548271.2704,0.010545,-0.008624,-1.501793,0.010033,-0.009957,-1.501793,-0.292315,-0.068801,-0.038909,0.492271,1.348691,-10.297672
1790548271.2843,0.013977,-0.004587,-1.505057,0.012794,-0.006198,-1.505057,-0.295957,-0.218140,-0.251384,-0.120976,1.460231,-9.172147
1790548271.2985,0.015533,-0.000655,-1.511934,0.014711,-0.002318,-1.511934,-0.270460,-0.084584,-0.381297,0.338959,2.203831,-11.423196
1790548271.3127,0.012603,-0.001683,-1.520961,0.013235,-0.001873,-1.520961,0.111994,0.269945,-0.459002,-0.044320,3.244871,-12.742777
1790548271.3269,0.007200,-0.001291,-1.533397,0.009010,-0.001466,-1.533397,0.116851,0.476349,-0.502711,-0.389272,4.620531,-10.220049
1790548271.3409,0.002971,-0.003218,-1.545570,0.004783,-0.002693,-1.545570,0.298972,0.477563,-0.596200,-1.270816,3.988471,-8.279490
1790548271.3551,-0.002326,-0.008674,-1.557403,-0.000193,-0.006880,-1.557403,0.544229,0.554054,-0.596200,-1.194160,3.542311,-7.619700
1790548271.3694,-0.009022,-0.016650,-1.570090,-0.006374,-0.013719,-1.570090,0.722708,0.683968,-0.656907,-1.424128,3.170511,-6.727042
1790548271.3835,-0.003189,-0.022102,-1.580244,-0.004144,-0.019587,-1.580244,0.408245,-0.247279,-0.667835,-1.730752,2.352551,-12.898021
1790548271.3980,0.003226,-0.020449,-1.592724,0.001015,-0.020190,-1.592724,-0.118693,-0.320128,-0.921590,-0.044320,2.426911,-15.925294
1790548271.4121,-0.001419,-0.014963,-1.604291,-0.000688,-0.016531,-1.604291,-0.280174,0.367076,-1.056360,1.680439,3.133331,-8.357112
1790548271.4263,-0.005859,-0.009770,-1.618325,-0.004308,-0.011798,-1.618325,-0.342095,0.454495,-0.910663,-0.044320,1.497411,-7.192776
1790548271.4406,-0.013789,-0.006697,-1.628836,-0.010945,-0.008228,-1.628836,-0.315384,0.681539,-0.698188,-0.159304,-0.101329,-9.560259
1790548271.4547,-0.019825,-0.004162,-1.636906,-0.017161,-0.005382,-1.636906,-0.246178,0.494561,-0.625340,0.683911,0.419191,-9.443825
1790548271.4688,-0.026173,-0.001307,-1.642909,-0.023469,-0.002530,-1.642909,-0.288673,0.470279,-0.558562,1.527127,0.084571,-10.802217
1790548271.4831,-0.030781,0.003992,-1.646675,-0.028587,0.002035,-1.646675,-0.440440,0.325796,-0.365513,1.373815,0.419191,-11.345574
1790548271.4969,-0.033909,0.008059,-1.646329,-0.032313,0.006252,-1.646329,-0.385804,0.197097,-0.105687,1.028863,0.196111,-9.870749
1790548271.5107,-0.035362,0.008452,-1.643183,-0.034447,0.007792,-1.643183,-0.130834,0.098751,0.078863,0.147319,0.084571,-9.793126
1790548271.5246,-0.036472,0.005728,-1.637588,-0.035865,0.006347,-1.637588,0.091354,0.027117,0.262198,0.338959,0.084571,-8.939280
1790548271.5387,-0.033287,-0.000982,-1.629393,-0.034060,0.001217,-1.629393,0.387605,-0.327413,0.440677,0.683911,0.382011,-11.112707
1790548271.5530,-0.025331,-0.009417,-1.621812,-0.027950,-0.006227,-1.621812,0.568512,-0.724437,0.530524,1.757095,1.683311,-12.277042
1790548271.5670,-0.019527,-0.011123,-1.619983,-0.022054,-0.009654,-1.619983,0.275903,-0.634591,0.645867,2.063719,4.248731,-9.482637
1790548271.5810,-0.015124,-0.016336,-1.613563,-0.017203,-0.014331,-1.613563,0.506590,-0.493750,0.796421,0.990535,3.839751,-9.831937
1790548271.5950,-0.011896,-0.022659,-1.607740,-0.013488,-0.020161,-1.607740,0.631647,-0.351696,0.841344,-0.005993,4.100011,-8.628791
1790548271.6094,-0.012489,-0.027930,-1.597791,-0.012789,-0.025599,-1.597791,0.536944,-0.161075,0.963972,1.067191,3.653851,-8.124245
1790548271.6235,-0.019032,-0.030546,-1.586393,-0.017159,-0.029062,-1.586393,0.271047,0.307583,1.081744,0.415615,3.393591,-11.811308
