t,imu_roll,imu_pitch,imu_yaw,lpf_roll,lpf_pitch,lpf_yaw,gyro_x,gyro_y,gyro_z,acc_x,acc_y,acc_z
1790547915.3949,-0.048317,-0.025437,0.011650,-0.033822,-0.017806,0.011650,-0.012872,-0.007652,0.003512,0.338959,1.274331,-10.336483
1790547915.4101,-0.050429,-0.032536,0.014747,-0.045447,-0.028117,0.014747,-0.000731,-0.005224,-0.007415,0.338959,1.125611,-10.064805
1790547915.4240,-0.052325,-0.030918,0.012341,-0.050261,-0.030078,0.012341,0.015053,0.004489,-0.003773,0.377287,1.274331,-10.220049
1790547915.4377,-0.048877,-0.026474,0.011244,-0.049292,-0.027555,0.011244,0.013839,0.008132,0.003512,0.185647,1.385871,-9.909560
1790547915.4517,-0.045348,-0.022829,0.010662,-0.046531,-0.024247,0.010662,-0.000731,0.012988,-0.004987,0.108991,1.423051,-9.870749
1790547915.4660,-0.040788,-0.022550,0.011766,-0.042511,-0.023059,0.011766,-0.017729,-0.013723,-0.004987,-0.005993,1.274331,-9.831937
1790547915.4808,-0.041757,-0.019483,0.011302,-0.041983,-0.020556,0.011302,-0.039583,0.034843,0.009583,0.262303,1.534591,-10.375294
1790547915.4955,-0.038142,-0.016570,0.012096,-0.039294,-0.017766,0.012096,-0.059010,0.038485,0.054506,-0.120976,1.571771,-10.452916
1790547915.5096,-0.038402,-0.011207,0.014297,-0.038670,-0.013174,0.014297,-0.076008,0.006918,0.124926,0.185647,1.757671,-9.948371
1790547915.5238,-0.037806,-0.004765,0.018287,-0.038065,-0.007288,0.018287,-0.112432,-0.081715,0.229342,0.185647,1.832031,-9.482637
1790547915.5381,-0.033962,-0.000037,0.023444,-0.035193,-0.002212,0.023444,-0.156141,-0.223769,0.399322,-0.005993,1.720491,-9.599070
1790547915.5521,-0.040585,0.000998,0.037010,-0.038967,0.000035,0.037010,-0.096648,-0.017365,0.543805,0.798895,1.423051,-9.405014
1790547915.5663,-0.036369,-0.008298,0.039797,-0.037148,-0.005798,0.039797,0.210530,0.145330,0.649435,-0.772552,0.716631,-10.297672
1790547915.5807,-0.035537,-0.007431,0.048167,-0.036020,-0.006941,0.048167,0.183819,0.147758,0.579015,-0.389272,1.980751,-10.220049
1790547915.5947,-0.029749,-0.013669,0.044304,-0.031630,-0.011651,0.044304,0.081831,-0.061074,0.399322,-0.695896,0.679451,-9.909560
1790547915.6088,-0.027120,-0.019183,0.039061,-0.028473,-0.016924,0.039061,0.050263,-0.056218,0.212344,-0.274288,0.642271,-10.414105
1790547915.6231,-0.028057,-0.024716,0.034749,-0.028182,-0.022378,0.034749,0.143752,0.083409,0.163779,-0.005993,0.753811,-10.414105
1790547915.6369,-0.026801,-0.027902,0.036217,-0.027215,-0.026245,0.036217,0.160750,-0.047719,0.172278,-0.082648,1.125611,-10.414105
1790547915.6506,-0.028706,-0.026862,0.042414,-0.028259,-0.026677,0.042414,0.081831,0.113762,0.117641,0.108991,1.423051,-8.667602
1790547915.6644,-0.029147,-0.023743,0.051204,-0.028880,-0.024623,0.051204,0.032051,-0.016151,0.072718,0.185647,1.794851,-9.133336
1790547915.6785,-0.031047,-0.021129,0.057137,-0.030397,-0.022177,0.057137,-0.000731,-0.039220,0.043579,0.607255,1.869211,-10.181238
1790547915.6927,-0.032433,-0.017496,0.064097,-0.031822,-0.018900,0.064097,-0.055367,-0.131495,0.063005,0.760567,1.869211,-9.560259
1790547915.7066,-0.030369,-0.010425,0.073179,-0.030805,-0.012968,0.073179,-0.182852,-0.334256,0.124926,0.607255,2.389731,-9.754315
1790547915.7205,-0.028854,-0.002742,0.083215,-0.029439,-0.005810,0.083215,-0.293339,-0.379180,0.116427,0.913879,2.389731,-10.142427
1790547915.7348,-0.028663,0.006557,0.086412,-0.028896,0.002847,0.086412,-0.236274,-0.156992,0.022938,0.568927,3.021791,-9.793126
1790547915.7490,-0.033335,-0.000397,0.092556,-0.032003,0.000576,0.092556,0.469142,0.185396,-0.140971,1.028863,2.055111,-14.295224
1790547915.7629,-0.030925,0.006773,0.054908,-0.031248,0.004914,0.054908,0.223885,0.146544,-0.467575,-0.695896,4.248731,-9.443825
1790547915.7769,-0.029356,0.010064,0.039003,-0.029924,0.008519,0.039003,0.126754,0.071267,-0.893739,-0.044320,2.798711,-9.288581
1790547915.7910,-0.011846,0.005110,-0.007491,-0.017269,0.006133,-0.007491,0.294306,-0.711855,-1.225200,-1.347472,1.385871,-10.220049
1790547915.8050,-0.026916,0.006753,0.064974,-0.024022,0.006567,0.064974,0.015053,0.427011,-1.186347,2.945262,2.055111,-9.016902
1790547915.8188,-0.025075,0.006005,0.059610,-0.024759,0.006174,0.059610,-0.055367,-0.048933,-1.103786,0.377287,1.088431,-9.754315
1790547915.8328,-0.017791,-0.001140,0.031541,-0.019881,0.001054,0.031541,0.208102,-0.176418,-1.180277,-0.695896,0.196111,-10.414105
1790547915.8468,-0.015665,-0.000414,0.014849,-0.016929,0.000027,0.014849,0.272451,-0.097499,-1.296834,0.453943,2.389731,-7.852567
1790547915.8608,-0.019783,0.005658,0.006666,-0.018927,0.003969,0.006666,-0.186495,0.261887,-1.492311,1.028863,2.464091,-8.784035
1790547915.8748,-0.024465,0.005499,0.005609,-0.022804,0.005040,0.005609,-0.124573,0.376017,-1.392751,0.798895,0.939711,-9.715504
1790547915.8886,-0.024534,0.002661,-0.019172,-0.024015,0.003375,-0.019172,-0.010444,0.332308,-1.306547,-0.504256,0.493551,-10.375294
1790547915.9029,-0.025341,0.000069,-0.022273,-0.024943,0.001061,-0.022273,0.051477,0.093122,-0.975087,0.568927,0.828171,-9.599070
1790547915.9170,-0.028152,0.000706,-0.025118,-0.027190,0.000812,-0.025118,-0.055367,0.182968,-0.817248,0.760567,1.423051,-9.676693
1790547915.9310,-0.027325,0.001786,-0.041720,-0.027284,0.001494,-0.041720,0.001697,0.101621,-0.644840,-0.235960,2.092291,-10.918651
1790547915.9450,-0.035433,0.007973,-0.054889,-0.032989,0.006029,-0.054889,-0.179210,0.496217,-0.699476,1.143847,2.724351,-8.978091
1790547915.9593,-0.037571,0.011239,-0.080554,-0.036196,0.009676,-0.080554,-0.245988,0.441580,-0.631484,-0.887536,1.608951,-11.229140
1790547915.9734,-0.028097,0.006899,-0.092129,-0.030527,0.007732,-0.092129,0.160750,-0.488452,-0.347375,-0.849208,0.976891,-13.363756
1790547915.9881,-0.030430,0.003383,-0.082968,-0.030459,0.004688,-0.082968,0.210530,0.051841,0.308262,0.492271,1.534591,-10.918651
1790547916.0028,-0.035253,-0.008005,-0.065499,-0.033815,-0.004197,-0.065499,0.463071,0.175683,0.821844,0.300631,-0.361589,-9.249770
1790547916.0173,-0.041230,-0.018747,-0.042894,-0.039005,-0.014382,-0.042894,0.429075,0.159899,0.957828,0.645583,-0.324409,-6.921098
1790547916.0317,-0.041645,-0.025196,-0.034831,-0.040853,-0.021952,-0.034831,0.265166,0.112548,1.044032,-1.002520,0.233291,-8.900469
1790547916.0456,-0.038984,-0.029539,-0.030833,-0.039544,-0.027263,-0.030833,0.124326,-0.048933,0.776920,-1.462456,0.196111,-11.500819
1790547916.0597,-0.049888,-0.036759,-0.020329,-0.046785,-0.033911,-0.020329,0.263952,0.587277,0.804846,1.028863,-0.361589,-11.229140
1790547916.0737,-0.060217,-0.046437,-0.008039,-0.056188,-0.042679,-0.008039,0.628195,0.496217,0.979682,1.105519,0.753811,-8.667602
1790547916.0876,-0.070303,-0.059536,0.005438,-0.066068,-0.054479,0.005438,0.895306,0.502288,1.098668,1.105519,0.790991,-8.628791
1790547916.1012,-0.079286,-0.061354,0.005249,-0.075321,-0.059292,0.005249,0.356227,0.692908,0.960256,-0.120976,2.278191,-8.434735
1790547916.1148,-0.078093,-0.064134,0.002579,-0.077261,-0.062682,0.002579,0.254239,0.246104,0.869195,-1.960720,1.423051,-9.055714
1790547916.1287,-0.077080,-0.069753,0.009988,-0.077134,-0.067632,0.009988,0.437574,-0.042862,0.667648,-0.005993,1.423051,-10.879840
1790547916.1427,-0.079798,-0.077506,0.018519,-0.078999,-0.074544,0.018519,0.498281,0.138045,0.614225,0.722239,0.642271,-10.802217
1790547916.1567,-0.073496,-0.079457,0.024795,-0.075147,-0.077983,0.024795,0.114613,-0.396178,0.585086,-0.197632,1.051251,-13.208511
1790547916.1707,-0.074755,-0.078686,0.034914,-0.074873,-0.078475,0.034914,-0.290911,-0.266264,0.452744,3.558510,-1.030829,-11.966553
1790547916.1846,-0.070547,-0.070719,0.044154,-0.071844,-0.073046,0.044154,-0.746214,-0.657218,0.450316,2.715294,-0.287229,-9.327392
1790547916.1986,-0.067516,-0.058069,0.049373,-0.068815,-0.062562,0.049373,-1.032752,-0.668145,0.393252,2.370342,0.047391,-6.300119
1790547916.2125,-0.058516,-0.046323,0.059130,-0.061605,-0.051195,0.059130,-1.029109,-0.993536,0.270623,2.255358,-0.212869,-7.891378
1790547916.2265,-0.051297,-0.039114,0.069361,-0.054390,-0.042738,0.069361,-0.786281,-0.926758,0.197775,2.791950,-0.770569,-8.201867
1790547916.2405,-0.058968,-0.043052,0.085411,-0.057594,-0.042958,0.085411,0.010196,0.439152,-0.147042,2.523654,-1.700068,-17.244875
1790547916.2549,-0.057681,-0.042565,0.059332,-0.057655,-0.042683,0.059332,0.202031,0.240033,-0.643626,-2.114032,3.170511,-11.384385
1790547916.2691,-0.052045,-0.042680,0.043423,-0.053728,-0.042681,0.043423,0.110970,-0.201915,-0.905881,-0.465928,1.646131,-9.909560
1790547916.2831,-0.050562,-0.038825,-0.002208,-0.051511,-0.039982,-0.002208,0.100043,-0.156992,-0.596274,0.683911,2.129471,-5.252217
1790547916.2971,-0.040746,-0.050232,0.015662,-0.043976,-0.047157,0.015662,0.605126,-0.581941,-0.351018,-0.350944,-0.510309,-7.697322
1790547916.3110,-0.032840,-0.063250,0.017004,-0.036181,-0.058422,0.017004,0.849169,-0.381608,-0.726187,-0.810880,0.084571,-9.599070
1790547916.3249,-0.018631,-0.067731,-0.008241,-0.023896,-0.064938,-0.008241,0.499496,-0.938899,-0.914380,-0.082648,2.426911,-10.763406
1790547916.3385,-0.017285,-0.070413,-0.030265,-0.019268,-0.068770,-0.030265,0.296734,-0.194630,-0.925307,1.335487,1.534591,-9.443825
1790547916.3522,-0.012426,-0.075994,-0.050469,-0.014479,-0.073827,-0.050469,0.531063,-0.413176,-0.743185,0.798895,1.571771,-8.861658
1790547916.3663,0.002064,-0.084232,-0.062273,-0.002899,-0.081110,-0.062273,0.601484,-0.855123,-0.714046,-1.117504,0.790991,-8.706413
1790547916.3827,-0.009601,-0.093364,-0.086925,-0.007591,-0.089688,-0.086925,0.795746,0.567851,-0.505214,2.140375,3.653851,-11.500819
1790547916.3968,-0.019293,-0.083580,-0.096596,-0.015782,-0.085413,-0.096596,-0.664867,1.080219,-0.487001,-4.720334,1.311511,-13.790679
1790547916.4108,-0.010868,-0.073408,-0.081800,-0.012343,-0.077009,-0.081800,-0.924693,-0.130280,-0.546494,-4.873646,-1.216729,-11.190329
1790547916.4246,-0.018693,-0.068375,-0.059255,-0.016788,-0.070965,-0.059255,-0.877342,0.711120,-0.461505,-0.542584,-2.257768,-5.485084
1790547916.4386,-0.027637,-0.052610,-0.068850,-0.024382,-0.058117,-0.068850,-0.972045,0.888385,-0.422652,-1.347472,1.757671,-7.115154
1790547916.4524,-0.036835,-0.044741,-0.073749,-0.033099,-0.048754,-0.073749,-0.812992,1.025583,-0.397155,-2.382327,-1.142369,-8.395923
1790547916.4665,-0.037949,-0.036343,-0.077606,-0.036494,-0.040066,-0.077606,-0.606588,0.210893,-0.402012,-1.002520,1.608951,-16.158161
1790547916.4806,-0.032788,-0.041190,-0.079934,-0.033900,-0.040853,-0.079934,0.262738,-0.402248,-0.015914,0.683911,0.493551,-14.799770
1790547916.4948,-0.034072,-0.038317,-0.068203,-0.034020,-0.039078,-0.068203,-0.084507,0.138045,0.509809,-0.887536,2.426911,-10.181238
1790547916.5092,-0.042219,-0.047946,-0.070923,-0.039759,-0.045286,-0.070923,0.441217,0.342021,0.700429,1.143847,-0.770569,-6.765853
1790547916.5234,-0.046415,-0.056485,-0.064339,-0.044418,-0.053125,-0.064339,0.609983,0.368732,0.211130,-0.312616,0.530731,-4.941727
1790547916.5374,-0.066852,-0.063929,-0.075575,-0.060122,-0.060688,-0.075575,0.577201,1.125142,0.334973,3.520182,1.348691,-9.443825
1790547916.5514,-0.076646,-0.074806,-0.064921,-0.071689,-0.070570,-0.064921,0.834599,0.769399,0.536520,-0.580912,1.683311,-10.297672
1790547916.5650,-0.086164,-0.081214,-0.052020,-0.081821,-0.078021,-0.052020,0.680403,0.787611,0.649435,-0.580912,2.798711,-8.706413
1790547916.5787,-0.093714,-0.083291,-0.039643,-0.090146,-0.081710,-0.039643,0.307661,0.605490,0.721070,-0.274288,2.575631,-9.288581
1790547916.5927,-0.098995,-0.089398,-0.028737,-0.096341,-0.087091,-0.028737,0.459429,0.374803,0.723498,0.338959,1.348691,-9.560259
1790547916.6066,-0.093509,-0.097209,-0.023448,-0.094359,-0.094174,-0.023448,0.418148,-0.297832,0.707714,-0.849208,-0.435949,-12.354665
1790547916.6206,-0.083497,-0.095463,-0.012034,-0.086755,-0.095076,-0.012034,-0.120931,-0.720354,0.659149,0.377287,1.348691,-12.277042
1790547916.6346,-0.082208,-0.093606,-0.007652,-0.083572,-0.094047,-0.007652,-0.371044,-0.358539,0.702858,3.405198,-1.700068,-10.957462
1790547916.6485,-0.080405,-0.088263,-0.002085,-0.081355,-0.089998,-0.002085,-0.615087,-0.416818,0.651864,2.791950,-1.253909,-8.318301
1790547916.6623,-0.074971,-0.080891,0.001883,-0.076887,-0.083623,0.001883,-0.819063,-0.711855,0.373825,3.251886,-1.923148,-8.395923
1790547916.6763,-0.068830,-0.066738,-0.005574,-0.071247,-0.071803,-0.005574,-1.057035,-0.847838,0.241484,4.670021,0.419191,-9.172147
1790547916.6903,-0.060853,-0.049616,-0.011842,-0.063971,-0.056272,-0.011842,-1.195447,-0.938899,0.111571,3.865134,1.125611,-8.279490
1790547916.7042,-0.054563,-0.034815,-0.024161,-0.057385,-0.041252,-0.024161,-0.946548,-0.704570,0.024152,2.102047,1.646131,-6.610609
1790547916.7183,-0.070457,-0.040819,-0.031265,-0.066535,-0.040949,-0.031265,0.492211,1.247771,-0.238102,-0.542584,2.241011,-13.674245
1790547916.7324,-0.063962,-0.047319,-0.024140,-0.064734,-0.045408,-0.024140,0.523778,-0.072002,-0.847602,-3.685479,1.683311,-12.238231
1790547916.7465,-0.052236,-0.048435,-0.028301,-0.055986,-0.047527,-0.028301,0.102471,-0.651147,-0.620557,-1.002520,1.088431,-10.181238
1790547916.7607,-0.049432,-0.054770,-0.029999,-0.051398,-0.052597,-0.029999,0.404793,-0.248052,-0.312165,1.258831,0.419191,-10.297672
1790547916.7748,-0.041546,-0.061816,-0.036331,-0.044502,-0.059051,-0.036331,0.550490,-0.414390,-0.518569,-0.810880,1.199971,-8.978091
1790547916.7887,-0.024853,-0.066853,-0.047507,-0.030748,-0.064512,-0.047507,0.489782,-1.027531,-0.667909,-1.155832,1.869211,-8.473546
1790547916.8035,-0.018350,-0.075772,-0.062377,-0.022069,-0.072394,-0.062377,0.686474,-0.517592,-0.789323,1.412143,1.460231,-8.279490
1790547916.8174,-0.013232,-0.080338,-0.080286,-0.015883,-0.077955,-0.080286,0.470356,-0.325757,-0.756541,0.070663,1.980751,-8.318301
1790547916.8320,-0.005613,-0.085419,-0.092218,-0.008694,-0.083180,-0.092218,0.463071,-0.592869,-0.646054,1.450471,2.464091,-11.462007
1790547916.8466,-0.022975,-0.086986,-0.092393,-0.018691,-0.085844,-0.092393,0.064833,1.100860,-0.575634,2.255358,0.307651,-13.868301
1790547916.8612,-0.020530,-0.076296,-0.096435,-0.019978,-0.079160,-0.096435,-0.765640,0.125903,-0.591418,-3.340527,0.270471,-10.414105
1790547916.8753,-0.020072,-0.064987,-0.083331,-0.020043,-0.069239,-0.083331,-1.053392,0.255817,-0.574420,-2.229015,-1.662888,-7.425644
1790547916.8890,-0.022061,-0.056804,-0.075841,-0.021455,-0.060535,-0.075841,-0.957475,0.439152,-0.467575,-1.654096,-1.960328,-5.291028
1790547916.9031,-0.031719,-0.045494,-0.079750,-0.028640,-0.050007,-0.079750,-0.861558,0.859245,-0.518569,-1.002520,0.233291,-7.891378
1790547916.9171,-0.045263,-0.035573,-0.083884,-0.040276,-0.039903,-0.083884,-0.752285,1.153068,-0.483359,-1.194160,0.493551,-9.870749
1790547916.9311,-0.033131,-0.039671,-0.083493,-0.035275,-0.039741,-0.083493,0.242098,-0.568586,-0.409296,-4.911974,0.642271,-16.352217
1790547916.9452,-0.028818,-0.041596,-0.075793,-0.030755,-0.041040,-0.075793,0.140110,-0.221341,0.195346,-1.270816,1.199971,-10.375294
1790547916.9593,-0.030086,-0.039792,-0.068719,-0.030287,-0.040166,-0.068719,-0.128216,0.039699,0.484312,0.070663,1.162791,-9.909560
1790547916.9733,-0.023947,-0.046108,-0.067728,-0.025849,-0.044325,-0.067728,0.330730,-0.460527,0.418749,-0.235960,-0.287229,-8.240679
1790547916.9874,-0.030829,-0.052335,-0.084159,-0.029335,-0.049932,-0.084159,0.436360,0.231534,0.313118,2.446998,0.790991,-8.279490
1790547917.0015,-0.047622,-0.062085,-0.089636,-0.042136,-0.058439,-0.089636,0.684045,1.011013,0.388395,2.255358,1.014071,-10.996273
1790547917.0158,-0.059828,-0.071526,-0.080232,-0.054521,-0.067600,-0.080232,0.736253,0.810680,0.639722,0.338959,2.203831,-10.841028
1790547917.0295,-0.071667,-0.076193,-0.068166,-0.066523,-0.073615,-0.068166,0.500710,0.833748,0.753852,0.262303,3.021791,-9.521448
1790547917.0432,-0.077540,-0.080315,-0.055256,-0.074235,-0.078305,-0.055256,0.353799,0.451294,0.736854,-0.312616,1.720491,-9.288581
1790547917.0572,-0.082793,-0.087826,-0.043903,-0.080226,-0.084969,-0.043903,0.505566,0.412441,0.688288,-0.389272,0.716631,-9.210958
1790547917.0712,-0.073525,-0.096153,-0.035902,-0.075535,-0.092798,-0.035902,0.387795,-0.538232,0.718642,-2.267343,-2.109048,-13.480189
1790547917.0853,-0.064614,-0.090932,-0.027607,-0.067890,-0.091492,-0.027607,-0.391685,-0.693642,0.592371,1.143847,1.051251,-14.411658
1790547917.0992,-0.058533,-0.084925,-0.031133,-0.061340,-0.086895,-0.031133,-0.576234,-0.662075,0.615440,2.523654,-0.807749,-8.978091
1790547917.1133,-0.059175,-0.076741,-0.036776,-0.059825,-0.079787,-0.036776,-0.789923,-0.347612,0.600870,4.210086,-1.514168,-7.658511
1790547917.1272,-0.048359,-0.061294,-0.036311,-0.051799,-0.066842,-0.036311,-1.183305,-1.000820,0.474599,1.795423,0.047391,-6.610609
1790547917.1412,-0.033193,-0.047015,-0.034076,-0.038775,-0.052963,-0.034076,-1.109243,-1.373562,0.415106,2.446998,-0.026969,-7.192776
1790547917.1552,-0.018236,-0.034839,-0.038979,-0.024398,-0.040276,-0.038979,-0.843346,-1.305570,0.245126,1.948735,1.088431,-7.270399
1790547917.1691,-0.028672,-0.045723,-0.019331,-0.027390,-0.044089,-0.019331,0.571130,0.606704,0.121284,3.290214,-2.741108,-16.352217
1790547917.1831,-0.029356,-0.046609,-0.022061,-0.028766,-0.045853,-0.022061,0.283378,0.260673,-0.512498,-2.229015,4.360271,-10.452916
1790547917.1971,-0.019122,-0.044978,-0.026491,-0.022015,-0.045240,-0.026491,-0.202279,-0.705784,-0.689763,0.760567,-0.101329,-12.898021
1790547917.2110,-0.018386,-0.049923,-0.043266,-0.019475,-0.048518,-0.043266,0.328302,-0.217699,-0.456648,2.140375,0.456371,-7.619700
1790547917.2250,-0.005184,-0.061219,-0.032233,-0.009471,-0.057409,-0.032233,0.760536,-0.812628,-0.297595,-1.424128,0.344831,-9.521448
1790547917.2389,0.004394,-0.073544,-0.040295,0.000234,-0.068703,-0.040295,0.931730,-0.625650,-0.490644,-0.542584,1.348691,-9.210958
1790547917.2526,0.013990,-0.078925,-0.066316,0.009863,-0.075858,-0.066316,0.609983,-0.685143,-0.700691,0.032335,2.835891,-7.270399
1790547917.2666,0.018780,-0.084773,-0.083438,0.016105,-0.082099,-0.083438,0.420576,-0.345184,-0.854887,0.492271,1.199971,-10.802217
1790547917.2808,0.019831,-0.090943,-0.101872,0.018713,-0.088289,-0.101872,0.477641,-0.112068,-0.733472,0.760567,1.571771,-10.336483
1790547917.2948,0.012856,-0.098131,-0.118400,0.014613,-0.095179,-0.118400,0.528635,0.541140,-0.840317,-0.350944,1.460231,-12.742777
1790547917.3087,0.007673,-0.095274,-0.106921,0.009755,-0.095245,-0.106921,-0.269056,0.623702,-0.671551,-3.800463,0.084571,-11.888930
1790547917.3227,0.011671,-0.087951,-0.081803,0.011097,-0.090140,-0.081803,-0.691578,0.021487,-0.629056,-4.222071,-1.514168,-10.142427
1790547917.3367,0.007696,-0.076801,-0.071503,0.008716,-0.080803,-0.071503,-0.996327,0.525356,-0.467575,-2.573967,-1.551348,-8.085434
1790547917.3505,0.000727,-0.060742,-0.069803,0.003124,-0.066760,-0.069803,-1.202732,0.680766,-0.412939,-1.002520,0.233291,-4.786483
1790547917.3647,-0.010915,-0.049230,-0.072102,-0.006703,-0.054489,-0.072102,-0.942905,1.015870,-0.502785,-1.730752,-0.621849,-8.395923
1790547917.3787,-0.025469,-0.039771,-0.074391,-0.019840,-0.044187,-0.074391,-0.740143,1.218631,-0.495500,-1.462456,0.196111,-9.366203
1790547917.3927,-0.021534,-0.047752,-0.078064,-0.021026,-0.046683,-0.078064,0.454572,-0.184917,-0.297595,-1.654096,-1.142369,-18.525644
1790547917.4067,-0.020644,-0.050481,-0.088164,-0.020758,-0.049341,-0.088164,0.166821,-0.203129,0.259696,2.025391,0.865351,-13.674245
1790547917.4207,-0.023471,-0.046853,-0.095795,-0.022657,-0.047600,-0.095795,-0.177996,0.022701,0.526807,1.757095,2.241011,-10.025993
1790547917.4346,-0.014245,-0.051665,-0.066170,-0.016768,-0.050445,-0.066170,0.219029,-0.301475,0.393252,-3.685479,-0.659029,-5.640329
1790547917.4486,-0.021542,-0.056678,-0.097066,-0.020110,-0.054808,-0.097066,0.374439,0.235176,0.355613,1.527127,0.530731,-4.359560
1790547917.4627,-0.039858,-0.063393,-0.112326,-0.033934,-0.060817,-0.112326,0.527421,1.077791,0.398108,3.060246,1.683311,-10.297672
1790547917.4766,-0.050154,-0.072713,-0.104579,-0.045288,-0.069145,-0.104579,0.736253,0.712334,0.535306,0.108991,1.832031,-9.599070
1790547917.4903,-0.061254,-0.075894,-0.094897,-0.056464,-0.073869,-0.094897,0.407221,0.771827,0.619082,0.262303,2.612811,-7.231588
1790547917.5042,-0.067503,-0.079509,-0.083102,-0.064192,-0.077817,-0.083102,0.369582,0.444009,0.642151,-0.082648,2.464091,-9.055714
1790547917.5189,-0.072986,-0.085524,-0.074380,-0.070348,-0.083212,-0.074380,0.443645,0.340807,0.585086,0.415615,1.497411,-9.366203
1790547917.5331,-0.063862,-0.088812,-0.060564,-0.065808,-0.087132,-0.060564,0.181390,-0.626865,0.712571,-0.580912,0.567911,-12.975644
1790547917.5471,-0.055802,-0.083734,-0.056225,-0.058804,-0.084753,-0.056225,-0.454820,-0.760420,0.693145,2.485326,-0.250049,-10.646972
1790547917.5610,-0.054998,-0.080558,-0.050405,-0.056140,-0.081816,-0.050405,-0.428109,-0.331828,0.745353,3.750150,-1.997508,-10.064805
1790547917.5750,-0.052380,-0.074110,-0.044796,-0.053508,-0.076422,-0.044796,-0.618729,-0.418032,0.631223,2.638638,-1.142369,-8.589979
1790547917.5890,-0.045459,-0.061845,-0.049701,-0.047873,-0.066218,-0.049701,-0.911337,-0.742208,0.402965,3.021918,0.493551,-9.016902
1790547917.6030,-0.039017,-0.046874,-0.052584,-0.041674,-0.052677,-0.052584,-1.097101,-0.782275,0.228128,4.325070,0.530731,-8.784035
1790547917.6170,-0.026592,-0.032300,-0.057592,-0.031117,-0.038413,-0.057592,-1.037608,-1.156231,0.158922,3.060246,1.088431,-8.318301
1790547917.6309,-0.033848,-0.031218,-0.041505,-0.033029,-0.033377,-0.041505,-0.230204,0.351734,-0.013486,4.516709,-1.476988,-15.847672
1790547917.6448,-0.047713,-0.039326,-0.051707,-0.043308,-0.037541,-0.051707,0.702257,1.182207,-0.596274,-1.615768,3.170511,-11.733686
1790547917.6588,-0.029023,-0.048209,-0.043270,-0.033308,-0.045009,-0.043270,0.762964,-1.016604,-0.758969,-3.187215,2.538451,-8.473546
1790547917.6727,-0.032226,-0.050210,-0.057082,-0.032550,-0.048649,-0.057082,0.142538,0.053055,-0.225961,2.561982,0.716631,-8.240679
1790547917.6867,-0.024689,-0.056531,-0.058201,-0.027048,-0.054166,-0.058201,0.480069,-0.449600,-0.262385,-1.040848,1.571771,-11.578441
1790547917.7007,-0.011349,-0.064736,-0.067840,-0.016058,-0.061565,-0.067840,0.673118,-0.852695,-0.495500,-0.849208,1.720491,-8.163056
1790547917.7143,-0.002918,-0.070998,-0.087529,-0.006860,-0.068168,-0.087529,0.545633,-0.619580,-0.709189,0.530599,1.794851,-8.628791
1790547917.7279,0.001702,-0.073948,-0.112959,-0.000866,-0.072214,-0.112959,0.402364,-0.399820,-0.697048,1.067191,2.612811,-7.076343
1790547917.7420,0.006391,-0.078640,-0.130683,0.004213,-0.076712,-0.130683,0.386580,-0.322115,-0.773539,0.377287,1.608951,-9.405014
1790547917.7559,0.011746,-0.084765,-0.148999,0.009487,-0.082349,-0.148999,0.572344,-0.358539,-0.537995,-0.159304,2.873071,-10.220049
1790547917.7703,-0.009272,-0.084733,-0.143551,-0.003645,-0.084018,-0.143551,-0.076008,1.376470,-0.501571,2.715294,-0.212869,-15.770049
1790547917.7843,-0.005547,-0.075158,-0.133769,-0.004976,-0.077816,-0.133769,-0.695220,0.016631,-0.571991,-4.452038,0.976891,-11.151518
1790547917.7983,-0.007739,-0.064643,-0.116751,-0.006910,-0.068595,-0.116751,-0.922265,0.328665,-0.544066,-1.500784,-1.105189,-7.503266
1790547917.8122,-0.010771,-0.054899,-0.092928,-0.009612,-0.059008,-0.092928,-0.914980,0.522928,-0.468789,-2.842263,-1.551348,-6.765853
1790547917.8262,-0.021609,-0.044075,-0.090915,-0.018010,-0.048555,-0.090915,-0.946548,0.910239,-0.546494,-0.849208,-1.179549,-7.813756
1790547917.8402,-0.033016,-0.033116,-0.104035,-0.028514,-0.037747,-0.104035,-0.662438,0.944235,-0.436008,-0.772552,2.278191,-7.580888
1790547917.8541,-0.023565,-0.038653,-0.096921,-0.025050,-0.038381,-0.096921,0.279736,-0.533376,-0.122759,-3.532167,-1.179549,-17.788231
1790547917.8681,-0.019798,-0.038939,-0.091841,-0.021373,-0.038772,-0.091841,0.045406,-0.311188,0.393252,-0.044320,1.906391,-12.509909
1790547917.8823,-0.028124,-0.043536,-0.086996,-0.026099,-0.042107,-0.086996,0.295520,0.461007,0.626367,1.258831,0.790991,-12.238231
1790547917.8961,-0.021689,-0.052387,-0.075761,-0.023012,-0.049303,-0.075761,0.436360,-0.243196,0.341043,-2.420655,-1.328269,-5.795574
1790547917.9100,-0.035072,-0.059995,-0.090194,-0.031454,-0.056787,-0.090194,0.582057,0.765756,0.322831,2.332014,1.274331,-8.706413
1790547917.9241,-0.046849,-0.068920,-0.085238,-0.042231,-0.065280,-0.085238,0.622124,0.788825,0.472171,0.492271,0.828171,-10.996273
1790547917.9381,-0.059412,-0.078978,-0.077353,-0.054258,-0.074869,-0.077353,0.753251,0.866530,0.678575,0.108991,1.571771,-9.987182
1790547917.9519,-0.069913,-0.083493,-0.068843,-0.065216,-0.080906,-0.068843,0.431504,0.777898,0.762351,-0.465928,2.426911,-8.706413
1790547917.9656,-0.074569,-0.088974,-0.057204,-0.071763,-0.086554,-0.057204,0.412077,0.359019,0.738068,-0.389272,1.237151,-8.939280
1790547917.9797,-0.078256,-0.099080,-0.049053,-0.076308,-0.095322,-0.049053,0.770249,0.232748,0.702858,0.377287,1.683311,-8.706413
1790547917.9938,-0.073069,-0.102889,-0.039013,-0.074041,-0.100619,-0.039013,0.238455,-0.375537,0.636080,0.223975,0.753811,-13.169700
1790547918.0079,-0.067010,-0.100237,-0.034779,-0.069119,-0.100351,-0.034779,-0.287268,-0.561301,0.568088,2.485326,-0.696209,-12.121798
1790547918.0224,-0.061822,-0.092601,-0.034404,-0.064011,-0.094926,-0.034404,-0.680650,-0.581941,0.602084,3.136902,-1.402628,-8.667602
1790547918.0365,-0.061354,-0.082124,-0.036138,-0.062151,-0.085965,-0.036138,-0.897982,-0.319687,0.497668,3.596838,-1.253909,-7.658511
1790547918.0505,-0.050578,-0.067555,-0.035229,-0.054050,-0.073078,-0.035229,-1.095887,-0.931614,0.383538,2.025391,0.196111,-8.861658
1790547918.0645,-0.041396,-0.053158,-0.044155,-0.045192,-0.059134,-0.044155,-1.037608,-1.000820,0.259696,4.210086,0.567911,-7.270399
1790547918.0787,-0.026347,-0.038426,-0.053122,-0.032001,-0.044638,-0.053122,-0.972045,-1.261861,0.226914,1.833751,1.423051,-6.571797
1790547918.0928,-0.037471,-0.045408,-0.029088,-0.035830,-0.045177,-0.029088,0.314946,0.609132,-0.001345,4.095102,-1.997508,-12.005364
1790547918.1064,-0.045498,-0.050654,-0.046008,-0.042597,-0.049011,-0.046008,0.494639,0.683195,-0.533139,-0.465928,3.393591,-14.178791
1790547918.1204,-0.035160,-0.048909,-0.052261,-0.037391,-0.048939,-0.052261,-0.124573,-0.657218,-0.688549,-0.005993,1.014071,-12.005364
1790547918.1344,-0.030057,-0.049928,-0.068109,-0.032258,-0.049631,-0.068109,0.126754,-0.435030,-0.378943,1.527127,1.497411,-8.978091
1790547918.1484,-0.024013,-0.061652,-0.061915,-0.026486,-0.058046,-0.061915,0.789676,-0.353683,-0.291525,-0.695896,0.270471,-10.142427
1790547918.1624,-0.009694,-0.072806,-0.070323,-0.014732,-0.068378,-0.070323,0.891664,-0.839339,-0.661838,-2.190688,2.166651,-9.560259
1790547918.1760,0.003159,-0.077753,-0.097658,-0.002208,-0.074940,-0.097658,0.499496,-0.936471,-0.820891,0.530599,2.612811,-8.939280
1790547918.1896,0.006370,-0.082951,-0.117050,0.003797,-0.080548,-0.117050,0.437574,-0.312402,-0.826961,1.680439,1.646131,-9.521448
1790547918.2035,0.013540,-0.089025,-0.132731,0.010617,-0.086482,-0.132731,0.476427,-0.410747,-0.788109,-1.002520,1.311511,-8.473546
1790547918.2175,0.008282,-0.095399,-0.152091,0.008982,-0.092724,-0.152091,0.580843,0.495003,-0.683693,-1.654096,3.021791,-10.724595
1790547918.2313,-0.003147,-0.095473,-0.145240,0.000492,-0.094649,-0.145240,-0.010444,1.070506,-0.568349,-4.796990,0.865351,-13.402567
1790547918.2453,0.002462,-0.086254,-0.127082,0.001871,-0.088772,-0.127082,-0.766855,-0.122996,-0.644840,-4.682006,-0.882109,-11.112707
1790547918.2594,-0.001692,-0.072109,-0.114988,-0.000623,-0.077108,-0.114988,-1.167521,0.505930,-0.519783,-1.922392,-1.068009,-6.494175
1790547918.2737,-0.005898,-0.056314,-0.107812,-0.004316,-0.062552,-0.107812,-1.256154,0.437938,-0.338876,-1.309144,-0.993649,-6.727042
1790547918.2877,-0.014225,-0.041848,-0.105035,-0.011252,-0.048060,-0.105035,-1.138382,0.879886,-0.466361,-3.417183,-0.473129,-8.861658
1790547918.3016,-0.022747,-0.030035,-0.107031,-0.019299,-0.035442,-0.107031,-0.951404,0.913882,-0.511284,-3.493839,-0.473129,-9.016902
1790547918.3156,-0.021658,-0.035289,-0.115074,-0.020950,-0.035335,-0.115074,0.290663,-0.075644,-0.336448,0.952207,-0.324409,-16.468651
1790547918.3296,-0.023723,-0.040749,-0.119168,-0.022891,-0.039125,-0.119168,0.374439,0.051841,0.156494,1.680439,1.162791,-13.519000
1790547918.3435,-0.024781,-0.037614,-0.115215,-0.024214,-0.038067,-0.115215,-0.096648,-0.000367,0.587514,0.147319,2.278191,-6.921098
1790547918.3575,-0.023668,-0.043184,-0.100035,-0.023832,-0.041649,-0.100035,0.297948,0.050627,0.497668,-2.842263,-0.510309,-9.715504
1790547918.3714,-0.034493,-0.048953,-0.108716,-0.031295,-0.046762,-0.108716,0.418148,0.582421,0.395680,2.293686,0.976891,-8.745224
1790547918.3854,-0.045432,-0.054619,-0.108932,-0.041191,-0.052262,-0.108932,0.395079,0.666197,0.429676,1.488799,0.939711,-10.258860
1790547918.3990,-0.055731,-0.061503,-0.106051,-0.051369,-0.058731,-0.106051,0.552918,0.680766,0.503738,0.798895,1.794851,-9.637881
1790547918.4127,-0.069100,-0.067004,-0.102703,-0.063781,-0.064522,-0.102703,0.481283,0.899312,0.610583,0.913879,2.241011,-9.210958
1790547918.4263,-0.077161,-0.071071,-0.097497,-0.073147,-0.069106,-0.097497,0.420576,0.539926,0.657934,0.453943,2.612811,-7.891378
1790547918.4403,-0.079696,-0.077681,-0.089239,-0.077731,-0.075109,-0.089239,0.518922,0.165970,0.638508,0.070663,2.055111,-9.793126
1790547918.4542,-0.075488,-0.080809,-0.082197,-0.076161,-0.079099,-0.082197,0.236027,-0.415604,0.651864,1.987063,1.869211,-12.471098
1790547918.4683,-0.064455,-0.077593,-0.073990,-0.067967,-0.078045,-0.073990,-0.228990,-0.872121,0.634866,1.373815,1.646131,-12.703965
1790547918.4823,-0.058066,-0.072503,-0.063434,-0.061036,-0.074166,-0.063434,-0.499743,-0.690000,0.509809,3.750150,-1.179549,-10.142427
1790547918.4962,-0.055771,-0.064618,-0.055641,-0.057350,-0.067482,-0.055641,-0.697648,-0.431388,0.443031,3.290214,-0.807749,-7.736133
1790547918.5103,-0.044979,-0.051116,-0.059972,-0.048690,-0.056026,-0.059972,-0.938049,-0.997178,0.206274,2.945262,1.051251,-7.619700
1790547918.5248,-0.032660,-0.036569,-0.059004,-0.037469,-0.042406,-0.059004,-1.021824,-1.130734,0.145567,3.443526,0.679451,-7.231588
1790547918.5388,-0.030118,-0.028445,-0.070284,-0.032323,-0.032633,-0.070284,-0.481531,-0.364610,0.087288,2.140375,1.980751,-7.115154
1790547918.5529,-0.044411,-0.034933,-0.078350,-0.040785,-0.034243,-0.078350,0.497067,1.159138,-0.444507,-1.462456,2.129471,-13.402567
1790547918.5668,-0.042044,-0.035614,-0.097076,-0.041666,-0.035202,-0.097076,0.149823,0.006918,-0.936234,-1.194160,3.170511,-13.286133
1790547918.5809,-0.032774,-0.036492,-0.103954,-0.035442,-0.036105,-0.103954,0.049049,-0.538232,-0.811177,-0.389272,0.790991,-10.530539
1790547918.5950,-0.026527,-0.042293,-0.100162,-0.029201,-0.040437,-0.100162,0.336801,-0.387679,-0.433579,-0.044320,-0.064149,-6.959909
1790547918.6089,-0.019440,-0.054021,-0.104932,-0.022369,-0.049946,-0.104932,0.838241,-0.348826,-0.635127,-1.424128,0.865351,-9.327392
1790547918.6229,-0.000475,-0.064493,-0.113229,-0.007043,-0.060129,-0.113229,0.735039,-1.208439,-0.869456,-1.424128,0.902531,-11.073895
1790547918.6365,0.006480,-0.067634,-0.139088,0.002423,-0.065382,-0.139088,0.374439,-0.549160,-1.029723,1.412143,2.835891,-8.163056
1790547918.6502,0.010220,-0.071075,-0.156664,0.007881,-0.069367,-0.156664,0.293091,-0.272335,-0.949590,0.875551,1.794851,-9.793126
1790547918.6642,0.018410,-0.076890,-0.173391,0.015251,-0.074633,-0.173391,0.430290,-0.486024,-0.933806,-0.925864,1.608951,-11.151518
1790547918.6781,0.019340,-0.085527,-0.184115,0.018113,-0.082259,-0.184115,0.634265,-0.076858,-0.615701,0.607255,1.646131,-13.208511
1790547918.6922,0.004227,-0.083125,-0.197093,0.008393,-0.082865,-0.197093,-0.117289,1.081433,-0.460290,0.262303,2.464091,-13.868301
1790547918.7062,0.003220,-0.071189,-0.194370,0.004772,-0.074692,-0.194370,-0.888269,0.354162,-0.582919,-5.333582,0.642271,-12.160609
1790547918.7202,0.001051,-0.061825,-0.176532,0.002167,-0.065685,-0.176532,-0.885840,0.338378,-0.510070,-1.845736,-1.811608,-7.192776
1790547918.7342,-0.003324,-0.051940,-0.158498,-0.001676,-0.056064,-0.158498,-0.972045,0.579993,-0.325521,-2.114032,-1.774428,-4.825294
1790547918.7482,-0.012401,-0.035102,-0.166615,-0.009184,-0.041391,-0.166615,-1.150523,0.758472,-0.398369,-0.695896,1.274331,-6.144874
1790547918.7622,-0.027445,-0.021284,-0.175034,-0.021967,-0.027316,-0.175034,-0.904053,1.210132,-0.269670,-1.155832,2.166651,-7.969000
1790547918.7767,-0.021055,-0.030919,-0.169631,-0.021328,-0.029838,-0.169631,0.527421,-0.330614,0.097001,-4.490366,-2.406488,-21.281238
1790547918.7910,-0.021119,-0.031807,-0.162957,-0.021182,-0.031216,-0.162957,0.062404,-0.062289,0.480670,0.223975,1.683311,-13.829490
1790547918.8050,-0.024581,-0.034421,-0.151441,-0.023561,-0.033460,-0.151441,0.174106,0.117405,0.881337,0.492271,1.051251,-10.336483
1790547918.8190,-0.018664,-0.038420,-0.144423,-0.020133,-0.036932,-0.144423,0.260310,-0.166705,0.417534,-3.838791,0.493551,-6.843476
1790547918.8329,-0.028860,-0.042244,-0.151643,-0.026242,-0.040650,-0.151643,0.249382,0.467077,0.326474,3.328542,0.530731,-8.163056
1790547918.8469,-0.038300,-0.051057,-0.146839,-0.034683,-0.047935,-0.146839,0.602698,0.606704,0.446674,0.722239,0.753811,-11.927742
1790547918.8606,-0.048654,-0.057966,-0.142390,-0.044462,-0.054957,-0.142390,0.588128,0.681981,0.558375,0.683911,2.389731,-9.715504
1790547918.8744,-0.057299,-0.059983,-0.134314,-0.053448,-0.058475,-0.134314,0.204459,0.567851,0.724712,0.262303,2.203831,-9.831937
1790547918.8901,-0.059927,-0.065828,-0.123251,-0.057983,-0.063622,-0.123251,0.378081,0.147758,0.711357,-0.312616,1.274331,-8.784035
1790547918.9050,-0.069313,-0.070887,-0.116533,-0.065914,-0.068708,-0.116533,0.461857,0.596991,0.602084,0.223975,2.761531,-8.007811
1790547918.9198,-0.054469,-0.078272,-0.105195,-0.057903,-0.075403,-0.105195,0.364726,-0.919473,0.630009,-2.382327,-1.291089,-12.587532
1790547918.9341,-0.045469,-0.070103,-0.097517,-0.049199,-0.071693,-0.097517,-0.564093,-0.679073,0.484312,0.530599,1.534591,-12.626343
1790547918.9496,-0.043860,-0.060113,-0.090599,-0.045462,-0.063587,-0.090599,-0.786281,-0.341541,0.478241,3.788478,-1.514168,-9.482637
1790547918.9636,-0.036688,-0.050584,-0.086220,-0.039320,-0.054485,-0.086220,-0.817849,-0.728853,0.277908,2.446998,-0.882109,-7.386832
1790547918.9775,-0.025815,-0.039905,-0.084494,-0.029866,-0.044279,-0.084494,-0.817849,-0.957111,0.205059,1.833751,0.270471,-7.464455
1790547918.9916,-0.016059,-0.028183,-0.089543,-0.020201,-0.033012,-0.089543,-0.748642,-0.881834,0.156494,2.217030,2.017931,-7.774944
1790547919.0057,-0.026142,-0.034756,-0.086637,-0.024359,-0.034233,-0.086637,0.345300,0.630987,-0.218676,2.906934,-1.179549,-14.295224
1790547919.0200,-0.034576,-0.037932,-0.102736,-0.031511,-0.036822,-0.102736,0.310089,0.680766,-0.670337,-0.082648,2.835891,-11.423196
1790547919.0346,-0.028250,-0.035670,-0.113507,-0.029228,-0.036016,-0.113507,-0.165854,-0.320901,-0.916808,-0.120976,0.976891,-11.850119
1790547919.0486,-0.022798,-0.038274,-0.122156,-0.024727,-0.037597,-0.122156,0.200817,-0.422889,-0.462719,0.913879,0.865351,-6.532986
1790547919.0627,-0.014587,-0.049140,-0.123804,-0.017629,-0.045677,-0.123804,0.739896,-0.479953,-0.459076,-1.002520,0.605091,-10.724595
1790547919.0769,-0.005222,-0.061254,-0.137264,-0.008944,-0.056581,-0.137264,0.898948,-0.516378,-0.874313,-1.040848,1.571771,-8.822846
1790547919.0906,0.006666,-0.069371,-0.158469,0.001983,-0.065534,-0.158469,0.687688,-0.784703,-1.108642,-0.120976,2.315371,-8.667602
1790547919.1043,0.009242,-0.071615,-0.174373,0.007064,-0.069791,-0.174373,0.215386,-0.318473,-1.010297,2.408670,1.571771,-7.348021
1790547919.1179,0.018918,-0.078243,-0.190302,0.015362,-0.075707,-0.190302,0.507995,-0.586798,-0.947161,-1.194160,1.497411,-9.754315
1790547919.1320,0.028856,-0.090571,-0.198030,0.024808,-0.086112,-0.198030,0.806674,-0.624436,-0.820891,-1.194160,0.010211,-12.315854
1790547919.1459,0.020889,-0.089997,-0.209740,0.022065,-0.088831,-0.209740,-0.039583,0.606704,-0.639983,-0.504256,1.646131,-14.838581
1790547919.1600,0.018364,-0.080244,-0.211258,0.019474,-0.082820,-0.211258,-0.764426,0.363875,-0.516141,-3.647151,-0.101329,-12.665154
1790547919.1740,0.023066,-0.068131,-0.195100,0.021988,-0.072538,-0.195100,-1.069176,-0.002796,-0.518569,-3.378855,-1.551348,-5.601518
1790547919.1880,0.018553,-0.056616,-0.194478,0.019584,-0.061392,-0.194478,-1.065534,0.446437,-0.394727,-1.270816,-1.997508,-7.115154
1790547919.2020,0.009506,-0.038567,-0.203870,0.012529,-0.045415,-0.203870,-1.173592,0.815536,-0.483359,-1.500784,2.278191,-6.494175
1790547919.2160,-0.002995,-0.024675,-0.210084,0.001663,-0.030897,-0.210084,-0.938049,1.123928,-0.388656,-2.535639,1.832031,-7.697322
1790547919.2299,-0.000898,-0.028008,-0.212368,-0.000130,-0.028875,-0.212368,0.163178,0.015417,-0.207749,-4.298727,0.047391,-17.206063
1790547919.2439,-0.002151,-0.037464,-0.210489,-0.001545,-0.034887,-0.210489,0.572344,0.056697,0.330116,-0.465928,-1.142369,-17.206063
1790547919.2578,-0.007249,-0.036681,-0.202464,-0.005538,-0.036143,-0.202464,-0.033513,0.276457,0.648221,0.185647,1.423051,-10.336483
1790547919.2719,-0.012439,-0.040453,-0.195288,-0.010368,-0.039160,-0.195288,0.229956,0.252174,0.690716,0.453943,0.344831,-8.395923
1790547919.2862,-0.012649,-0.043927,-0.185456,-0.011965,-0.042497,-0.185456,0.246954,0.150186,0.344686,-2.612295,0.939711,-8.628791
1790547919.3002,-0.023939,-0.049000,-0.185125,-0.020347,-0.047049,-0.185125,0.318588,0.709906,0.370183,1.143847,0.382011,-11.578441
1790547919.3142,-0.033840,-0.057462,-0.180979,-0.029792,-0.054338,-0.180979,0.642764,0.626130,0.444245,0.990535,1.794851,-11.384385
1790547919.3279,-0.046733,-0.062316,-0.174492,-0.041651,-0.059923,-0.174492,0.459429,0.850746,0.565660,0.837223,2.464091,-8.745224
1790547919.3416,-0.053616,-0.065892,-0.164544,-0.050027,-0.064101,-0.164544,0.300376,0.482861,0.664005,-0.197632,1.608951,-8.978091
1790547919.3556,-0.055666,-0.071860,-0.154279,-0.053974,-0.069532,-0.154279,0.472785,0.116190,0.645793,-0.005993,1.794851,-9.172147
1790547919.3695,-0.060025,-0.084698,-0.144548,-0.058210,-0.080148,-0.144548,1.009435,0.198752,0.695573,1.450471,2.501271,-9.676693
1790547919.3835,-0.051892,-0.086250,-0.134685,-0.053787,-0.084419,-0.134685,0.136467,-0.664503,0.639722,1.373815,2.055111,-13.868301
1790547919.3976,-0.046301,-0.080019,-0.128813,-0.048547,-0.081339,-0.128813,-0.482745,-0.591654,0.486740,3.673494,0.382011,-12.393476
1790547919.4116,-0.044995,-0.072291,-0.125319,-0.046061,-0.075005,-0.125319,-0.694006,-0.343969,0.438175,3.060246,-1.142369,-7.503266
1790547919.4256,-0.035006,-0.060251,-0.124014,-0.038322,-0.064677,-0.124014,-0.879770,-0.891548,0.201417,1.910407,0.456371,-6.804665
1790547919.4396,-0.026284,-0.048974,-0.123494,-0.029895,-0.053685,-0.123494,-0.838489,-0.853909,0.154066,2.906934,0.344831,-7.697322
1790547919.4536,-0.015329,-0.038174,-0.123013,-0.019699,-0.042827,-0.123013,-0.782638,-0.941327,0.065433,2.753622,1.014071,-11.229140
1790547919.4677,-0.023343,-0.041733,-0.123500,-0.022250,-0.042062,-0.123500,0.161964,0.537498,-0.359517,2.217030,-0.621849,-17.594175
1790547919.4817,-0.031695,-0.046670,-0.138621,-0.028862,-0.045287,-0.138621,0.436360,0.831320,-0.756541,-2.650623,2.538451,-10.841028
1790547919.4957,-0.014539,-0.049886,-0.148882,-0.018836,-0.048506,-0.148882,0.278522,-1.012962,-0.767468,-1.462456,1.088431,-6.067252
1790547919.5097,-0.010045,-0.054210,-0.157897,-0.012682,-0.052499,-0.157897,0.356227,-0.416818,-0.383799,1.373815,1.162791,-6.494175
1790547919.5239,-0.002245,-0.067510,-0.160825,-0.005376,-0.063007,-0.160825,0.920803,-0.473883,-0.335234,-0.810880,0.530731,-8.434735
1790547919.5384,0.012331,-0.075723,-0.180603,0.007019,-0.071908,-0.180603,0.707114,-0.936471,-0.795394,-0.389272,2.835891,-8.007811
1790547919.5521,0.021852,-0.083196,-0.196236,0.017402,-0.079810,-0.196236,0.600269,-0.714283,-0.954446,1.028863,2.166651,-10.181238
1790547919.5658,0.021458,-0.086452,-0.207427,0.020241,-0.084459,-0.207427,0.280950,-0.063503,-0.822105,2.025391,1.943571,-10.103616
1790547919.5799,0.034058,-0.094419,-0.217340,0.029913,-0.091431,-0.217340,0.509209,-0.774990,-0.768682,-1.385800,0.158931,-7.891378
1790547919.5939,0.032201,-0.109051,-0.217090,0.031515,-0.103765,-0.217090,0.915946,0.095550,-0.636341,0.798895,-1.402628,-13.092077
1790547919.6079,0.020060,-0.104860,-0.226374,0.023496,-0.104532,-0.226374,-0.305481,0.906597,-0.506428,-0.964192,1.199971,-15.537182
1790547919.6219,0.021596,-0.096698,-0.228410,0.022166,-0.099048,-0.228410,-0.703719,0.071267,-0.547709,-2.497311,-0.919289,-8.240679
1790547919.6357,0.018516,-0.090080,-0.228436,0.019611,-0.092770,-0.228436,-0.679436,0.444009,-0.621771,-1.884064,-1.291089,-5.213406
1790547919.6496,0.009344,-0.082433,-0.227654,0.012424,-0.085534,-0.227654,-0.831204,0.739045,-0.449363,-0.465928,-1.700068,-4.359560
1790547919.6636,0.000522,-0.074762,-0.228283,0.004092,-0.077994,-0.228283,-0.667295,0.792468,-0.385014,-2.267343,-0.993649,-9.560259
1790547919.6775,-0.011788,-0.063788,-0.230765,-0.007024,-0.068050,-0.230765,-0.798422,1.062007,-0.353446,-2.229015,0.753811,-9.055714
1790547919.6915,-0.009514,-0.055525,-0.232219,-0.008767,-0.059282,-0.232219,-0.543452,0.083409,-0.177395,-3.608823,1.534591,-8.551168
1790547919.7055,-0.003383,-0.059883,-0.228527,-0.004998,-0.059703,-0.228527,0.288235,-0.500594,0.337401,0.492271,0.716631,-15.459560
1790547919.7195,-0.005472,-0.063615,-0.230991,-0.005330,-0.062442,-0.230991,0.238455,-0.033149,0.451530,2.408670,0.307651,-10.957462
1790547919.7335,-0.009062,-0.066642,-0.232436,-0.007942,-0.065382,-0.232436,0.220243,0.048198,0.553518,2.063719,0.605091,-7.969000
1790547919.7475,-0.017178,-0.073763,-0.233077,-0.014408,-0.071249,-0.233077,0.568702,0.505930,0.256053,0.607255,1.274331,-7.153965
1790547919.7615,-0.029862,-0.082113,-0.232499,-0.025225,-0.078854,-0.232499,0.609983,0.827678,0.286407,1.182175,1.014071,-10.957462
1790547919.7757,-0.043317,-0.091438,-0.232358,-0.037890,-0.087663,-0.232358,0.718041,0.849532,0.395680,1.412143,1.571771,-9.249770
1790547919.7897,-0.054632,-0.099040,-0.230436,-0.049609,-0.095627,-0.230436,0.691330,0.819179,0.485526,-0.235960,2.687171,-8.124245
1790547919.8035,-0.064148,-0.106318,-0.225338,-0.059786,-0.103111,-0.225338,0.582057,0.662554,0.563231,0.453943,1.534591,-9.249770
1790547919.8176,-0.058571,-0.115850,-0.212122,-0.058936,-0.112028,-0.212122,0.552918,-0.374323,0.627581,-0.504256,-1.625708,-13.519000
1790547919.8315,-0.045182,-0.116196,-0.204630,-0.049308,-0.114946,-0.204630,0.028408,-0.987465,0.552304,0.415615,0.976891,-13.635434
1790547919.8455,-0.041197,-0.110911,-0.197406,-0.043630,-0.112122,-0.197406,-0.439036,-0.422889,0.462458,2.791950,-0.547489,-12.509909
1790547919.8596,-0.036171,-0.104187,-0.184663,-0.038409,-0.106567,-0.184663,-0.646655,-0.606224,0.504953,3.558510,-1.997508,-8.201867
1790547919.8736,-0.031278,-0.091965,-0.181516,-0.033417,-0.096346,-0.181516,-0.929550,-0.584370,0.430890,2.676966,-0.287229,-6.921098
1790547919.8878,-0.027405,-0.075918,-0.178095,-0.029209,-0.082046,-0.178095,-1.228229,-0.544303,0.222057,3.213558,-0.659029,-6.727042
1790547919.9018,-0.014820,-0.060602,-0.178570,-0.019137,-0.067035,-0.178570,-1.132311,-1.054243,0.025366,2.332014,0.158931,-9.210958
1790547919.9158,-0.002418,-0.047047,-0.181568,-0.007434,-0.053043,-0.181568,-0.998756,-1.226651,0.185633,4.631693,0.233291,-8.007811
1790547919.9298,-0.004300,-0.044030,-0.197352,-0.005240,-0.046734,-0.197352,-0.133072,-0.074430,0.067861,3.366870,2.278191,-10.103616
1790547919.9438,-0.012410,-0.051140,-0.214196,-0.010259,-0.049818,-0.214196,0.585700,0.669839,-0.466361,-0.964192,2.947431,-12.975644
1790547919.9579,-0.006215,-0.052701,-0.224200,-0.007428,-0.051836,-0.224200,0.134039,-0.268693,-0.773539,-2.152360,1.869211,-12.354665
1790547919.9720,0.000985,-0.053958,-0.238706,-0.001539,-0.053321,-0.238706,0.148609,-0.450814,-0.516141,-0.312616,1.460231,-7.270399
1790547919.9860,0.005292,-0.063948,-0.237793,0.003242,-0.060760,-0.237793,0.680403,-0.279620,-0.242959,-0.312616,0.419191,-9.016902
1790547920.0001,0.019486,-0.072632,-0.244812,0.014613,-0.069071,-0.244812,0.660977,-0.841768,-0.527068,-2.114032,1.460231,-8.201867
1790547920.0136,0.031035,-0.079457,-0.261751,0.026108,-0.076341,-0.261751,0.571130,-0.804129,-0.656981,-0.580912,2.055111,-9.754315
1790547920.0274,0.035608,-0.083969,-0.281919,0.032758,-0.081681,-0.281919,0.429075,-0.358539,-0.749256,0.722239,2.724351,-9.249770
1790547920.0421,0.043362,-0.087758,-0.301769,0.040181,-0.085934,-0.301769,0.288235,-0.487238,-0.854887,-0.350944,1.720491,-8.978091
1790547920.0562,0.050381,-0.092573,-0.322371,0.047321,-0.090582,-0.322371,0.460643,-0.456885,-0.738329,-0.695896,3.542311,-10.646972
1790547920.0702,0.035164,-0.099788,-0.308279,0.038811,-0.097026,-0.308279,0.382938,0.979445,-0.609630,2.408670,-0.919289,-14.334035
1790547920.0843,0.029681,-0.090524,-0.316495,0.032420,-0.092475,-0.316495,-0.669723,0.554496,-0.523426,-3.647151,1.199971,-13.092077
1790547920.0983,0.026784,-0.078047,-0.307578,0.028475,-0.082376,-0.307578,-1.033966,0.344449,-0.524640,-1.845736,-0.882109,-8.434735
1790547920.1122,0.022598,-0.069124,-0.280860,0.024361,-0.073099,-0.280860,-0.861558,0.559352,-0.483359,-3.110559,-1.737248,-7.076343
1790547920.1263,0.009061,-0.057220,-0.292002,0.013651,-0.061984,-0.292002,-0.828776,1.055936,-0.479717,-0.619240,0.865351,-5.640329
1790547920.1402,-0.000483,-0.048269,-0.300501,0.003757,-0.052383,-0.300501,-0.621158,0.796110,-0.361945,-1.424128,1.497411,-9.948371
1790547920.1543,0.007902,-0.053123,-0.293424,0.006659,-0.052901,-0.293424,0.273665,-0.545517,0.025366,-2.382327,-0.398769,-19.534735
1790547920.1683,0.011884,-0.052814,-0.285610,0.010316,-0.052840,-0.285610,-0.010444,-0.447172,0.480670,2.217030,1.311511,-14.178791
1790547920.1823,0.008228,-0.054916,-0.270594,0.008854,-0.054293,-0.270594,0.124326,0.113762,0.802417,0.875551,0.196111,-10.220049
1790547920.1964,0.010922,-0.064115,-0.252508,0.010302,-0.061169,-0.252508,0.552918,0.019059,0.410250,-3.263871,-0.770569,-6.727042
1790547920.2103,0.000570,-0.072294,-0.246642,0.003490,-0.068956,-0.246642,0.572344,0.690480,0.404179,0.147319,0.419191,-10.025993
1790547920.2243,-0.017337,-0.080510,-0.245063,-0.011089,-0.077044,-0.245063,0.640336,1.204062,0.507381,0.683911,1.571771,-10.530539
1790547920.2385,-0.031836,-0.088556,-0.242817,-0.025612,-0.085103,-0.242817,0.658548,0.944235,0.747781,0.607255,2.092291,-9.521448
1790547920.2521,-0.041741,-0.093990,-0.239919,-0.036902,-0.091324,-0.239919,0.503138,0.692908,0.838842,0.032335,2.464091,-10.103616
1790547920.2657,-0.047053,-0.099495,-0.231943,-0.044008,-0.097044,-0.231943,0.420576,0.380873,0.781777,-0.235960,0.976891,-8.939280
1790547920.2799,-0.039850,-0.105672,-0.222097,-0.041097,-0.103084,-0.222097,0.436360,-0.483596,0.759922,-1.040848,0.939711,-12.277042
1790547920.2943,-0.033117,-0.105665,-0.208615,-0.035511,-0.104891,-0.208615,-0.073579,-0.554016,0.589943,1.297159,-0.659029,-11.190329
1790547920.3084,-0.026915,-0.104109,-0.188891,-0.029494,-0.104344,-0.188891,-0.258129,-0.622008,0.632438,2.906934,-2.034688,-10.569350
1790547920.3224,-0.025019,-0.097439,-0.174003,-0.026362,-0.099510,-0.174003,-0.596875,-0.360967,0.687074,2.906934,-1.253909,-8.551168
1790547920.3364,-0.021338,-0.085652,-0.168797,-0.022845,-0.089810,-0.168797,-0.891911,-0.477525,0.492811,2.600310,-0.138509,-8.201867
1790547920.3504,-0.011833,-0.070186,-0.164505,-0.015136,-0.076073,-0.164505,-1.154166,-0.893976,0.343472,3.060246,-0.101329,-9.676693
1790547920.3643,-0.005233,-0.053018,-0.171500,-0.008204,-0.059935,-0.171500,-1.245227,-0.808986,0.214773,4.325070,0.419191,-7.619700
1790547920.3784,0.009246,-0.036171,-0.181014,0.004011,-0.043300,-0.181014,-1.106814,-1.235150,0.279122,1.872079,1.646131,-7.076343
1790547920.3923,-0.000223,-0.041378,-0.154913,0.001047,-0.041955,-0.154913,0.189889,0.520500,0.024152,3.673494,-2.183408,-13.945924
1790547920.4064,-0.013883,-0.050126,-0.164912,-0.009404,-0.047675,-0.164912,0.635480,1.102074,-0.545280,-1.654096,1.906391,-14.062357
1790547920.4205,0.003613,-0.052866,-0.182323,-0.000292,-0.051308,-0.182323,0.234813,-1.227865,-0.733472,0.568927,1.646131,-9.909560
1790547920.4344,0.004526,-0.054398,-0.204946,0.003080,-0.053471,-0.204946,0.192318,-0.218913,-0.374086,2.523654,1.869211,-8.395923
1790547920.4483,0.010513,-0.066878,-0.200991,0.008283,-0.062856,-0.200991,0.841884,-0.403462,-0.320664,-0.274288,0.158931,-9.521448
1790547920.4623,0.029418,-0.080745,-0.221175,0.023078,-0.075378,-0.221175,1.062858,-1.187798,-0.682478,-2.075704,1.943571,-8.706413
1790547920.4760,0.041420,-0.089311,-0.250967,0.035917,-0.085131,-0.250967,0.738682,-0.948612,-0.805107,1.028863,2.092291,-7.464455
1790547920.4896,0.046408,-0.093122,-0.280737,0.043261,-0.090725,-0.280737,0.397508,-0.421675,-0.851244,1.028863,2.761531,-8.822846
1790547920.5035,0.052732,-0.099309,-0.300337,0.049891,-0.096734,-0.300337,0.446073,-0.419246,-0.854887,-0.542584,1.348691,-10.103616
1790547920.5175,0.040365,-0.105526,-0.322298,0.043223,-0.102888,-0.322298,0.494639,0.873815,-0.720117,0.223975,2.389731,-12.238231
1790547920.5317,0.025378,-0.106252,-0.319627,0.030731,-0.105243,-0.319627,-0.020157,0.996443,-0.562278,1.143847,0.010211,-12.082986
1790547920.5462,0.027325,-0.096717,-0.298434,0.028347,-0.099275,-0.298434,-0.819063,0.076124,-0.622985,-3.877119,-1.365448,-10.142427
1790547920.5603,0.022880,-0.084154,-0.277694,0.024520,-0.088690,-0.277694,-1.077675,0.471934,-0.474860,-1.807408,-1.179549,-6.882287
1790547920.5743,0.018053,-0.065739,-0.296233,0.019993,-0.072624,-0.296233,-1.223372,0.647985,-0.406868,-2.842263,1.460231,-5.096972
1790547920.5883,0.007547,-0.058324,-0.282695,0.011281,-0.062614,-0.282695,-0.698863,0.928451,-0.455434,-2.229015,-1.253909,-8.473546
1790547920.6023,-0.006925,-0.051179,-0.290404,-0.001463,-0.054609,-0.290404,-0.527669,1.167637,-0.477288,-1.309144,0.790991,-8.706413
1790547920.6163,0.002253,-0.056498,-0.280962,0.001138,-0.055932,-0.280962,0.251811,-0.521234,-0.313379,-3.148887,-1.588528,-15.770049
1790547920.6303,0.003127,-0.054855,-0.282179,0.002530,-0.055178,-0.282179,-0.052939,-0.074430,0.309476,-0.580912,2.055111,-10.918651
1790547920.6442,-0.000566,-0.053464,-0.273676,0.000363,-0.053978,-0.273676,-0.113646,0.163542,0.481884,0.798895,0.679451,-11.190329
1790547920.6581,0.005896,-0.057692,-0.261379,0.004236,-0.056578,-0.261379,0.239669,-0.280834,0.362898,-2.382327,-0.175689,-5.717951
1790547920.6720,-0.002943,-0.063559,-0.264593,-0.000789,-0.061465,-0.264593,0.489782,0.512001,0.319189,0.683911,0.902531,-4.786483
1790547920.6861,-0.018179,-0.070382,-0.263431,-0.012962,-0.067707,-0.263431,0.516494,0.987944,0.388395,1.105519,1.274331,-10.103616
1790547920.6996,-0.030825,-0.080131,-0.263982,-0.025466,-0.076404,-0.263982,0.796960,0.901740,0.555947,-0.005993,1.683311,-8.667602
1790547920.7133,-0.043337,-0.085736,-0.265274,-0.037976,-0.082936,-0.265274,0.511637,0.843461,0.679789,0.645583,2.278191,-9.327392
1790547920.7271,-0.048056,-0.089698,-0.266157,-0.045032,-0.087669,-0.266157,0.374439,0.333522,0.600870,-0.159304,2.203831,-9.870749
1790547920.7412,-0.044004,-0.095217,-0.258565,-0.044312,-0.092953,-0.258565,0.420576,-0.397392,0.683431,1.833751,1.720491,-13.014455
1790547920.7552,-0.037990,-0.096534,-0.245752,-0.039886,-0.095459,-0.245752,0.036907,-0.486024,0.530450,0.760567,-0.175689,-12.005364
1790547920.7691,-0.033603,-0.094656,-0.220525,-0.035488,-0.094897,-0.220525,-0.271485,-0.492095,0.581444,2.638638,-1.439808,-10.336483
1790547920.7832,-0.030691,-0.088730,-0.197234,-0.032131,-0.090580,-0.197234,-0.547095,-0.465384,0.632438,3.328542,-1.105189,-8.046623
1790547920.7978,-0.028443,-0.079724,-0.178097,-0.029549,-0.082981,-0.178097,-0.771711,-0.409533,0.461243,3.136902,-1.365448,-7.231588
1790547920.8118,-0.020446,-0.066358,-0.172320,-0.023177,-0.071345,-0.172320,-0.996327,-0.755564,0.366540,2.255358,0.084571,-8.434735
1790547920.8258,-0.012846,-0.051996,-0.176423,-0.015945,-0.057801,-0.176423,-1.057035,-0.800487,0.151637,3.635166,0.307651,-8.745224
1790547920.8398,-0.001686,-0.036959,-0.184773,-0.005964,-0.043212,-0.184773,-1.040037,-1.045744,0.179563,2.983590,1.051251,-7.774944
1790547920.8537,-0.016358,-0.041421,-0.178416,-0.013240,-0.041958,-0.178416,0.238455,0.975803,-0.144613,2.906934,-0.026969,-17.400119
1790547920.8678,-0.027708,-0.050044,-0.198523,-0.023368,-0.047618,-0.198523,0.677975,0.930880,-0.694620,-1.155832,3.096151,-16.391028
1790547920.8818,-0.007564,-0.056717,-0.212799,-0.012305,-0.053987,-0.212799,0.535920,-1.258218,-0.624200,-2.842263,2.278191,-12.393476
1790547920.8958,-0.007977,-0.064391,-0.205228,-0.009276,-0.061270,-0.205228,0.455787,-0.203129,-0.238102,3.980118,-0.435949,-8.784035
1790547920.9098,0.003785,-0.078329,-0.200877,-0.000133,-0.073211,-0.200877,0.936587,-0.696071,-0.461505,-1.999048,0.047391,-9.793126
1790547920.9237,0.024385,-0.088192,-0.225553,0.017030,-0.083697,-0.225553,0.812744,-1.338352,-0.615701,-2.114032,2.166651,-9.172147
1790547920.9374,0.033437,-0.096200,-0.254657,0.028515,-0.092449,-0.254657,0.685259,-0.704570,-0.721331,0.683911,1.906391,-8.046623
1790547920.9512,0.036634,-0.102157,-0.280388,0.034198,-0.099245,-0.280388,0.515279,-0.328186,-0.734686,1.258831,1.646131,-7.231588
1790547920.9657,0.045027,-0.113982,-0.296599,0.041778,-0.109561,-0.296599,0.834599,-0.552802,-0.579276,-0.504256,0.865351,-7.697322
1790547920.9809,0.021365,-0.115175,-0.312571,0.027489,-0.113491,-0.312571,0.083045,1.595015,-0.587775,-1.079176,1.794851,-19.457112
1790547920.9955,0.022716,-0.102454,-0.310765,0.024148,-0.105765,-0.310765,-0.900410,0.202394,-0.629056,-7.058341,0.790991,-12.238231
1790547921.0099,0.025823,-0.092571,-0.269738,0.025320,-0.096529,-0.269738,-0.955047,0.042128,-0.483359,-3.263871,-2.294948,-6.455364
1790547921.0246,0.015962,-0.077371,-0.260277,0.018770,-0.083118,-0.260277,-1.172378,0.785183,-0.323092,-1.040848,-0.659029,-5.368651
1790547921.0394,0.005358,-0.060720,-0.278759,0.009381,-0.067440,-0.278759,-1.067962,0.884742,-0.495500,-2.305671,1.869211,-8.978091
1790547921.0542,-0.010653,-0.053353,-0.284381,-0.004643,-0.057579,-0.284381,-0.541024,1.229559,-0.478503,-1.577440,0.419191,-9.172147
1790547921.0683,-0.012218,-0.052724,-0.290137,-0.009946,-0.054181,-0.290137,-0.079650,0.349306,-0.439650,-3.378855,0.419191,-9.715504
1790547921.0827,-0.009501,-0.054330,-0.294073,-0.009635,-0.054285,-0.294073,0.168035,-0.116925,0.089716,-1.845736,2.315371,-12.238231
1790547921.0970,-0.015764,-0.051122,-0.290290,-0.013925,-0.052071,-0.290290,-0.194994,0.359019,0.468528,0.645583,1.646131,-11.462007
1790547921.1111,-0.019118,-0.054850,-0.278020,-0.017560,-0.054016,-0.278020,0.212958,0.131974,0.586300,0.990535,0.158931,-12.238231
1790547921.1254,-0.031351,-0.062256,-0.288849,-0.027214,-0.059784,-0.288849,0.623338,0.628558,0.253625,2.332014,1.608951,-5.912007
1790547921.1395,-0.045163,-0.066023,-0.291760,-0.039778,-0.064151,-0.291760,0.327087,0.842247,0.282765,2.217030,1.832031,-9.754315
1790547921.1536,-0.057741,-0.075183,-0.289648,-0.052352,-0.071874,-0.289648,0.669476,0.805823,0.395680,1.335487,1.199971,-9.793126
1790547921.1673,-0.068160,-0.082658,-0.294460,-0.063417,-0.079423,-0.294460,0.635480,0.712334,0.548662,0.530599,1.980751,-8.163056
1790547921.1811,-0.075337,-0.088156,-0.297366,-0.071761,-0.085536,-0.297366,0.475213,0.516857,0.637294,-0.005993,2.352551,-10.297672
1790547921.1954,-0.078272,-0.092840,-0.295615,-0.076319,-0.090649,-0.295615,0.344085,0.230320,0.541377,-0.504256,1.832031,-13.945924
1790547921.2094,-0.071624,-0.098269,-0.282863,-0.073033,-0.095983,-0.282863,0.324659,-0.534590,0.640937,1.182175,0.196111,-13.053266
1790547921.2234,-0.062204,-0.095865,-0.273587,-0.065452,-0.095900,-0.273587,-0.208349,-0.713069,0.557161,0.607255,0.493551,-11.267951
1790547921.2375,-0.056438,-0.092589,-0.241932,-0.059142,-0.093583,-0.241932,-0.405040,-0.583155,0.630009,2.715294,-1.662888,-10.142427
1790547921.2514,-0.052553,-0.086471,-0.216651,-0.054530,-0.088604,-0.216651,-0.589590,-0.470240,0.559589,2.600310,-1.179549,-8.589979
1790547921.2654,-0.046931,-0.075254,-0.200420,-0.049210,-0.079259,-0.200420,-0.935620,-0.696071,0.328902,3.941790,-0.993649,-7.386832
1790547921.2797,-0.037245,-0.059897,-0.196959,-0.040835,-0.065705,-0.196959,-1.108028,-0.868479,0.184419,2.791950,0.307651,-8.551168
1790547921.2943,-0.024425,-0.044814,-0.196804,-0.029348,-0.051082,-0.196804,-1.063105,-1.104022,0.099429,3.136902,0.493551,-8.240679
1790547921.3083,-0.030844,-0.041858,-0.207527,-0.030395,-0.044625,-0.207527,-0.153713,0.300740,0.094573,2.906934,2.017931,-10.918651
1790547921.3223,-0.043978,-0.046689,-0.225747,-0.039903,-0.046070,-0.225747,0.418148,1.074148,-0.578062,-1.040848,2.241011,-11.888930
1790547921.3363,-0.032608,-0.049385,-0.255968,-0.034797,-0.048391,-0.255968,0.344085,-0.620794,-0.846388,-1.385800,2.389731,-7.930189
1790547921.3503,-0.035346,-0.047271,-0.276778,-0.035181,-0.047607,-0.276778,0.083045,-0.065931,-0.459076,3.136902,2.538451,-4.398371
1790547921.3643,-0.027545,-0.056314,-0.280939,-0.029836,-0.053702,-0.280939,0.647621,-0.386464,-0.313379,-2.190688,0.865351,-9.482637
1790547921.3783,-0.012191,-0.066766,-0.297109,-0.017484,-0.062847,-0.297109,0.806674,-0.970467,-0.593846,-1.347472,1.608951,-9.793126
1790547921.3924,-0.000741,-0.074732,-0.324631,-0.005764,-0.071166,-0.324631,0.703471,-0.754350,-0.783252,-0.044320,2.315371,-7.736133
1790547921.4062,0.004346,-0.079077,-0.347661,0.001313,-0.076704,-0.347661,0.455787,-0.364610,-0.750470,0.530599,2.389731,-7.658511
1790547921.4202,0.013552,-0.082612,-0.370018,0.009880,-0.080840,-0.370018,0.314946,-0.566157,-0.824533,-0.657568,1.646131,-8.512357
1790547921.4343,0.020913,-0.089806,-0.385070,0.017603,-0.087116,-0.385070,0.538348,-0.482382,-0.695834,-0.312616,1.497411,-10.802217
1790547921.4483,0.011937,-0.092931,-0.395220,0.013637,-0.091187,-0.395220,0.256667,0.641914,-0.426294,0.223975,2.129471,-15.731238
1790547921.4624,-0.004498,-0.084053,-0.405075,0.000942,-0.086193,-0.405075,-0.612659,1.250199,-0.201678,-1.692424,1.497411,-14.722147
1790547921.4764,-0.000581,-0.072662,-0.377726,-0.000124,-0.076721,-0.377726,-0.896768,0.053055,-0.319450,-5.640206,-0.212869,-8.551168
1790547921.4905,-0.003766,-0.064541,-0.356829,-0.002673,-0.068195,-0.356829,-0.758356,0.435510,-0.218676,-2.918919,-1.551348,-7.852567
1790547921.5044,-0.007167,-0.051918,-0.354546,-0.005819,-0.056801,-0.354546,-0.998756,0.475576,-0.300024,-2.190688,-0.287229,-5.950818
1790547921.5183,-0.012653,-0.044443,-0.343651,-0.010603,-0.048151,-0.343651,-0.692792,0.532641,-0.092405,-1.807408,-1.142369,-8.007811
1790547921.5324,-0.019579,-0.030829,-0.350457,-0.016886,-0.036026,-0.350457,-0.972045,0.737831,-0.262385,-3.033903,0.865351,-8.046623
1790547921.5469,-0.013744,-0.032534,-0.336770,-0.014687,-0.033581,-0.336770,-0.061438,-0.258980,0.031437,-4.567022,-3.224448,-16.468651
1790547921.5614,-0.018951,-0.037757,-0.321930,-0.017672,-0.036504,-0.321930,0.305233,0.165970,0.547448,3.021918,0.233291,-13.286133
1790547921.5754,-0.025053,-0.043216,-0.315445,-0.022839,-0.041202,-0.315445,0.381724,0.382087,0.475813,0.108991,1.014071,-10.375294
1790547921.5894,-0.032789,-0.049463,-0.320058,-0.029804,-0.046985,-0.320058,0.545633,0.595776,0.202631,-0.619240,1.869211,-6.882287
1790547921.6033,-0.045463,-0.060435,-0.316141,-0.040765,-0.056400,-0.316141,0.807888,0.800967,0.253625,1.757095,1.199971,-9.676693
1790547921.6173,-0.059220,-0.071521,-0.316042,-0.053684,-0.066985,-0.316042,0.866167,0.913882,0.351971,1.105519,2.166651,-9.870749
1790547921.6310,-0.073607,-0.081954,-0.313025,-0.067630,-0.077463,-0.313025,0.830956,0.973375,0.591157,1.258831,2.315371,-10.569350
1790547921.6445,-0.083213,-0.090398,-0.310233,-0.078538,-0.086518,-0.310233,0.704686,0.663768,0.739282,0.645583,2.501271,-9.715504
1790547921.6585,-0.084603,-0.102190,-0.308554,-0.082783,-0.097488,-0.308554,0.945086,0.089479,0.721070,0.223975,3.021791,-10.181238
1790547921.6726,-0.072476,-0.109327,-0.295770,-0.075568,-0.105776,-0.295770,0.395079,-0.810200,0.772064,-1.155832,-0.770569,-12.121798
1790547921.6865,-0.069044,-0.106229,-0.272197,-0.071001,-0.106093,-0.272197,-0.328549,-0.431388,0.645793,3.711822,-0.807749,-11.888930
1790547921.7006,-0.065462,-0.101233,-0.240968,-0.067124,-0.102691,-0.240968,-0.541024,-0.473883,0.730783,3.980118,-2.146228,-10.841028
1790547921.7146,-0.062824,-0.090931,-0.221729,-0.064114,-0.094459,-0.221729,-0.850630,-0.387679,0.543805,3.443526,-0.919289,-10.220049
1790547921.7286,-0.059399,-0.073794,-0.212572,-0.060813,-0.079993,-0.212572,-1.268295,-0.467812,0.387181,3.021918,0.382011,-7.969000
1790547921.7424,-0.058074,-0.053810,-0.203391,-0.058896,-0.061665,-0.203391,-1.513552,-0.393749,0.239055,4.210086,-0.064149,-7.619700
1790547921.7569,-0.040412,-0.038607,-0.190435,-0.045957,-0.045524,-0.190435,-1.140810,-1.294643,0.094573,1.220503,-0.212869,-9.793126
1790547921.7714,-0.053186,-0.040144,-0.186815,-0.051017,-0.041758,-0.186815,0.056334,0.691694,0.172278,5.513237,0.456371,-15.537182
1790547921.7857,-0.054223,-0.050243,-0.186644,-0.053261,-0.047697,-0.186644,0.667047,0.179326,-0.358302,-1.194160,0.307651,-15.149070
1790547921.7998,-0.058373,-0.047448,-0.231601,-0.056839,-0.047523,-0.231601,0.069689,0.230320,-0.584133,2.600310,4.583351,-9.055714
1790547921.8139,-0.054624,-0.048841,-0.233560,-0.055289,-0.048445,-0.233560,0.080617,-0.221341,-0.446935,0.415615,0.605091,-11.267951
1790547921.8279,-0.050316,-0.056224,-0.235011,-0.051808,-0.053891,-0.235011,0.490997,-0.210414,-0.520997,-0.465928,0.158931,-9.831937
1790547921.8419,-0.035508,-0.065931,-0.247797,-0.040398,-0.062319,-0.247797,0.752037,-0.943756,-0.534353,-0.849208,1.311511,-8.473546
1790547921.8555,-0.030233,-0.071781,-0.271220,-0.033283,-0.068942,-0.271220,0.572344,-0.375537,-0.739543,0.798895,2.352551,-8.357112
1790547921.8691,-0.019720,-0.075152,-0.291613,-0.023789,-0.073289,-0.291613,0.361083,-0.740994,-0.771111,0.377287,2.017931,-8.473546
1790547921.8832,-0.013509,-0.080458,-0.303863,-0.016593,-0.078308,-0.303863,0.395079,-0.399820,-0.779610,0.185647,0.976891,-9.560259
1790547921.8972,-0.003199,-0.088999,-0.311982,-0.007217,-0.085792,-0.311982,0.612411,-0.716711,-0.612058,0.147319,0.716631,-9.405014
1790547921.9110,-0.013398,-0.092654,-0.324699,-0.011543,-0.090595,-0.324699,0.304019,0.749973,-0.603559,0.760567,2.389731,-18.603266
1790547921.9249,-0.019345,-0.082844,-0.330501,-0.017005,-0.085170,-0.330501,-0.741358,0.734189,-0.397155,-5.410238,0.047391,-10.530539
1790547921.9388,-0.013285,-0.070487,-0.323643,-0.014401,-0.074891,-0.323643,-1.040037,-0.156992,-0.473646,-3.685479,-1.514168,-8.124245
1790547921.9529,-0.017982,-0.060711,-0.309397,-0.016908,-0.064965,-0.309397,-0.938049,0.445223,-0.412939,-0.925864,-2.146228,-6.882287
1790547921.9669,-0.028552,-0.047654,-0.324455,-0.025059,-0.052848,-0.324455,-0.853059,0.899312,-0.416581,-1.194160,1.794851,-7.697322
1790547921.9812,-0.041235,-0.037626,-0.325579,-0.036382,-0.042192,-0.325579,-0.806921,1.079005,-0.330377,-1.539112,-0.510309,-6.416553
1790547921.9956,-0.037200,-0.041352,-0.321414,-0.036954,-0.041604,-0.321414,0.165607,-0.220127,-0.096048,-1.232488,-0.844929,-17.710609
1790547922.0096,-0.032219,-0.042107,-0.317108,-0.033640,-0.041957,-0.317108,0.090330,-0.393749,0.464886,-0.159304,2.315371,-12.742777
1790547922.0236,-0.034565,-0.037180,-0.308938,-0.034287,-0.038613,-0.308938,-0.340691,0.029986,0.634866,1.412143,1.608951,-11.112707
1790547922.0380,-0.029162,-0.038942,-0.303873,-0.030699,-0.038843,-0.303873,0.159536,-0.425317,0.508595,-0.082648,1.608951,-8.667602
1790547922.0521,-0.041509,-0.046480,-0.298891,-0.038266,-0.044189,-0.298891,0.551704,0.581207,0.401751,4.095102,1.237151,-8.279490
1790547922.0665,-0.052010,-0.056722,-0.291797,-0.047887,-0.052962,-0.291797,0.694973,0.588492,0.458815,2.063719,0.902531,-10.258860
1790547922.0804,-0.065818,-0.063480,-0.292783,-0.060439,-0.060325,-0.292783,0.575987,0.952734,0.677361,0.223975,2.241011,-8.395923
1790547922.0940,-0.072525,-0.067261,-0.289703,-0.068899,-0.065180,-0.289703,0.321017,0.498645,0.807274,-0.695896,2.278191,-10.763406
1790547922.1077,-0.073190,-0.070797,-0.283600,-0.071903,-0.069112,-0.283600,0.260310,0.049413,0.758708,-0.504256,1.571771,-10.608161
1790547922.1218,-0.078429,-0.075827,-0.277090,-0.076471,-0.073812,-0.277090,0.351370,0.345663,0.679789,0.147319,1.014071,-8.124245
1790547922.1358,-0.069045,-0.079671,-0.270394,-0.071273,-0.077913,-0.270394,0.259095,-0.645077,0.640937,-0.849208,1.162791,-11.151518
1790547922.1497,-0.059762,-0.073159,-0.262490,-0.063215,-0.074586,-0.262490,-0.487602,-0.725210,0.502524,0.798895,0.976891,-11.229140
1790547922.1636,-0.056859,-0.063339,-0.237793,-0.058766,-0.066713,-0.237793,-0.870057,-0.424103,0.540163,3.443526,-1.551348,-10.452916
1790547922.1775,-0.052970,-0.053656,-0.217980,-0.054709,-0.057573,-0.217980,-0.850630,-0.495737,0.458815,2.983590,-1.142369,-9.055714
1790547922.1915,-0.043582,-0.041107,-0.208621,-0.046920,-0.046047,-0.208621,-0.978115,-0.904903,0.228128,2.906934,-0.026969,-7.658511
1790547922.2055,-0.029344,-0.028202,-0.204720,-0.034617,-0.033555,-0.204720,-0.947762,-1.248505,0.160136,2.408670,0.567911,-6.532986
1790547922.2194,-0.023506,-0.021231,-0.212640,-0.026839,-0.024928,-0.212640,-0.420824,-0.547945,0.009583,1.603783,1.832031,-7.231588
1790547922.2335,-0.040982,-0.031715,-0.226475,-0.036739,-0.029679,-0.226475,0.827314,1.136070,-0.301238,4.325070,3.430771,-14.372847
1790547922.2474,-0.033126,-0.036526,-0.246335,-0.034210,-0.034472,-0.246335,0.415720,-0.346398,-0.988442,-2.420655,2.835891,-14.722147
1790547922.2614,-0.029458,-0.038996,-0.257909,-0.030884,-0.037639,-0.257909,0.194746,-0.245624,-0.899810,1.373815,1.162791,-9.055714
1790547922.2755,-0.029115,-0.042623,-0.252829,-0.029646,-0.041128,-0.252829,0.210530,-0.199487,-0.389870,2.676966,0.270471,-6.727042
1790547922.2897,-0.019926,-0.053856,-0.253781,-0.022842,-0.050038,-0.253781,0.730183,-0.435030,-0.508856,-2.727279,-0.064149,-9.637881
1790547922.3040,-0.002810,-0.064886,-0.266436,-0.008819,-0.060431,-0.266436,0.781177,-1.057885,-0.779610,-1.539112,1.348691,-11.811308
1790547922.3180,0.005880,-0.070052,-0.291839,0.001470,-0.067165,-0.291839,0.476427,-0.630507,-0.976301,1.182175,2.538451,-9.055714
1790547922.3317,0.009064,-0.072238,-0.312559,0.006786,-0.070717,-0.312559,0.237241,-0.262622,-0.955660,1.335487,2.129471,-8.978091
1790547922.3457,0.010903,-0.077403,-0.325865,0.009668,-0.075397,-0.325865,0.357441,-0.079287,-0.882812,-0.044320,0.790991,-8.318301
1790547922.3595,-0.000730,-0.085942,-0.317490,0.002389,-0.082779,-0.317490,0.446073,0.816750,-0.791751,1.527127,-2.034688,-13.674245
1790547922.3735,-0.011216,-0.082326,-0.332138,-0.007134,-0.082462,-0.332138,-0.230204,0.847104,-0.603559,-1.577440,1.980751,-16.235784
1790547922.3875,-0.011106,-0.071978,-0.339117,-0.009914,-0.075123,-0.339117,-0.789923,0.229106,-0.561064,-4.528694,-0.101329,-12.936833
1790547922.4014,-0.012136,-0.061756,-0.331435,-0.011470,-0.065766,-0.331435,-0.941691,0.362661,-0.536781,-2.842263,-1.662888,-6.222497
1790547922.4155,-0.021022,-0.049526,-0.330691,-0.018157,-0.054398,-0.330691,-0.997542,0.819179,-0.421438,-0.925864,-0.398769,-3.855014
1790547922.4294,-0.031626,-0.039370,-0.340516,-0.027585,-0.043878,-0.340516,-0.701291,0.887171,-0.403226,-0.849208,1.162791,-7.542077
1790547922.4433,-0.034688,-0.033428,-0.344102,-0.032557,-0.036563,-0.344102,-0.463319,0.366304,-0.342519,-2.497311,0.716631,-15.498371
1790547922.4573,-0.030463,-0.042786,-0.334399,-0.031091,-0.040919,-0.334399,0.538348,-0.272335,0.134639,-1.040848,-1.551348,-15.731238
1790547922.4712,-0.034966,-0.046140,-0.326461,-0.033803,-0.044574,-0.326461,0.238455,0.230320,0.638508,0.683911,1.311511,-11.500819
1790547922.4853,-0.035758,-0.052240,-0.315038,-0.035171,-0.049940,-0.315038,0.404793,0.002061,0.734425,-0.159304,0.642271,-8.745224
1790547922.4992,-0.040659,-0.059165,-0.318687,-0.039013,-0.056398,-0.318687,0.549275,0.515643,0.229342,-2.420655,1.497411,-8.201867
1790547922.5133,-0.055087,-0.064626,-0.315273,-0.050264,-0.062157,-0.315273,0.350156,0.956377,0.229342,1.565455,0.344831,-12.044175
1790547922.5271,-0.066794,-0.076293,-0.314326,-0.061835,-0.072052,-0.314326,0.888021,0.803395,0.413892,0.683911,1.906391,-10.841028
1790547922.5408,-0.079238,-0.083424,-0.317740,-0.074017,-0.080012,-0.317740,0.657334,0.851960,0.614225,0.760567,2.687171,-7.930189
1790547922.5549,-0.090926,-0.089259,-0.313950,-0.085854,-0.086485,-0.313950,0.460643,0.762114,0.702858,0.990535,1.943571,-9.094525
1790547922.5697,-0.095932,-0.098281,-0.307914,-0.092908,-0.094742,-0.307914,0.584486,0.407584,0.600870,-0.925864,0.716631,-9.133336
1790547922.5842,-0.088630,-0.103548,-0.302162,-0.089914,-0.100907,-0.302162,0.378081,-0.511521,0.628795,0.300631,1.571771,-10.220049
1790547922.5982,-0.079683,-0.102412,-0.291870,-0.082753,-0.101960,-0.291870,-0.159784,-0.673002,0.540163,0.837223,-0.212869,-11.539630
1790547922.6121,-0.075293,-0.101537,-0.273699,-0.077531,-0.101664,-0.273699,-0.264200,-0.475097,0.531664,2.983590,-2.480848,-10.414105
1790547922.6261,-0.072968,-0.097234,-0.258279,-0.074337,-0.098563,-0.258279,-0.494887,-0.357325,0.529235,3.175230,-2.034688,-9.210958
1790547922.6401,-0.068817,-0.084662,-0.252518,-0.070473,-0.088832,-0.252518,-0.989043,-0.552802,0.445460,4.746677,-0.584669,-10.181238
1790547922.6540,-0.057863,-0.068128,-0.247262,-0.061646,-0.074339,-0.247262,-1.252511,-0.968039,0.281550,2.906934,0.010211,-9.482637
1790547922.6680,-0.050627,-0.052378,-0.254219,-0.053933,-0.058967,-0.254219,-1.146881,-0.879406,0.211130,5.206613,0.344831,-7.153965
1790547922.6821,-0.038044,-0.036551,-0.259773,-0.042811,-0.043276,-0.259773,-1.065534,-1.091881,0.211130,2.217030,1.571771,-7.076343
1790547922.6960,-0.046578,-0.042195,-0.247218,-0.045448,-0.042519,-0.247218,0.266380,0.435510,-0.053553,4.899989,-1.551348,-13.674245
1790547922.7099,-0.053230,-0.053462,-0.252607,-0.050895,-0.050179,-0.252607,0.805459,0.662554,-0.660624,-2.267343,0.902531,-14.993826
1790547922.7239,-0.035398,-0.055329,-0.269023,-0.040047,-0.053784,-0.269023,0.223885,-1.152588,-0.740757,-0.772552,2.166651,-10.258860
1790547922.7380,-0.039901,-0.057719,-0.283346,-0.039945,-0.056539,-0.283346,0.228742,0.106477,-0.293953,3.865134,1.423051,-8.240679
1790547922.7518,-0.029096,-0.066106,-0.289017,-0.032351,-0.063236,-0.289017,0.628195,-0.603796,-0.412939,-1.769080,0.902531,-7.813756
1790547922.7659,-0.014902,-0.076273,-0.308080,-0.020137,-0.072362,-0.308080,0.827314,-0.968039,-0.650911,0.032335,1.869211,-8.163056
1790547922.7795,-0.006792,-0.084796,-0.323134,-0.010795,-0.081066,-0.323134,0.687688,-0.612295,-0.647268,0.837223,1.571771,-9.405014
1790547922.7932,0.002048,-0.088624,-0.345048,-0.001805,-0.086357,-0.345048,0.398722,-0.677859,-0.757755,1.028863,2.426911,-9.327392
1790547922.8072,0.013845,-0.096852,-0.359282,0.009150,-0.093704,-0.359282,0.584486,-0.754350,-0.860957,-0.849208,0.790991,-9.210958
1790547922.8216,0.003568,-0.104945,-0.378501,0.005242,-0.101573,-0.378501,0.619696,0.709906,-0.791751,0.760567,2.352551,-13.557812
1790547922.8356,-0.007680,-0.092272,-0.392356,-0.003803,-0.095062,-0.392356,-0.865200,0.810680,-0.607202,0.338959,1.311511,-9.327392
1790547922.8497,-0.005821,-0.080722,-0.370074,-0.005215,-0.085024,-0.370074,-1.026681,0.135617,-0.580490,-4.107087,-2.294948,-9.172147
1790547922.8637,-0.013345,-0.068838,-0.360914,-0.010906,-0.073694,-0.360914,-1.019396,0.662554,-0.520997,-1.002520,-1.179549,-6.804665
1790547922.8776,-0.023184,-0.054626,-0.375961,-0.019501,-0.060347,-0.375961,-0.952618,0.828892,-0.535567,-0.925864,1.534591,-7.736133
1790547922.8917,-0.033360,-0.046049,-0.376158,-0.029202,-0.050338,-0.376158,-0.692792,0.940593,-0.439650,-2.420655,-0.324409,-8.861658
1790547922.9057,-0.033087,-0.036696,-0.389489,-0.031922,-0.040788,-0.389489,-0.573806,0.147758,-0.377729,-1.692424,2.166651,-8.357112
1790547922.9196,-0.025777,-0.040099,-0.382920,-0.027621,-0.040306,-0.382920,0.176534,-0.528519,0.049649,-0.082648,0.084571,-14.566903
1790547922.9336,-0.030424,-0.036822,-0.380744,-0.029583,-0.037867,-0.380744,-0.157355,0.195110,0.568088,1.450471,2.575631,-10.336483
1790547922.9475,-0.037824,-0.041743,-0.369306,-0.035351,-0.040580,-0.369306,0.283378,0.473148,0.524379,0.185647,0.121751,-9.676693
1790547922.9616,-0.048039,-0.047651,-0.370452,-0.044233,-0.045530,-0.370452,0.499496,0.514429,0.327688,2.255358,1.608951,-6.338930
1790547922.9757,-0.058319,-0.054956,-0.367248,-0.054093,-0.052128,-0.367248,0.527421,0.650413,0.368969,1.067191,1.162791,-9.133336
1790547922.9897,-0.069858,-0.062921,-0.364600,-0.065128,-0.059683,-0.364600,0.599055,0.730546,0.523165,1.297159,1.646131,-9.715504
1790547923.0034,-0.082555,-0.068942,-0.367148,-0.077327,-0.066164,-0.367148,0.533492,0.873815,0.644579,0.568927,2.241011,-7.969000
1790547923.0171,-0.090203,-0.075197,-0.364650,-0.086340,-0.072487,-0.364650,0.488568,0.548425,0.742924,-0.005993,1.980751,-10.142427
1790547923.0309,-0.096120,-0.080618,-0.364339,-0.093186,-0.078179,-0.364339,0.437574,0.414869,0.579015,0.300631,1.943571,-9.366203
1790547923.0450,-0.089160,-0.086898,-0.348961,-0.090368,-0.084282,-0.348961,0.311304,-0.394963,0.517094,-1.999048,-1.068009,-12.199420
1790547923.0624,-0.080778,-0.084131,-0.341877,-0.083655,-0.084176,-0.341877,-0.168283,-0.540661,0.422391,1.603783,1.385871,-12.742777
1790547923.0773,-0.069825,-0.077931,-0.322749,-0.073974,-0.079805,-0.322749,-0.530097,-0.868479,0.501310,2.178703,-0.621849,-9.909560
1790547923.0920,-0.065788,-0.071419,-0.299423,-0.068244,-0.073934,-0.299423,-0.593232,-0.456885,0.514666,2.676966,-1.105189,-8.939280
1790547923.1065,-0.058571,-0.058288,-0.285587,-0.061473,-0.062982,-0.285587,-0.993899,-0.715497,0.309476,2.945262,-0.175689,-7.774944
1790547923.1215,-0.048134,-0.044165,-0.277313,-0.052136,-0.049810,-0.277313,-0.990257,-0.866051,0.168635,2.676966,0.307651,-8.706413
1790547923.1354,-0.038485,-0.031106,-0.270759,-0.042580,-0.036717,-0.270759,-1.008469,-0.951041,0.005940,3.635166,0.047391,-7.658511
1790547923.1496,-0.044162,-0.026163,-0.269771,-0.043687,-0.029330,-0.269771,-0.375901,0.265530,-0.021985,3.635166,1.088431,-13.674245
1790547923.1640,-0.050689,-0.036896,-0.275812,-0.048588,-0.034626,-0.275812,0.733825,0.457364,-0.570777,2.753622,1.311511,-18.642077
1790547923.1782,-0.041083,-0.038502,-0.296215,-0.043335,-0.037339,-0.296215,0.183819,-0.397392,-1.088002,-2.918919,1.980751,-11.306763
1790547923.1923,-0.031983,-0.040409,-0.323088,-0.035389,-0.039488,-0.323088,0.302805,-0.725210,-0.593846,1.488799,1.943571,-5.329839
1790547923.2064,-0.026805,-0.051077,-0.321694,-0.029380,-0.047600,-0.321694,0.725326,-0.438673,-0.317022,1.182175,0.344831,-6.649420
1790547923.2205,-0.011107,-0.064572,-0.334103,-0.016589,-0.059480,-0.334103,0.993651,-0.885477,-0.587775,-2.880591,1.274331,-9.094525
1790547923.2343,0.002626,-0.073192,-0.355531,-0.003138,-0.069079,-0.355531,0.747181,-1.004463,-0.688549,0.683911,2.315371,-8.512357
1790547923.2480,0.008734,-0.078867,-0.378275,0.005172,-0.075930,-0.378275,0.543205,-0.487238,-0.765040,1.297159,2.687171,-8.861658
1790547923.2620,0.016270,-0.084574,-0.400534,0.012941,-0.081981,-0.400534,0.482498,-0.422889,-0.789323,-1.079176,1.646131,-7.852567
1790547923.2761,0.002614,-0.097290,-0.396254,0.005712,-0.092697,-0.396254,0.771463,0.958805,-0.740757,1.028863,-1.476988,-15.032637
1790547923.2902,-0.002306,-0.091447,-0.411021,0.000100,-0.091822,-0.411021,-0.386828,0.538712,-0.563492,-3.493839,1.385871,-12.160609
1790547923.3043,-0.003793,-0.083632,-0.398431,-0.002625,-0.086089,-0.398431,-0.742572,0.250960,-0.508856,-2.152360,-2.109048,-9.987182
1790547923.3184,-0.004974,-0.077203,-0.371246,-0.004269,-0.079869,-0.371246,-0.760784,0.274029,-0.363159,-2.382327,-3.261628,-7.309210
1790547923.3327,-0.008595,-0.059293,-0.386416,-0.007297,-0.065466,-0.386416,-1.197875,0.461007,-0.417795,-1.730752,1.088431,-5.523895
1790547923.3467,-0.017139,-0.046686,-0.380422,-0.014186,-0.052320,-0.380422,-1.083746,0.792468,-0.371658,-2.420655,-1.885968,-10.025993
1790547923.3606,-0.028877,-0.035707,-0.384156,-0.024470,-0.040691,-0.384156,-0.845774,1.003728,-0.421438,-1.999048,0.196111,-11.539630
1790547923.3746,-0.018388,-0.042301,-0.380930,-0.020213,-0.041818,-0.380930,0.342871,-0.532162,-0.206535,-6.138470,-1.997508,-17.904665
1790547923.3886,-0.017160,-0.042820,-0.378978,-0.018076,-0.042520,-0.378978,0.050263,-0.167919,0.237841,0.952207,1.423051,-11.073895
1790547923.4027,-0.025711,-0.043283,-0.373937,-0.023420,-0.043054,-0.373937,0.072118,0.505930,0.637294,0.722239,1.832031,-10.569350
1790547923.4167,-0.024109,-0.047661,-0.369702,-0.023902,-0.046279,-0.369702,0.351370,-0.041648,0.508595,-1.730752,1.423051,-8.201867
1790547923.4306,-0.033160,-0.051097,-0.372303,-0.030383,-0.049652,-0.372303,0.322231,0.463435,0.379896,1.795423,1.534591,-6.610609
1790547923.4445,-0.044887,-0.057836,-0.369644,-0.040536,-0.055381,-0.369644,0.495853,0.734189,0.370183,1.297159,1.014071,-8.434735
1790547923.4586,-0.056907,-0.064391,-0.371789,-0.051996,-0.061688,-0.371789,0.556560,0.790039,0.418749,0.952207,2.464091,-9.870749
1790547923.4722,-0.067436,-0.070675,-0.373261,-0.062804,-0.067979,-0.373261,0.548061,0.730546,0.478241,0.415615,1.980751,-7.891378
1790547923.4860,-0.075643,-0.075588,-0.374516,-0.071791,-0.073306,-0.374516,0.453358,0.570280,0.529235,0.377287,2.501271,-9.288581
1790547923.5000,-0.082454,-0.082149,-0.371234,-0.079255,-0.079496,-0.371234,0.484926,0.467077,0.506167,0.300631,1.348691,-9.249770
1790547923.5141,-0.078006,-0.084344,-0.364010,-0.078381,-0.082890,-0.364010,0.124326,-0.409533,0.339829,2.485326,0.753811,-14.334035
1790547923.5281,-0.064166,-0.082097,-0.359212,-0.068430,-0.082335,-0.359212,-0.148856,-1.036030,0.424819,1.105519,1.906391,-14.799770
1790547923.5420,-0.056351,-0.076685,-0.342002,-0.059975,-0.078380,-0.342002,-0.514313,-0.739780,0.358041,3.021918,-1.030829,-10.258860
1790547923.5560,-0.052777,-0.069839,-0.323171,-0.054936,-0.072401,-0.323171,-0.645440,-0.513949,0.356827,3.788478,-1.328269,-8.473546
1790547923.5702,-0.043367,-0.060491,-0.309740,-0.046838,-0.064064,-0.309740,-0.804493,-0.859980,0.140710,2.600310,-1.068009,-7.464455
1790547923.5848,-0.034310,-0.048285,-0.311665,-0.038068,-0.053019,-0.311665,-0.867628,-0.907331,0.120070,3.980118,0.307651,-7.348021
1790547923.5992,-0.021820,-0.036696,-0.311024,-0.026694,-0.041593,-0.311024,-0.804493,-1.048172,0.111571,2.332014,0.828171,-7.774944
1790547923.6134,-0.024340,-0.036343,-0.295938,-0.025046,-0.037918,-0.295938,-0.194994,0.094336,-0.093619,2.983590,-2.518028,-17.361308
1790547923.6276,-0.031926,-0.037376,-0.318839,-0.029862,-0.037539,-0.318839,0.185033,0.698979,-0.666695,-1.155832,2.278191,-8.201867
1790547923.6416,-0.018777,-0.040252,-0.331403,-0.022102,-0.039438,-0.331403,0.211744,-0.632935,-0.919236,-3.455511,1.014071,-9.327392
1790547923.6556,-0.019062,-0.043373,-0.343493,-0.019974,-0.042192,-0.343493,0.250596,-0.150921,-0.389870,2.715294,1.051251,-7.192776
1790547923.6696,-0.014349,-0.054269,-0.350768,-0.016037,-0.050646,-0.350768,0.803031,-0.200701,-0.369230,-1.692424,1.311511,-9.793126
1790547923.6836,0.004045,-0.064358,-0.364169,-0.001980,-0.060244,-0.364169,0.760536,-1.124663,-0.703119,-2.497311,1.646131,-10.181238
1790547923.6975,0.013787,-0.072282,-0.381379,0.009057,-0.068671,-0.381379,0.611197,-0.691214,-0.843959,0.722239,1.906391,-10.608161
1790547923.7114,0.017529,-0.077832,-0.403706,0.014988,-0.075083,-0.403706,0.495853,-0.300260,-0.820891,1.105519,2.426911,-9.055714
1790547923.7257,0.028146,-0.082708,-0.421244,0.024199,-0.080420,-0.421244,0.370797,-0.674216,-0.845173,-0.580912,1.311511,-8.085434
1790547923.7396,0.012420,-0.092028,-0.416223,0.015954,-0.088546,-0.416223,0.538348,0.991587,-0.676408,4.056774,-1.216729,-14.760958
1790547923.7537,0.007078,-0.087633,-0.420403,0.009741,-0.087907,-0.420403,-0.378329,0.553282,-0.539210,-3.992103,-0.250049,-14.916203
1790547923.7680,0.009687,-0.078828,-0.420641,0.009703,-0.081552,-0.420641,-0.717075,0.096764,-0.477288,-4.567022,-0.807749,-9.288581
1790547923.7821,0.008331,-0.068872,-0.409686,0.008743,-0.072676,-0.409686,-0.974473,0.447651,-0.408082,-3.072231,-1.923148,-4.359560
1790547923.7959,0.001173,-0.053185,-0.410152,0.003444,-0.059033,-0.410152,-1.253726,0.754829,-0.348589,-1.577440,-0.361589,-4.281937
1790547923.8099,-0.009089,-0.042298,-0.410634,-0.005329,-0.047318,-0.410634,-0.897982,0.927237,-0.340090,-2.688951,-0.844929,-9.754315
1790547923.8242,-0.021586,-0.030527,-0.422906,-0.016709,-0.035564,-0.422906,-0.749857,1.117858,-0.344947,-2.880591,2.129471,-8.163056
1790547923.8386,-0.010190,-0.037002,-0.421056,-0.012146,-0.036571,-0.421056,0.345300,-0.594083,-0.119116,-5.640206,-1.179549,-16.429840
1790547923.8531,-0.014716,-0.036764,-0.419112,-0.013945,-0.036706,-0.419112,0.019910,0.172041,0.429676,1.757095,1.943571,-11.345574
1790547923.8672,-0.019885,-0.038827,-0.410885,-0.018103,-0.038190,-0.410885,0.154679,0.250960,0.695573,0.645583,1.199971,-9.754315
1790547923.8815,-0.026500,-0.048783,-0.405285,-0.023981,-0.045606,-0.405285,0.659762,0.623702,0.381110,-1.730752,0.233291,-4.902916
1790547923.8956,-0.042304,-0.055973,-0.407228,-0.036807,-0.052863,-0.407228,0.545633,0.918738,0.441817,2.715294,1.385871,-8.667602
1790547923.9096,-0.055830,-0.068134,-0.402521,-0.050123,-0.063553,-0.402521,0.889235,0.889599,0.548662,0.990535,1.423051,-10.569350
1790547923.9232,-0.068476,-0.076794,-0.401894,-0.062970,-0.072821,-0.401894,0.776320,0.909025,0.626367,0.032335,2.612811,-7.464455
1790547923.9369,-0.077109,-0.081572,-0.395786,-0.072868,-0.078947,-0.395786,0.414506,0.601847,0.764779,0.185647,2.426911,-10.103616
1790547923.9512,-0.080192,-0.089244,-0.385935,-0.077995,-0.086155,-0.385935,0.523778,0.198752,0.780563,0.032335,1.088431,-9.249770
1790547923.9657,-0.073349,-0.096084,-0.373765,-0.074742,-0.093105,-0.373765,0.431504,-0.495737,0.832771,0.185647,1.014071,-13.519000
1790547923.9798,-0.066336,-0.094468,-0.363196,-0.068858,-0.094059,-0.363196,-0.179210,-0.575871,0.657934,1.297159,0.084571,-11.384385
1790547923.9942,-0.066667,-0.092995,-0.350572,-0.067325,-0.093314,-0.350572,-0.256915,-0.188559,0.687074,3.826806,-1.737248,-10.685784
1790547924.0084,-0.063494,-0.084055,-0.341555,-0.064644,-0.086833,-0.341555,-0.711004,-0.442315,0.657934,2.676966,-0.138509,-7.580888
1790547924.0225,-0.058479,-0.071140,-0.333824,-0.060329,-0.075848,-0.333824,-0.997542,-0.560087,0.496454,3.903462,-0.324409,-11.811308
1790547924.0368,-0.049293,-0.057228,-0.328047,-0.052604,-0.062814,-0.328047,-1.044893,-0.878192,0.406607,3.903462,-0.064149,-10.220049
1790547924.0508,-0.039459,-0.044637,-0.324912,-0.043402,-0.050090,-0.324912,-0.934406,-0.946184,0.344686,3.060246,0.419191,-7.930189
1790547924.0649,-0.035283,-0.035771,-0.330858,-0.037719,-0.040066,-0.330858,-0.526454,-0.454456,0.307047,1.757095,2.241011,-7.658511
1790547924.0795,-0.045464,-0.042653,-0.339283,-0.043140,-0.041877,-0.339283,0.509209,0.618845,-0.252672,2.830278,1.980751,-12.587532
1790547924.0940,-0.044798,-0.049196,-0.348317,-0.044300,-0.047000,-0.348317,0.475213,0.078552,-0.622985,-1.040848,1.608951,-13.907112
1790547924.1083,-0.029650,-0.052237,-0.354129,-0.034045,-0.050666,-0.354129,0.242098,-0.940113,-0.442078,-1.155832,1.237151,-9.016902
1790547924.1222,-0.023810,-0.061251,-0.353382,-0.026881,-0.058075,-0.353382,0.634265,-0.360967,-0.094834,-0.734224,0.642271,-9.249770
1790547924.1362,-0.010943,-0.069986,-0.363777,-0.015724,-0.066413,-0.363777,0.730183,-0.713069,-0.436008,-2.765607,2.315371,-8.784035
1790547924.1499,0.003290,-0.077978,-0.378665,-0.002414,-0.074508,-0.378665,0.703471,-0.924329,-0.639983,-1.040848,2.092291,-7.425644
1790547924.1635,0.013248,-0.085126,-0.394359,0.008549,-0.081941,-0.394359,0.628195,-0.725210,-0.755327,0.377287,2.241011,-8.395923
1790547924.1773,0.017039,-0.092193,-0.403860,0.014492,-0.089118,-0.403860,0.540776,-0.343969,-0.671551,1.258831,1.237151,-8.628791
1790547924.1920,0.011608,-0.108374,-0.409556,0.012473,-0.102597,-0.409556,1.134492,0.355376,-0.222319,0.147319,1.051251,-9.599070
1790547924.2060,-0.001022,-0.110766,-0.416273,0.003026,-0.108316,-0.416273,0.158322,0.968518,-0.405654,-1.769080,0.679451,-18.409210
1790547924.2200,-0.002167,-0.098588,-0.420388,-0.000609,-0.101506,-0.420388,-0.895554,0.352948,-0.501571,-6.406766,0.307651,-13.713056
1790547924.2340,-0.003488,-0.083972,-0.416204,-0.002624,-0.089232,-0.416204,-1.208802,0.359019,-0.502785,-2.343999,-1.105189,-5.291028
1790547924.2479,-0.009309,-0.071500,-0.412598,-0.007303,-0.076819,-0.412598,-1.080103,0.586063,-0.344947,-1.615768,-1.476988,-6.300119
1790547924.2618,-0.019231,-0.058162,-0.420708,-0.015653,-0.063759,-0.420708,-0.929550,0.927237,-0.491858,-2.420655,1.311511,-8.551168
1790547924.2759,-0.031903,-0.049880,-0.424517,-0.027028,-0.054044,-0.424517,-0.717075,1.197991,-0.511284,-3.225543,-1.068009,-7.580888
1790547924.2898,-0.026858,-0.049708,-0.426636,-0.026909,-0.051008,-0.426636,-0.071151,-0.203129,-0.292739,-2.918919,-0.026969,-13.945924
1790547924.3039,-0.028504,-0.053945,-0.423685,-0.028025,-0.053064,-0.423685,0.238455,0.076124,0.219629,0.683911,-0.064149,-16.662707
1790547924.3178,-0.033146,-0.055502,-0.416989,-0.031610,-0.054771,-0.416989,0.046621,0.289813,0.491597,0.108991,-0.026969,-11.772497
1790547924.3319,-0.037823,-0.062930,-0.408636,-0.035959,-0.060482,-0.408636,0.457001,0.299526,0.582658,-0.120976,-0.101329,-7.969000
1790547924.3465,-0.046827,-0.071166,-0.407056,-0.043566,-0.067961,-0.407056,0.665833,0.491360,0.314332,1.910407,2.426911,-8.939280
1790547924.3607,-0.064270,-0.079595,-0.402651,-0.058059,-0.076105,-0.402651,0.634265,1.126357,0.490383,1.565455,1.646131,-9.831937
1790547924.3747,-0.075988,-0.088711,-0.394582,-0.070609,-0.084929,-0.394582,0.704686,0.853175,0.654292,-0.389272,1.980751,-9.715504
1790547924.3885,-0.086805,-0.094049,-0.384995,-0.081946,-0.091313,-0.384995,0.483712,0.796110,0.784205,-0.274288,2.501271,-8.279490
1790547924.4027,-0.092178,-0.099056,-0.374593,-0.089108,-0.096733,-0.374593,0.348942,0.420940,0.778135,-0.619240,1.237151,-9.210958
1790547924.4168,-0.092412,-0.105896,-0.364602,-0.091421,-0.103147,-0.364602,0.514065,0.019059,0.716213,0.108991,1.832031,-9.909560
1790547924.4309,-0.084414,-0.109002,-0.354918,-0.086516,-0.107246,-0.354918,0.130396,-0.521234,0.712571,-0.849208,-0.287229,-12.354665
1790547924.4449,-0.078750,-0.107042,-0.345479,-0.081080,-0.107103,-0.345479,-0.238703,-0.510307,0.620296,2.025391,-0.584669,-10.491728
1790547924.4589,-0.073317,-0.102478,-0.333726,-0.075646,-0.103866,-0.333726,-0.469390,-0.558873,0.753852,2.753622,-1.179549,-9.715504
1790547924.4729,-0.071494,-0.094949,-0.324081,-0.072740,-0.097624,-0.324081,-0.683079,-0.374323,0.581444,3.558510,-1.253909,-8.085434
1790547924.4869,-0.062398,-0.080707,-0.319566,-0.065501,-0.085782,-0.319566,-1.058249,-0.842982,0.327688,3.405198,0.419191,-10.297672
1790547924.5008,-0.054184,-0.065022,-0.317344,-0.057579,-0.071250,-0.317344,-1.155380,-0.844196,0.151637,4.593365,0.419191,-9.715504
1790547924.5148,-0.040439,-0.048951,-0.318949,-0.045581,-0.055640,-0.318949,-1.072818,-1.271574,0.099429,3.635166,1.683311,-6.610609
1790547924.5287,-0.044783,-0.049076,-0.312724,-0.045022,-0.051045,-0.312724,-0.090577,0.180540,0.097001,2.830278,-0.696209,-12.121798
1790547924.5427,-0.050857,-0.056861,-0.323647,-0.049107,-0.055116,-0.323647,0.611197,0.542354,-0.618129,-0.657568,2.315371,-15.187882
1790547924.5567,-0.041727,-0.061252,-0.337000,-0.043941,-0.059412,-0.337000,0.361083,-0.426531,-1.015153,-2.458983,1.497411,-12.005364
1790547924.5706,-0.031582,-0.064092,-0.348933,-0.035290,-0.062688,-0.348933,0.285807,-0.739780,-0.658196,1.182175,1.980751,-9.637881
1790547924.5848,-0.027466,-0.074402,-0.352394,-0.029813,-0.070888,-0.352394,0.704686,-0.350040,-0.354660,1.297159,0.344831,-8.085434
1790547924.5993,-0.012281,-0.082671,-0.369445,-0.017541,-0.079136,-0.369445,0.719255,-0.887905,-0.732258,-1.692424,2.761531,-8.240679
1790547924.6131,0.001893,-0.091139,-0.385756,-0.003937,-0.087538,-0.385756,0.704686,-0.972895,-0.921664,-0.159304,2.092291,-9.172147
1790547924.6269,0.006914,-0.097931,-0.401004,0.003658,-0.094813,-0.401004,0.577201,-0.404677,-0.931378,1.067191,1.906391,-8.240679
1790547924.6410,0.014945,-0.104585,-0.416557,0.011559,-0.101653,-0.416557,0.501924,-0.506665,-0.919236,-0.695896,1.385871,-10.220049
1790547924.6550,0.009323,-0.114112,-0.426168,0.009994,-0.110374,-0.426168,0.635480,0.402728,-0.802678,0.338959,0.084571,-13.208511
1790547924.6688,-0.006412,-0.111503,-0.435588,-0.001490,-0.111165,-0.435588,-0.190137,1.110573,-0.678836,1.373815,1.237151,-20.039280
1790547924.6829,-0.003903,-0.102524,-0.436683,-0.003179,-0.105117,-0.436683,-0.792352,0.078552,-0.676408,-4.490366,-2.220588,-10.375294
1790547924.6969,-0.011801,-0.089790,-0.433191,-0.009214,-0.094388,-0.433191,-1.143239,0.604275,-0.548923,-0.082648,-1.365448,-4.281937
1790547924.7108,-0.017325,-0.075020,-0.431022,-0.014892,-0.080830,-0.431022,-1.262225,0.726904,-0.434793,-3.417183,-1.848788,-5.795574
1790547924.7249,-0.032651,-0.063195,-0.437082,-0.027323,-0.068486,-0.437082,-0.982972,1.298765,-0.616915,-1.960720,-1.291089,-7.930189
1790547924.7390,-0.039987,-0.059167,-0.445359,-0.036188,-0.061963,-0.445359,-0.247202,0.728118,-0.608416,-2.114032,1.237151,-8.939280
1790547924.7529,-0.040355,-0.076654,-0.445112,-0.039105,-0.072247,-0.445112,1.067714,0.102835,-0.057195,-1.270816,-3.075728,-12.703965
1790547924.7669,-0.041733,-0.075474,-0.439973,-0.040944,-0.074506,-0.439973,0.001697,0.140473,0.331330,-1.002520,2.612811,-11.151518
1790547924.7810,-0.042690,-0.078977,-0.431391,-0.042166,-0.077636,-0.431391,0.149823,0.010560,0.644579,0.453943,-0.807749,-11.694875
1790547924.7949,-0.038100,-0.083514,-0.422961,-0.039320,-0.081751,-0.422961,0.314946,-0.290547,0.478241,-1.040848,0.679451,-10.181238
1790547924.8088,-0.050276,-0.089811,-0.420401,-0.046989,-0.087393,-0.420401,0.406007,0.739045,0.456387,1.182175,0.010211,-5.717951
1790547924.8226,-0.061611,-0.099735,-0.413243,-0.057225,-0.096033,-0.413243,0.693758,0.794896,0.553518,0.338959,0.419191,-9.870749
1790547924.8367,-0.073117,-0.108074,-0.405211,-0.068349,-0.104462,-0.405211,0.708328,0.773041,0.711357,0.645583,2.649991,-8.784035
1790547924.8507,-0.085178,-0.112793,-0.394886,-0.080129,-0.110294,-0.394886,0.425433,0.866530,0.809702,0.108991,2.241011,-8.512357
1790547924.8644,-0.088745,-0.118084,-0.384588,-0.086160,-0.115747,-0.384588,0.414506,0.291027,0.746567,-0.274288,1.757671,-10.685784
1790547924.8785,-0.087648,-0.123048,-0.374355,-0.087201,-0.120857,-0.374355,0.295520,-0.098713,0.722284,0.760567,0.196111,-11.539630
1790547924.8928,-0.078716,-0.124334,-0.366653,-0.081262,-0.123291,-0.366653,0.025980,-0.636578,0.524379,0.722239,-0.287229,-12.859210
1790547924.9070,-0.072931,-0.122740,-0.361596,-0.075430,-0.122905,-0.361596,-0.207135,-0.527305,0.441817,2.791950,-1.068009,-11.850119
1790547924.9210,-0.071058,-0.114394,-0.359042,-0.072370,-0.116947,-0.359042,-0.691578,-0.399820,0.474599,3.903462,-0.733389,-7.542077
1790547924.9351,-0.069309,-0.102767,-0.355907,-0.070227,-0.107021,-0.355907,-0.931978,-0.359753,0.378682,3.903462,-0.956469,-8.706413
1790547924.9491,-0.057071,-0.087260,-0.351853,-0.061018,-0.093188,-0.351853,-1.142024,-0.932828,0.251197,0.875551,0.196111,-7.813756
1790547924.9632,-0.048042,-0.076098,-0.350777,-0.051935,-0.081225,-0.350777,-0.880984,-0.827198,0.099429,2.906934,-0.659029,-8.434735
1790547924.9773,-0.034698,-0.063444,-0.352001,-0.039869,-0.068778,-0.352001,-0.894339,-1.128305,0.140710,2.332014,0.828171,-7.891378
1790547924.9914,-0.033658,-0.056532,-0.352967,-0.035521,-0.060206,-0.352967,-0.522812,-0.189773,-0.015914,3.558510,0.642271,-16.779140
1790547925.0054,-0.045119,-0.064224,-0.360440,-0.042240,-0.063019,-0.360440,0.538348,0.926023,-0.632699,-0.964192,0.902531,-18.642077
1790547925.0195,-0.047574,-0.062093,-0.378492,-0.045974,-0.062371,-0.378492,-0.009230,0.303168,-0.930163,-0.734224,4.025651,-14.023546
1790547925.0335,-0.032949,-0.063352,-0.389037,-0.036857,-0.063057,-0.389037,0.169249,-0.946184,-0.665480,-0.350944,1.311511,-6.532986
1790547925.0476,-0.029462,-0.072650,-0.392454,-0.031681,-0.069772,-0.392454,0.619696,-0.153349,-0.472432,-0.657568,0.047391,-8.163056
1790547925.0616,-0.012556,-0.085092,-0.399437,-0.018294,-0.080496,-0.399437,0.915946,-1.040887,-0.688549,-1.999048,0.939711,-9.133336
1790547925.0752,0.001250,-0.092531,-0.413124,-0.004613,-0.088921,-0.413124,0.673118,-0.915830,-0.796608,-0.887536,2.352551,-8.240679
1790547925.0890,0.006527,-0.097754,-0.427705,0.003185,-0.095104,-0.427705,0.440003,-0.414390,-0.870670,1.067191,1.869211,-9.831937
1790547925.1034,0.014926,-0.102349,-0.443018,0.011404,-0.100175,-0.443018,0.363512,-0.571014,-0.914380,0.223975,1.497411,-8.706413
1790547925.1178,0.003386,-0.111738,-0.451795,0.005791,-0.108269,-0.451795,0.573558,0.664983,-0.888883,3.098574,-0.547489,-10.491728
1790547925.1319,-0.010160,-0.106246,-0.461598,-0.005375,-0.106853,-0.461598,-0.397755,1.161567,-0.712832,-4.107087,0.642271,-13.208511
1790547925.1477,-0.003667,-0.096226,-0.464597,-0.004179,-0.099414,-0.464597,-0.754713,-0.086571,-0.746828,-6.751717,-1.960328,-10.220049
1790547925.1622,-0.012880,-0.084987,-0.468595,-0.010270,-0.089315,-0.468595,-0.981758,0.729332,-0.562278,-0.695896,-1.885968,-6.571797
1790547925.1769,-0.019020,-0.068968,-0.474302,-0.016395,-0.075072,-0.474302,-1.104386,0.635843,-0.551351,-2.995575,0.456371,-9.288581
1790547925.1918,-0.028916,-0.057147,-0.480508,-0.025160,-0.062525,-0.480508,-0.842131,0.838605,-0.502785,-2.114032,0.047391,-9.948371
1790547925.2070,-0.021023,-0.062514,-0.482373,-0.022264,-0.062518,-0.482373,0.283378,-0.289333,-0.337662,-5.563550,-0.696209,-14.799770
1790547925.2213,-0.019593,-0.062061,-0.474517,-0.020394,-0.062198,-0.474517,0.033265,-0.108426,0.449102,-0.542584,2.017931,-10.025993
1790547925.2354,-0.021246,-0.066221,-0.465376,-0.020991,-0.065014,-0.465376,0.278522,0.016631,0.727141,0.645583,0.605091,-10.220049
1790547925.2495,-0.022312,-0.072562,-0.461510,-0.021916,-0.070298,-0.461510,0.393865,-0.072002,0.513452,1.527127,-0.101329,-8.589979
1790547925.2637,-0.034578,-0.076564,-0.461398,-0.030779,-0.074684,-0.461398,0.359869,0.681981,0.371397,1.795423,1.311511,-6.106063
1790547925.2781,-0.047580,-0.084892,-0.456542,-0.042540,-0.081830,-0.456542,0.565059,0.851960,0.426033,0.798895,0.753811,-12.626343
1790547925.2922,-0.057767,-0.093885,-0.449343,-0.053199,-0.090268,-0.449343,0.698615,0.666197,0.610583,0.607255,1.683311,-8.667602
1790547925.3060,-0.069359,-0.098774,-0.441416,-0.064511,-0.096223,-0.441416,0.503138,0.748758,0.769636,1.067191,2.835891,-7.736133
1790547925.3198,-0.077714,-0.104302,-0.431056,-0.073753,-0.101878,-0.431056,0.455787,0.590920,0.831557,0.147319,1.869211,-8.900469
1790547925.3341,-0.081968,-0.111417,-0.421447,-0.079504,-0.108555,-0.421447,0.492211,0.288599,0.704072,0.300631,0.976891,-10.103616
1790547925.3483,-0.075698,-0.118213,-0.409731,-0.076839,-0.115316,-0.409731,0.389009,-0.467812,0.790276,0.683911,-0.473129,-13.286133
1790547925.3626,-0.063128,-0.113498,-0.400703,-0.067241,-0.114044,-0.400703,-0.358903,-0.895190,0.597227,0.530599,0.530731,-13.363756
1790547925.3767,-0.056219,-0.105356,-0.391529,-0.059526,-0.107962,-0.391529,-0.725574,-0.737352,0.598442,4.133430,-1.700068,-9.327392
1790547925.3910,-0.056327,-0.097329,-0.383896,-0.057287,-0.100519,-0.383896,-0.751071,-0.312402,0.503738,4.631693,-2.146228,-7.270399
1790547925.4049,-0.047982,-0.085231,-0.378435,-0.050773,-0.089818,-0.378435,-0.927121,-0.723996,0.376254,1.680439,-0.026969,-8.784035
1790547925.4188,-0.042103,-0.071377,-0.378762,-0.044704,-0.076909,-0.378762,-1.018182,-0.711855,0.260910,4.478381,0.382011,-8.667602
1790547925.4329,-0.030225,-0.059406,-0.377816,-0.034569,-0.064657,-0.377816,-0.853059,-1.057885,0.230556,2.945262,0.865351,-8.784035
1790547925.4467,-0.026282,-0.047847,-0.383781,-0.028768,-0.052890,-0.383781,-0.723145,-0.520020,0.185633,2.868606,2.129471,-7.231588
1790547925.4607,-0.035518,-0.053467,-0.385271,-0.033493,-0.053294,-0.385271,0.374439,0.771827,-0.286668,-1.730752,0.753811,-15.808861
1790547925.4747,-0.035718,-0.057783,-0.400035,-0.035051,-0.056436,-0.400035,0.384152,0.144116,-0.817248,-1.002520,2.798711,-14.256413
1790547925.4887,-0.020262,-0.060816,-0.408082,-0.024699,-0.059502,-0.408082,0.251811,-0.935257,-0.661838,-2.190688,1.608951,-11.462007
1790547925.5025,-0.019394,-0.071152,-0.407897,-0.020985,-0.067657,-0.407897,0.670690,-0.109640,-0.300024,0.952207,-0.324409,-8.007811
1790547925.5166,-0.008988,-0.085385,-0.412977,-0.012587,-0.080067,-0.412977,1.010649,-0.579513,-0.556208,-2.305671,0.679451,-10.569350
1790547925.5303,0.007930,-0.094661,-0.424868,0.001775,-0.090282,-0.424868,0.760536,-1.094309,-0.699476,-1.884064,2.055111,-9.637881
1790547925.5440,0.015925,-0.100502,-0.442651,0.011680,-0.097436,-0.442651,0.531063,-0.592869,-0.918022,0.568927,2.501271,-9.288581
1790547925.5576,0.016588,-0.105316,-0.456988,0.015116,-0.102952,-0.456988,0.437574,-0.149707,-0.816034,1.680439,1.980751,-8.473546
1790547925.5717,0.025561,-0.115864,-0.467249,0.022427,-0.111990,-0.467249,0.741110,-0.549160,-0.667909,-1.270816,0.530731,-8.512357
1790547925.5857,0.005423,-0.117664,-0.476161,0.010525,-0.115962,-0.476161,0.103685,1.440819,-0.601131,-0.044320,0.605091,-19.418301
1790547925.5998,0.009309,-0.108291,-0.484041,0.009674,-0.110592,-0.484041,-0.667295,-0.024650,-0.622985,-4.605350,0.716631,-10.452916
1790547925.6143,0.011615,-0.093914,-0.478660,0.011033,-0.098917,-0.478660,-1.159022,0.167184,-0.472432,-3.800463,-1.476988,-5.756762
1790547925.6283,0.013863,-0.077335,-0.477794,0.013014,-0.083810,-0.477794,-1.371497,0.169613,-0.462719,-3.838791,-1.700068,-6.106063
1790547925.6423,0.009489,-0.059176,-0.482190,0.010546,-0.066566,-0.482190,-1.468629,0.408799,-0.406868,-0.657568,-0.882109,-5.058161
1790547925.6563,-0.003403,-0.047302,-0.486016,0.000782,-0.053082,-0.486016,-0.984186,1.113001,-0.371658,-2.114032,-0.882109,-7.736133
1790547925.6703,-0.013750,-0.032798,-0.489607,-0.009391,-0.038883,-0.489607,-0.945333,0.984302,-0.446935,-2.497311,2.203831,-7.348021
1790547925.6843,-0.004732,-0.039244,-0.490869,-0.006130,-0.039136,-0.490869,0.381724,-0.588012,-0.122759,-1.807408,-0.324409,-20.388581
1790547925.6983,-0.008907,-0.047141,-0.486241,-0.008074,-0.044740,-0.486241,0.641550,0.190253,0.381110,1.297159,2.873071,-12.471098
1790547925.7122,-0.016577,-0.044015,-0.475874,-0.014026,-0.044233,-0.475874,-0.093006,0.410013,0.782991,0.837223,2.575631,-7.852567
1790547925.7262,-0.021463,-0.046073,-0.469052,-0.019232,-0.045521,-0.469052,0.183819,0.413655,0.456387,-1.884064,1.720491,-10.258860
1790547925.7401,-0.028186,-0.053685,-0.465444,-0.025499,-0.051236,-0.465444,0.540776,0.244889,0.447888,2.600310,0.716631,-7.580888
1790547925.7540,-0.040701,-0.060751,-0.460637,-0.036140,-0.057896,-0.460637,0.597841,0.698979,0.507381,2.408670,2.055111,-8.007811
1790547925.7677,-0.051851,-0.068765,-0.454138,-0.047138,-0.065505,-0.454138,0.647621,0.766971,0.572945,0.338959,1.832031,-8.939280
1790547925.7814,-0.060140,-0.073983,-0.445746,-0.056240,-0.071439,-0.445746,0.435146,0.524142,0.683431,0.952207,2.278191,-10.996273
1790547925.7955,-0.067636,-0.079059,-0.436857,-0.064217,-0.076773,-0.436857,0.412077,0.468292,0.702858,0.683911,2.092291,-9.870749
1790547925.8094,-0.069792,-0.085613,-0.428977,-0.068120,-0.082961,-0.428977,0.475213,0.122261,0.599656,0.377287,1.162791,-9.870749
1790547925.8234,-0.060847,-0.090149,-0.421022,-0.063029,-0.087992,-0.421022,0.318588,-0.685143,0.523165,0.913879,1.385871,-14.334035
1790547925.8373,-0.052037,-0.084938,-0.412307,-0.055334,-0.085854,-0.412307,-0.394113,-0.788345,0.469742,2.830278,0.753811,-11.656063
1790547925.8513,-0.050168,-0.077857,-0.401754,-0.051718,-0.080256,-0.401754,-0.621158,-0.336685,0.517094,3.251886,-0.993649,-10.220049
1790547925.8656,-0.043129,-0.068672,-0.395073,-0.045706,-0.072147,-0.395073,-0.745000,-0.706998,0.241484,2.906934,-0.659029,-7.891378
1790547925.8796,-0.033255,-0.055230,-0.393164,-0.036990,-0.060305,-0.393164,-0.931978,-0.944970,0.208702,3.098574,1.162791,-7.619700
1790547925.8936,-0.022506,-0.041792,-0.391217,-0.026851,-0.047346,-0.391217,-0.957475,-1.062742,0.109142,3.750150,0.828171,-7.153965
1790547925.9074,-0.021197,-0.039498,-0.388385,-0.022893,-0.041852,-0.388385,-0.198636,-0.210414,0.042364,2.293686,0.753811,-12.509909
1790547925.9213,-0.029519,-0.049769,-0.395651,-0.027531,-0.047394,-0.395651,0.738682,0.644342,-0.472432,0.377287,1.534591,-15.886483
1790547925.9353,-0.019745,-0.051338,-0.413280,-0.022081,-0.050155,-0.413280,0.214172,-0.572228,-0.864600,-1.002520,3.579491,-13.713056
1790547925.9493,-0.014474,-0.056611,-0.419139,-0.016756,-0.054674,-0.419139,0.378081,-0.493309,-0.537995,2.600310,0.939711,-9.172147
1790547925.9633,-0.011785,-0.068237,-0.418364,-0.013276,-0.064168,-0.418364,0.754465,-0.186131,-0.320664,0.223975,-0.250049,-7.774944
1790547925.9774,0.002160,-0.079036,-0.429226,-0.002471,-0.074576,-0.429226,0.782391,-0.880620,-0.695834,-1.232488,1.162791,-10.375294
1790547925.9912,0.018041,-0.089259,-0.445342,0.011888,-0.084854,-0.445342,0.816387,-1.128305,-0.823319,0.032335,1.757671,-8.279490
1790547926.0048,0.021466,-0.097889,-0.463604,0.018593,-0.093978,-0.463604,0.713185,-0.325757,-0.933806,1.335487,1.869211,-7.580888
1790547926.0188,0.031903,-0.103510,-0.478978,0.027910,-0.100650,-0.478978,0.416934,-0.736137,-0.924093,0.032335,1.348691,-10.025993
1790547926.0327,0.019140,-0.113738,-0.479113,0.021771,-0.109812,-0.479113,0.557774,0.848318,-0.869456,1.910407,-2.406488,-13.868301
1790547926.0465,0.004006,-0.109691,-0.492596,0.009336,-0.109727,-0.492596,-0.279984,1.156710,-0.700691,-1.462456,1.794851,-18.642077
1790547926.0605,0.010910,-0.103356,-0.494920,0.010438,-0.105267,-0.494920,-0.640584,-0.205557,-0.717688,-4.988630,-2.592388,-9.637881
1790547926.0744,0.006141,-0.096526,-0.489911,0.007430,-0.099148,-0.489911,-0.745000,0.423368,-0.494286,-0.925864,-2.778288,-7.891378
1790547926.0885,0.000465,-0.084203,-0.491471,0.002555,-0.088687,-0.491471,-1.032752,0.639486,-0.397155,-2.075704,-1.030829,-5.174595
1790547926.1027,-0.007891,-0.066704,-0.499334,-0.004757,-0.073299,-0.499334,-1.298649,0.773041,-0.646054,-2.152360,-0.026969,-9.133336
1790547926.1171,-0.017348,-0.057017,-0.504870,-0.013571,-0.061901,-0.504870,-0.815420,0.889599,-0.501571,-3.148887,-1.514168,-9.288581
1790547926.1311,-0.015942,-0.048995,-0.515479,-0.015231,-0.052867,-0.515479,-0.437822,0.097978,-0.405654,-2.075704,2.464091,-7.115154
1790547926.1451,-0.016716,-0.056474,-0.514615,-0.016270,-0.055392,-0.514615,0.499496,-0.031935,0.115213,1.642111,0.456371,-13.363756
1790547926.1591,-0.021688,-0.058432,-0.509741,-0.020063,-0.057520,-0.509741,0.151037,0.201180,0.549876,1.910407,1.199971,-10.879840
1790547926.1731,-0.025608,-0.059296,-0.504189,-0.023945,-0.058763,-0.504189,0.163178,0.192681,0.705286,0.453943,2.612811,-9.715504
1790547926.1870,-0.031274,-0.065920,-0.499137,-0.029075,-0.063773,-0.499137,0.446073,0.416083,0.330116,-0.274288,0.233291,-5.795574
1790547926.2009,-0.041346,-0.073619,-0.494971,-0.037664,-0.070665,-0.494971,0.529849,0.583635,0.438175,1.833751,0.419191,-9.055714
1790547926.2156,-0.057085,-0.083598,-0.492756,-0.051259,-0.079718,-0.492756,0.722898,0.935736,0.484312,2.025391,1.571771,-9.288581
1790547926.2295,-0.070649,-0.090359,-0.490810,-0.064832,-0.087167,-0.490810,0.590556,0.940593,0.596013,0.377287,2.129471,-7.697322
1790547926.2434,-0.081266,-0.096961,-0.484905,-0.076336,-0.094022,-0.484905,0.523778,0.748758,0.710143,0.262303,1.906391,-9.831937
1790547926.2575,-0.083049,-0.114291,-0.474456,-0.081035,-0.108211,-0.474456,1.170916,0.130760,0.714999,0.032335,0.121751,-11.617252
1790547926.2718,-0.076338,-0.118932,-0.465431,-0.077747,-0.115716,-0.465431,0.329516,-0.530947,0.734425,1.565455,1.534591,-13.053266
1790547926.2859,-0.067594,-0.113557,-0.456177,-0.070640,-0.114205,-0.456177,-0.419610,-0.643863,0.619082,0.607255,0.344831,-11.694875
1790547926.3001,-0.067052,-0.106569,-0.442600,-0.068129,-0.108860,-0.442600,-0.638156,-0.243196,0.639722,3.481854,-1.514168,-9.443825
1790547926.3143,-0.062891,-0.097989,-0.432259,-0.064463,-0.101250,-0.432259,-0.735287,-0.455671,0.444245,2.600310,-1.216729,-9.016902
1790547926.3284,-0.052886,-0.086148,-0.427510,-0.056359,-0.090679,-0.427510,-0.902838,-0.878192,0.260910,2.638638,-0.212869,-8.900469
1790547926.3427,-0.041632,-0.072407,-0.428517,-0.046050,-0.077889,-0.428517,-0.939263,-1.016604,0.265767,2.676966,0.790991,-6.532986
1790547926.3570,-0.033053,-0.060403,-0.429893,-0.036952,-0.065649,-0.429893,-0.797208,-0.802915,0.235413,2.523654,1.237151,-7.425644
1790547926.3713,-0.047479,-0.064537,-0.431708,-0.044321,-0.064871,-0.431708,0.267594,0.946664,-0.149470,2.983590,0.716631,-17.283686
1790547926.3853,-0.057918,-0.063979,-0.447585,-0.053839,-0.064246,-0.447585,0.049049,0.773041,-0.684907,1.450471,2.873071,-15.226693
1790547926.3993,-0.032681,-0.065867,-0.452858,-0.039028,-0.065381,-0.452858,0.170463,-1.559326,-0.453006,-4.720334,1.832031,-13.751868
1790547926.4142,-0.036908,-0.070613,-0.452309,-0.037544,-0.069044,-0.452309,0.276093,0.185396,-0.177395,1.642111,0.010211,-7.348021
1790547926.4284,-0.035536,-0.078926,-0.458197,-0.036138,-0.075962,-0.458197,0.596627,0.032415,-0.417795,-1.155832,0.642271,-7.813756
1790547926.4426,-0.023253,-0.082259,-0.473178,-0.027119,-0.080370,-0.473178,0.330730,-0.772562,-0.683693,-0.772552,2.129471,-9.909560
1790547926.4563,-0.021167,-0.088824,-0.484918,-0.022953,-0.086288,-0.484918,0.478855,-0.244410,-0.942305,2.255358,0.530731,-8.745224
1790547926.4703,-0.018734,-0.091659,-0.497192,-0.020000,-0.090048,-0.497192,0.237241,-0.258980,-0.758969,1.642111,0.865351,-7.386832
1790547926.4845,-0.004321,-0.096771,-0.508033,-0.009025,-0.094754,-0.508033,0.362298,-0.940113,-0.757755,-0.657568,0.679451,-9.948371
1790547926.4986,0.001263,-0.107033,-0.523389,-0.001824,-0.103349,-0.523389,0.832171,-0.379180,-0.533139,-0.082648,2.724351,-12.277042
1790547926.5125,-0.017943,-0.098783,-0.534217,-0.013107,-0.100153,-0.534217,-0.538596,1.303621,-0.531925,2.178703,1.906391,-12.509909
1790547926.5265,-0.014196,-0.085485,-0.538176,-0.013869,-0.089886,-0.538176,-0.986614,0.002061,-0.456648,-4.758662,0.121751,-10.763406
1790547926.5405,-0.010550,-0.073695,-0.534060,-0.011546,-0.078552,-0.534060,-0.972045,-0.042862,-0.358302,-3.187215,-1.328269,-9.210958
1790547926.5545,-0.016527,-0.064985,-0.522160,-0.015033,-0.069055,-0.522160,-0.857915,0.584849,-0.156755,-1.385800,-1.737248,-5.407462
1790547926.5685,-0.024978,-0.049024,-0.528988,-0.021995,-0.055034,-0.528988,-1.072818,0.803395,-0.167682,-1.424128,1.014071,-4.592427
1790547926.5825,-0.029799,-0.036018,-0.531108,-0.027457,-0.041723,-0.531108,-0.941691,0.475576,-0.144613,-1.500784,0.753811,-8.357112
