t,imu_roll,imu_pitch,imu_yaw,lpf_roll,lpf_pitch,lpf_yaw,gyro_x,gyro_y,gyro_z,acc_x,acc_y,acc_z
1790548751.2092,0.004131,-0.022003,0.003003,0.002892,-0.015402,0.003003,-0.005637,-0.006944,-0.000089,0.262303,1.199971,-10.220049
1790548751.2247,0.014585,-0.026005,0.007047,0.011077,-0.022824,0.007047,0.019860,0.011268,0.004768,0.032335,1.125611,-10.103616
1790548751.2388,0.004660,-0.023596,0.003318,0.006585,-0.023365,0.003318,-0.011707,-0.000874,0.004768,0.453943,1.237151,-10.103616
1790548751.2527,0.007274,-0.023633,0.004236,0.007068,-0.023553,0.004236,-0.026277,-0.013015,-0.000089,0.147319,1.199971,-10.297672
1790548751.2669,0.002622,-0.022099,0.002380,0.003956,-0.022535,0.002380,-0.021421,-0.002088,-0.004945,0.453943,1.237151,-9.948371
1790548751.2809,0.006572,-0.022726,0.004024,0.005787,-0.022669,0.004024,-0.017778,0.041621,0.005982,-0.005993,1.162791,-10.181238
1790548751.2954,0.009745,-0.020756,0.005749,0.008557,-0.021330,0.005749,-0.069986,0.045264,0.039978,-0.044320,1.274331,-10.064805
1790548751.3098,0.012530,-0.017420,0.008171,0.011339,-0.018593,0.008171,-0.116124,0.036765,0.088544,-0.082648,1.385871,-10.181238
1790548751.3238,0.014774,-0.014223,0.011220,0.013744,-0.015534,0.011220,-0.125837,-0.014229,0.149251,-0.044320,1.385871,-9.948371
1790548751.3379,0.014982,-0.010449,0.015916,0.014611,-0.011975,0.015916,-0.146477,-0.023942,0.257309,0.108991,1.460231,-9.909560
1790548751.3522,0.015077,-0.007487,0.021820,0.014937,-0.008833,0.021820,-0.153762,-0.039726,0.377510,0.108991,1.348691,-9.443825
1790548751.3668,0.005806,-0.006996,0.030003,0.008545,-0.007547,0.030003,-0.080913,0.087759,0.504994,0.952207,1.199971,-9.366203
1790548751.3809,-0.003106,-0.010216,0.038586,0.000390,-0.009416,0.038586,0.036858,0.197032,0.568130,0.875551,0.939711,-9.327392
1790548751.3954,-0.000324,-0.009568,0.044827,-0.000110,-0.009522,0.044827,0.038072,0.133896,0.477069,-0.427600,1.460231,-9.676693
1790548751.4094,0.001512,-0.017247,0.049105,0.001025,-0.014930,0.049105,0.099994,0.143609,0.348370,-0.427600,0.456371,-12.082986
1790548751.4235,-0.003954,-0.021413,0.050165,-0.002460,-0.019468,0.050165,0.118206,0.200674,0.322873,0.722239,0.939711,-11.190329
1790548751.4377,-0.012174,-0.024982,0.050734,-0.009260,-0.023327,0.050734,0.262689,0.241955,0.390865,1.028863,1.162791,-9.521448
1790548751.4518,-0.019854,-0.029864,0.052638,-0.016676,-0.027903,0.052638,0.311254,0.272308,0.403007,1.028863,1.051251,-9.870749
1790548751.4655,-0.026208,-0.032378,0.056288,-0.023348,-0.031035,0.056288,0.228693,0.447145,0.348370,0.492271,1.199971,-9.676693
1790548751.4793,-0.030736,-0.034087,0.059543,-0.028520,-0.033171,0.059543,0.226264,0.364583,0.305875,0.415615,1.348691,-9.754315
1790548751.4934,-0.035780,-0.033898,0.060470,-0.033602,-0.033680,0.060470,0.157058,0.277165,0.250025,0.798895,1.571771,-9.831937
1790548751.5078,-0.039912,-0.031028,0.060330,-0.038019,-0.031824,0.060330,0.068426,0.150894,0.235455,0.990535,1.869211,-9.482637
1790548751.5220,-0.039233,-0.029649,0.061273,-0.038868,-0.030301,0.061273,0.052642,-0.155070,0.168677,1.220503,2.055111,-12.626343
1790548751.5361,-0.040289,-0.025041,0.071164,-0.039863,-0.026619,0.071164,-0.400233,-0.325050,0.105542,2.600310,1.274331,-13.247322
1790548751.5506,-0.035773,-0.018322,0.087405,-0.037000,-0.020811,0.087405,-0.774189,-0.722074,-0.161570,2.906934,0.196111,-13.519000
1790548751.5650,-0.035049,-0.003560,0.076395,-0.035634,-0.008736,0.076395,-1.025516,-0.956403,-0.320622,2.753622,0.828171,-6.377742
1790548751.5790,-0.039324,-0.001149,0.098706,-0.038217,-0.003425,0.098706,-0.481580,-0.090720,-0.343691,1.987063,0.270471,-8.512357
1790548751.5930,-0.057959,-0.010003,0.119310,-0.052036,-0.008030,0.119310,0.373176,1.474309,-0.641156,0.913879,0.307651,-12.277042
1790548751.6070,-0.023399,0.010441,-0.092414,-0.031990,0.004900,-0.092414,-0.241180,-1.064462,-0.879128,-4.298727,5.103871,-7.115154
1790548751.6211,-0.035969,0.007848,-0.021893,-0.034776,0.006964,-0.021893,0.072068,0.238312,-0.900982,3.098574,0.865351,-7.736133
1790548751.6353,-0.029819,-0.002460,-0.023463,-0.031306,0.000367,-0.023463,0.603863,-0.100433,-1.087960,-0.197632,0.753811,-12.005364
1790548751.6492,-0.026373,-0.004829,-0.033647,-0.027853,-0.003270,-0.033647,0.239620,-0.386971,-1.123170,1.795423,1.423051,-9.909560
1790548751.6632,-0.025393,-0.003388,-0.065217,-0.026131,-0.003353,-0.065217,0.199553,-0.073722,-1.245798,1.028863,1.832031,-7.619700
1790548751.6771,-0.024013,-0.002232,-0.096244,-0.024648,-0.002568,-0.096244,0.169200,0.048906,-1.249441,0.568927,1.869211,-8.512357
1790548751.6907,-0.027548,-0.002029,-0.111060,-0.026678,-0.002190,-0.111060,0.108493,0.279593,-1.091602,1.258831,1.794851,-10.608161
1790548751.7043,-0.037474,-0.001161,-0.121643,-0.034235,-0.001470,-0.121643,0.047786,0.693616,-0.973831,1.527127,1.683311,-10.181238
1790548751.7184,-0.048455,0.002586,-0.133352,-0.044189,0.001369,-0.133352,-0.135550,0.755537,-0.724931,1.488799,1.832031,-10.103616
1790548751.7325,-0.051889,0.003807,-0.138125,-0.049579,0.003076,-0.138125,-0.125837,0.450787,-0.558594,0.185647,1.051251,-10.297672
1790548751.7464,-0.058254,0.004750,-0.135724,-0.055652,0.004248,-0.135724,-0.108839,0.479927,-0.363117,1.028863,1.088431,-9.831937
1790548751.7604,-0.046855,-0.004794,-0.125650,-0.049494,-0.002081,-0.125650,0.498232,-0.538739,-0.172497,-0.772552,0.493551,-12.432287
1790548751.7747,-0.047166,-0.011198,-0.133325,-0.047864,-0.008463,-0.133325,0.903756,-0.554522,0.104328,3.136902,3.021791,-7.037532
1790548751.7885,-0.061710,-0.005129,-0.168638,-0.057556,-0.006129,-0.168638,0.560154,0.557632,0.251239,2.676966,4.806431,-5.368651
1790548751.8024,-0.073209,0.001014,-0.165637,-0.068513,-0.001129,-0.165637,-0.392948,0.693616,0.529277,2.217030,2.947431,-15.265504
1790548751.8170,-0.065033,0.005322,-0.170935,-0.066077,0.003387,-0.170935,-0.423302,-0.368759,0.893520,-1.079176,1.348691,-11.850119
1790548751.8312,-0.053982,0.004825,-0.158525,-0.057611,0.004394,-0.158525,-0.210827,-0.611587,1.059857,-0.810880,0.419191,-7.192776
1790548751.8455,-0.049035,0.007764,-0.149000,-0.051608,0.006753,-0.149000,-0.406304,-0.174496,1.073213,-0.964192,0.605091,-7.697322
1790548751.8595,-0.037566,0.003115,-0.065682,-0.041778,0.004206,-0.065682,-0.159833,-0.135643,0.908090,-3.723807,-0.956469,-6.921098
1790548751.8735,-0.028674,0.000755,-0.064582,-0.032605,0.001790,-0.064582,-0.157404,-0.250987,0.598483,-2.918919,-0.510309,-11.850119
1790548751.8875,-0.029214,-0.003673,-0.054533,-0.030231,-0.002034,-0.054533,-0.015350,0.059834,0.603340,-0.120976,-0.621849,-11.772497
1790548751.9016,-0.033982,-0.008750,-0.042799,-0.032857,-0.006735,-0.042799,0.107279,0.234670,0.721112,0.645583,-0.064149,-9.482637
1790548751.9152,-0.036286,-0.015994,-0.031958,-0.035258,-0.013216,-0.031958,0.293042,0.176391,0.739324,-0.005993,0.010211,-8.163056
1790548751.9288,-0.046389,-0.020712,-0.023190,-0.043050,-0.018463,-0.023190,0.200768,0.725183,0.715041,0.262303,0.419191,-7.852567
1790548751.9425,-0.054639,-0.022042,-0.013938,-0.051162,-0.020968,-0.013938,0.053856,0.689973,0.611839,-0.159304,0.939711,-7.930189
1790548751.9565,-0.055870,-0.018723,-0.003911,-0.054458,-0.019397,-0.003911,-0.212041,0.235884,0.458857,-0.580912,1.683311,-10.181238
1790548751.9705,-0.051847,-0.011072,-0.000667,-0.052630,-0.013569,-0.000667,-0.645490,-0.308052,0.314374,0.837223,1.051251,-12.820399
1790548751.9844,-0.048644,-0.000610,-0.000020,-0.049840,-0.004498,-0.000020,-0.877391,-0.437965,0.241526,2.370342,0.753811,-11.656063
1790548751.9984,-0.043571,0.009229,-0.001894,-0.045451,0.005111,-0.001894,-0.905316,-0.525383,0.067903,1.910407,0.084571,-10.569350
1790548752.0123,-0.036208,0.022496,-0.003919,-0.038981,0.017280,-0.003919,-1.041300,-0.987971,0.030265,3.251886,0.790991,-7.736133
1790548752.0264,-0.021432,0.039425,-0.004208,-0.026697,0.032782,-0.004208,-1.240419,-1.272080,0.042406,1.603783,1.348691,-8.046623
1790548752.0404,-0.040899,0.037297,-0.015225,-0.036639,0.035942,-0.015225,0.087852,1.239980,-0.544024,4.708349,1.534591,-16.585084
1790548752.0545,-0.030520,0.034996,-0.010712,-0.032355,0.035280,-0.010712,0.399887,-0.089506,-1.205732,-4.605350,4.769251,-15.032637
1790548752.0690,-0.023009,0.042295,-0.030859,-0.025813,0.040191,-0.030859,0.192269,-0.351761,-1.066105,0.530599,6.405170,-7.153965
1790548752.0830,-0.018076,0.042308,-0.053546,-0.020397,0.041673,-0.053546,0.299113,0.240741,-1.170522,-1.117504,1.571771,-3.932637
1790548752.0970,-0.014616,0.033391,-0.072021,-0.016351,0.035875,-0.072021,0.512802,0.109613,-0.992043,-0.849208,0.307651,-8.473546
1790548752.1110,-0.011448,0.029349,-0.084830,-0.012919,0.031307,-0.084830,0.254190,-0.096791,-0.909481,0.760567,1.385871,-12.277042
1790548752.1250,-0.014634,0.031386,-0.101270,-0.014120,0.031362,-0.101270,-0.060273,0.448359,-1.138954,0.300631,2.241011,-10.996273
1790548752.1389,-0.019955,0.041332,-0.111501,-0.018204,0.038341,-0.111501,-0.443942,0.615911,-1.045465,0.108991,3.133331,-8.240679
1790548752.1526,-0.027939,0.049916,-0.125978,-0.025019,0.046444,-0.125978,-0.388091,0.927945,-0.967760,-0.580912,2.798711,-7.930189
1790548752.1663,-0.039020,0.055631,-0.135283,-0.034820,0.052875,-0.135283,-0.164689,1.053002,-0.824491,0.108991,3.170511,-8.551168
1790548752.1804,-0.035862,0.050449,-0.154341,-0.035549,0.051176,-0.154341,0.283329,0.031908,-0.456606,-1.424128,1.720491,-18.098721
1790548752.1943,-0.031738,0.039187,-0.163531,-0.032881,0.042784,-0.163531,0.756845,-0.191494,-0.312123,0.223975,1.534591,-12.742777
1790548752.2083,-0.029141,0.034047,-0.136552,-0.030263,0.036668,-0.136552,0.713135,-0.243702,-0.174925,1.067191,4.062831,-7.930189
1790548752.2222,-0.022319,0.017061,-0.127986,-0.024702,0.022943,-0.127986,1.237645,-0.582448,0.172320,0.990535,1.832031,-9.909560
1790548752.2362,-0.012500,0.000478,-0.114596,-0.016161,0.007218,-0.114596,1.390627,-0.746357,0.241526,0.338959,2.947431,-8.163056
1790548752.2501,-0.008749,-0.019992,-0.102809,-0.010973,-0.011829,-0.102809,1.612815,-0.326264,0.529277,0.223975,2.798711,-10.181238
1790548752.2641,-0.018084,-0.017577,-0.104089,-0.015951,-0.015853,-0.104089,-0.125837,0.706971,0.501352,-0.695896,3.467951,-18.525644
1790548752.2780,-0.009830,-0.006819,-0.109663,-0.011667,-0.009529,-0.109663,-0.707411,-0.490173,0.593627,-2.152360,3.951291,-16.856763
1790548752.2919,-0.004502,-0.008229,-0.107003,-0.006651,-0.008619,-0.107003,-0.165903,-0.522955,0.897162,0.338959,-0.547489,-6.494175
1790548752.3061,-0.020466,-0.010856,-0.055027,-0.016321,-0.010185,-0.055027,0.103636,0.600127,0.874094,3.328542,0.493551,-7.115154
1790548752.3212,-0.013824,-0.019362,-0.098974,-0.014573,-0.016609,-0.098974,0.259046,-0.169639,0.885021,-3.302199,-1.365448,-9.094525
1790548752.3357,-0.016170,-0.023271,-0.110293,-0.015691,-0.021273,-0.110293,-0.011707,0.329373,0.525635,-1.999048,-1.514168,-10.569350
1790548752.3501,-0.023236,-0.027705,-0.118818,-0.020972,-0.025775,-0.118818,0.022289,0.685117,0.260952,-1.922392,-1.848788,-10.957462
1790548752.3642,-0.028139,-0.034765,-0.122534,-0.025989,-0.032068,-0.122534,0.369533,0.364583,0.360512,0.032335,-0.026969,-11.151518
1790548752.3778,-0.038693,-0.045369,-0.125273,-0.034882,-0.041379,-0.125273,0.594150,0.655977,0.418790,1.488799,-0.621849,-10.220049
1790548752.3917,-0.049426,-0.055509,-0.125939,-0.045063,-0.051270,-0.125939,0.616004,0.692402,0.393293,1.182175,-0.026969,-9.366203
1790548752.4058,-0.051260,-0.055861,-0.108233,-0.049401,-0.054484,-0.108233,0.089066,0.222529,0.361726,-0.465928,1.757671,-10.181238
1790548752.4197,-0.050355,-0.048452,-0.104771,-0.050069,-0.050262,-0.104771,-0.553215,-0.090720,0.247596,0.990535,1.088431,-11.888930
1790548752.4336,-0.049107,-0.041668,-0.108379,-0.049395,-0.044246,-0.108379,-0.633348,-0.213348,0.122540,2.408670,-0.473129,-12.471098
1790548752.4476,-0.041137,-0.034763,-0.104937,-0.043615,-0.037608,-0.104937,-0.613922,-0.792494,0.082473,2.561982,-0.101329,-8.589979
1790548752.4616,-0.033464,-0.023812,-0.097566,-0.036509,-0.027951,-0.097566,-0.849465,-0.803421,0.114041,2.408670,0.419191,-7.386832
1790548752.4756,-0.027700,-0.010080,-0.086584,-0.030343,-0.015441,-0.086584,-1.086223,-0.722074,0.104328,2.906934,0.158931,-7.425644
1790548752.4895,-0.017774,0.005153,-0.076925,-0.021545,-0.001025,-0.076925,-1.280486,-0.998898,0.038764,2.830278,-0.435949,-8.007811
1790548752.5036,-0.007861,0.024394,-0.081337,-0.011966,0.016768,-0.081337,-1.322981,-0.847131,-0.238060,1.527127,1.423051,-6.688231
1790548752.5176,-0.031050,0.018011,-0.074050,-0.025325,0.017638,-0.074050,0.175271,1.646717,-0.650869,2.561982,-2.443668,-11.927742
1790548752.5309,-0.008904,0.008520,-0.014168,-0.013830,0.011256,-0.014168,0.975390,-0.872628,-0.992043,-8.016541,4.174371,-9.094525
1790548752.5461,-0.003670,0.012335,-0.037908,-0.006718,0.012011,-0.037908,0.079353,-0.253415,-0.915552,0.453943,2.947431,-5.135783
1790548752.5607,-0.005677,0.005115,-0.052815,-0.005989,0.007184,-0.052815,0.571081,0.204316,-0.899768,0.760567,1.311511,-6.494175
1790548752.5755,0.002055,-0.004075,-0.066856,-0.000358,-0.000697,-0.066856,0.600220,-0.395470,-0.958047,0.415615,0.976891,-11.500819
1790548752.5904,0.003993,-0.006701,-0.086903,0.002688,-0.004900,-0.086903,0.350107,-0.026371,-1.198447,0.837223,2.761531,-8.784035
1790548752.6053,-0.007080,-0.000631,-0.112236,-0.004150,-0.001911,-0.112236,-0.203542,0.750680,-1.193590,2.140375,3.096151,-8.589979
1790548752.6193,-0.017629,0.007515,-0.132857,-0.013585,0.004687,-0.132857,-0.334669,0.819886,-1.011469,1.067191,2.761531,-6.921098
1790548752.6332,-0.019047,0.007218,-0.148705,-0.017409,0.006459,-0.148705,0.046571,0.375510,-0.766212,-1.232488,1.237151,-9.327392
1790548752.6475,-0.022170,0.009306,-0.162009,-0.020741,0.008452,-0.162009,0.019860,0.401007,-0.644798,-0.389272,2.612811,-8.318301
1790548752.6618,-0.036095,0.015291,-0.167343,-0.031489,0.013239,-0.167343,-0.258178,0.930373,-0.484531,1.872079,2.612811,-8.240679
1790548752.6758,-0.017656,-0.000045,-0.173364,-0.021806,0.003940,-0.173364,0.924396,-1.174949,-0.230776,-1.807408,-1.216729,-18.603266
1790548752.6899,-0.009892,-0.013290,-0.167654,-0.013466,-0.008121,-0.167654,1.210934,-0.702648,0.162606,1.795423,4.397451,-8.473546
1790548752.7042,-0.025498,-0.012928,-0.168528,-0.021888,-0.011486,-0.168528,0.238406,1.032361,0.282806,1.488799,7.371850,-14.877392
1790548752.7182,-0.020585,-0.011642,-0.181329,-0.020976,-0.011595,-0.181329,-0.148905,-0.146571,0.508637,-4.260399,1.497411,-15.575993
1790548752.7324,-0.015276,-0.006518,-0.173595,-0.016986,-0.008041,-0.173595,-0.394162,-0.400326,0.956655,-1.002520,1.980751,-12.820399
1790548752.7467,-0.010854,-0.002175,-0.161951,-0.012693,-0.003935,-0.161951,-0.402661,-0.406397,1.039217,-0.120976,0.530731,-7.231588
1790548752.7607,-0.011254,0.000031,-0.143355,-0.011686,-0.001159,-0.143355,-0.303101,-0.180567,1.194627,0.875551,0.233291,-9.987182
1790548752.7749,-0.006401,-0.002573,-0.134085,-0.007986,-0.002149,-0.134085,-0.011707,-0.345690,1.139991,-1.385800,-0.398769,-8.589979
1790548752.7892,-0.003771,-0.004691,-0.126952,-0.005035,-0.003928,-0.126952,-0.051774,-0.184209,0.843740,-1.270816,-0.844929,-11.112707
1790548752.8032,-0.003745,-0.007240,-0.121522,-0.004132,-0.006246,-0.121522,-0.033562,0.057405,0.666475,-1.692424,-1.179549,-11.073895
1790548752.8175,-0.014719,-0.014205,-0.117430,-0.011543,-0.011817,-0.117430,0.265117,0.676618,0.637336,0.645583,-1.439808,-11.345574
1790548752.8320,-0.022554,-0.023014,-0.111207,-0.019251,-0.019655,-0.111207,0.469093,0.481141,0.711399,0.185647,-0.175689,-8.628791
1790548752.8457,-0.033510,-0.033463,-0.105365,-0.029232,-0.029321,-0.105365,0.630574,0.681474,0.736896,0.913879,-0.026969,-8.706413
1790548752.8594,-0.045834,-0.034568,-0.090715,-0.040853,-0.032994,-0.090715,0.153416,0.771321,0.668904,1.143847,1.832031,-7.386832
1790548752.8735,-0.044110,-0.029596,-0.079550,-0.043133,-0.030616,-0.079550,-0.383235,-0.096791,0.588770,-0.504256,1.608951,-12.354665
1790548752.8874,-0.040947,-0.019998,-0.076019,-0.041603,-0.023183,-0.076019,-0.804542,-0.254629,0.413934,0.492271,0.233291,-12.121798
1790548752.9015,-0.037169,-0.011344,-0.074471,-0.038499,-0.014895,-0.074471,-0.755976,-0.403969,0.307089,1.833751,-0.212869,-9.831937
1790548752.9156,-0.034288,-0.003590,-0.071486,-0.035552,-0.006982,-0.071486,-0.700126,-0.417324,0.202673,2.715294,-0.398769,-8.822846
1790548752.9296,-0.022428,0.009758,-0.069432,-0.026365,0.004736,-0.069432,-0.989092,-1.014682,0.135895,1.872079,1.051251,-8.163056
1790548752.9436,-0.012384,0.028663,-0.064125,-0.016579,0.021485,-0.064125,-1.381260,-0.983115,0.073974,2.791950,1.051251,-7.425644
1790548752.9576,-0.016564,0.040251,-0.064028,-0.016568,0.034621,-0.064028,-0.930813,0.166678,-0.038941,3.251886,0.605091,-13.984735
1790548752.9715,-0.022681,0.032465,-0.064646,-0.020847,0.033112,-0.064646,0.477592,0.683903,-0.733430,-1.424128,0.307651,-17.555364
1790548752.9856,0.001181,0.031933,-0.040296,-0.005428,0.032287,-0.040296,0.399887,-1.178591,-1.305291,-3.340527,4.769251,-6.571797
1790548752.9995,0.018491,0.025205,-0.045939,0.011316,0.027329,-0.045939,0.552869,-0.848345,-0.938620,-2.803935,1.980751,-8.240679
1790548753.0135,0.010661,0.013497,-0.058313,0.010858,0.017646,-0.058313,0.881901,0.657191,-0.803851,0.338959,0.976891,-4.864105
1790548753.0275,0.018128,0.007421,-0.068112,0.015947,0.010489,-0.068112,0.461808,-0.337191,-0.875485,-1.079176,2.278191,-13.441378
1790548753.0414,0.017830,0.005396,-0.086456,0.017265,0.006924,-0.086456,0.154630,0.016124,-1.006612,2.983590,2.017931,-13.674245
1790548753.0553,0.010315,0.004989,-0.103381,0.012400,0.005570,-0.103381,0.102422,0.636551,-1.107386,1.182175,2.315371,-10.336483
1790548753.0691,0.002955,0.011645,-0.116560,0.005789,0.009822,-0.116560,-0.314029,0.766464,-1.035752,-0.465928,2.315371,-6.532986
1790548753.0832,-0.001907,0.013097,-0.131841,0.000401,0.012115,-0.131841,-0.101554,0.638979,-0.886412,-1.194160,0.790991,-6.727042
1790548753.0973,-0.009988,0.011539,-0.143163,-0.006871,0.011712,-0.143163,0.164343,0.779820,-0.761356,-0.657568,1.683311,-9.094525
1790548753.1112,-0.012128,0.011430,-0.149494,-0.010551,0.011515,-0.149494,0.045357,0.335444,-0.449321,-0.925864,1.534591,-8.667602
1790548753.1253,-0.006761,-0.000187,-0.155071,-0.007898,0.003324,-0.155071,0.765344,-0.349332,-0.200422,0.415615,0.828171,-14.605714
1790548753.1392,-0.004101,-0.009792,-0.146965,-0.005240,-0.005857,-0.146965,0.844263,-0.242488,0.064261,0.913879,3.542311,-10.025993
1790548753.1533,0.002316,-0.019243,-0.134173,0.000049,-0.015227,-0.134173,0.900113,-0.469532,0.332586,-0.197632,4.137191,-8.589979
1790548753.1672,-0.003948,-0.021511,-0.124709,-0.002749,-0.019626,-0.124709,0.201982,0.357298,0.496495,1.335487,3.170511,-16.507462
1790548753.1812,-0.001592,-0.014803,-0.113862,-0.001939,-0.016250,-0.113862,-0.416017,-0.180567,0.776962,-1.270816,3.691031,-14.644525
1790548753.1951,0.001149,-0.016726,-0.110153,0.000223,-0.016583,-0.110153,-0.055416,-0.331120,1.048930,0.223975,-0.770569,-8.240679
1790548753.2090,-0.005018,-0.018453,-0.101814,-0.003446,-0.017892,-0.101814,-0.060273,0.212815,1.164274,0.952207,-0.510309,-6.067252
1790548753.2230,-0.004446,-0.020979,-0.094923,-0.004146,-0.020053,-0.094923,0.092709,0.070761,1.027076,-1.922392,0.307651,-6.261308
1790548753.2370,-0.005632,-0.023838,-0.094936,-0.005186,-0.022703,-0.094936,0.047786,0.101114,0.684688,-1.040848,-0.659029,-10.297672
1790548753.2510,-0.009895,-0.027227,-0.098391,-0.008482,-0.025869,-0.098391,0.063569,0.388866,0.460071,-1.807408,-1.253909,-11.384385
1790548753.2650,-0.017497,-0.032848,-0.103028,-0.014793,-0.030754,-0.103028,0.228693,0.538206,0.446716,-0.159304,-1.179549,-11.267951
1790548753.2790,-0.026283,-0.040607,-0.102703,-0.022836,-0.037651,-0.102703,0.444810,0.603769,0.490425,0.185647,-0.175689,-9.560259
1790548753.2927,-0.037215,-0.051007,-0.104231,-0.032901,-0.047000,-0.104231,0.625717,0.747038,0.526849,0.683911,-0.510309,-9.210958
1790548753.3062,-0.046827,-0.060140,-0.099779,-0.042649,-0.056198,-0.099779,0.591721,0.715470,0.478283,0.108991,0.121751,-9.482637
1790548753.3202,-0.044930,-0.059651,-0.080688,-0.044246,-0.058615,-0.080688,-0.020206,-0.056724,0.467356,-0.964192,1.571771,-10.996273
1790548753.3348,-0.039047,-0.051163,-0.071706,-0.040606,-0.053398,-0.071706,-0.595710,-0.385757,0.343514,-0.005993,1.199971,-11.539630
1790548753.3490,-0.038693,-0.046674,-0.080919,-0.039267,-0.048692,-0.080919,-0.458512,-0.181781,0.297376,2.753622,-0.807749,-10.957462
1790548753.3630,-0.030240,-0.040435,-0.086474,-0.032948,-0.042912,-0.086474,-0.548358,-0.781567,0.228170,2.676966,-0.175689,-9.560259
1790548753.3772,-0.019309,-0.029587,-0.089982,-0.023401,-0.033585,-0.089982,-0.853108,-0.941834,0.206316,2.178703,0.121751,-8.667602
1790548753.3913,-0.012590,-0.015064,-0.091320,-0.015834,-0.020620,-0.091320,-1.140860,-0.720860,0.133467,3.251886,-0.250049,-8.512357
1790548753.4053,-0.000110,0.003345,-0.092666,-0.004827,-0.003845,-0.092666,-1.397043,-1.086317,0.150465,2.408670,0.233291,-8.667602
1790548753.4193,0.012713,0.026191,-0.082956,0.007451,0.017180,-0.082956,-1.734575,-1.257511,0.241526,3.136902,0.233291,-6.765853
1790548753.4333,-0.001968,0.027950,-0.083751,0.000858,0.024719,-0.083751,-0.304316,1.056644,-0.331549,2.178703,-1.960328,-17.632987
1790548753.4473,-0.001073,0.025970,-0.042663,-0.000494,0.025595,-0.042663,0.180127,0.388866,-0.729788,-5.103614,2.055111,-11.539630
1790548753.4613,0.018847,0.027537,-0.002960,0.013045,0.026955,-0.002960,0.210481,-0.834989,-0.990829,-5.218598,4.583351,-5.407462
1790548753.4753,0.023184,0.024919,-0.009239,0.020143,0.025530,-0.009239,0.273616,0.098686,-0.803851,-1.232488,0.828171,-2.807112
1790548753.4894,0.033600,0.013473,-0.024939,0.029563,0.017090,-0.024939,0.789626,-0.334763,-0.738287,-2.918919,0.716631,-6.028441
1790548753.5035,0.042644,0.002735,-0.039436,0.038720,0.007042,-0.039436,0.726491,-0.544809,-0.824491,0.147319,1.199971,-11.267951
1790548753.5176,0.041139,-0.002176,-0.060615,0.040413,0.000590,-0.060615,0.448452,0.147252,-1.272510,1.987063,3.207691,-9.754315
1790548753.5312,0.031801,0.000112,-0.073636,0.034385,0.000256,-0.073636,-0.029919,0.756751,-1.081889,1.220503,3.393591,-9.249770
1790548753.5448,0.024441,0.002856,-0.082687,0.027424,0.002076,-0.082687,-0.090627,0.664476,-0.972616,0.300631,2.538451,-8.279490
1790548753.5588,0.022418,0.000636,-0.091162,0.023920,0.001068,-0.091162,0.197125,0.282022,-0.788067,-0.235960,1.646131,-8.551168
1790548753.5727,0.016029,0.001137,-0.096664,0.018396,0.001116,-0.096664,0.046571,0.645050,-0.718861,-1.040848,2.538451,-10.064805
1790548753.5871,0.004064,0.004761,-0.099847,0.008364,0.003668,-0.099847,-0.111267,0.918232,-0.545238,0.300631,3.393591,-9.715504
1790548753.6011,0.017643,-0.009847,-0.111500,0.014859,-0.005793,-0.111500,0.964463,-0.847131,-0.344905,-1.692424,0.233291,-15.032637
1790548753.6152,0.011496,-0.016940,-0.119437,0.012505,-0.013596,-0.119437,0.812695,0.261381,0.069117,2.676966,5.735931,-7.891378
1790548753.6292,-0.002948,-0.014572,-0.119757,0.001688,-0.014279,-0.119757,-0.199899,0.914590,0.309518,2.293686,1.274331,-14.295224
1790548753.6432,-0.000126,-0.011829,-0.116387,0.000418,-0.012564,-0.116387,-0.270320,-0.162354,0.705328,-2.343999,0.790991,-13.945924
1790548753.6571,-0.000505,-0.009154,-0.103467,-0.000228,-0.010177,-0.103467,-0.221754,-0.067651,0.940871,-0.120976,1.274331,-9.870749
1790548753.6711,-0.003008,-0.011328,-0.097879,-0.002174,-0.010983,-0.097879,0.041715,0.180034,1.099924,-1.424128,0.121751,-7.697322
1790548753.6850,-0.003510,-0.015447,-0.087576,-0.003109,-0.014108,-0.087576,0.189840,-0.006944,1.205554,-1.002520,0.233291,-7.464455
1790548753.6989,0.001291,-0.019270,-0.092239,-0.000029,-0.017721,-0.092239,0.090281,-0.243702,0.821886,-2.535639,-0.919289,-8.551168
1790548753.7129,-0.004209,-0.023443,-0.093794,-0.002955,-0.021726,-0.093794,0.157058,0.348799,0.741752,-0.389272,-0.547489,-10.918651
1790548753.7269,-0.012570,-0.029152,-0.093361,-0.009686,-0.026924,-0.093361,0.285757,0.560060,0.712613,-0.235960,-0.287229,-10.685784
1790548753.7409,-0.022050,-0.037605,-0.090625,-0.018341,-0.034401,-0.090625,0.487305,0.608626,0.821886,0.262303,-0.138509,-10.297672
1790548753.7545,-0.032179,-0.048131,-0.089631,-0.028027,-0.044012,-0.089631,0.652428,0.654763,0.768463,0.760567,-0.175689,-9.210958
1790548753.7682,-0.043131,-0.056230,-0.081091,-0.038600,-0.052564,-0.081091,0.540727,0.755537,0.699257,0.492271,0.716631,-9.870749
1790548753.7819,-0.041396,-0.055057,-0.065957,-0.040557,-0.054309,-0.065957,-0.093055,-0.093148,0.534134,-0.504256,1.423051,-11.462007
1790548753.7957,-0.039414,-0.047137,-0.065512,-0.039757,-0.049289,-0.065512,-0.639419,-0.236417,0.429718,1.757095,0.530731,-11.927742
1790548753.8096,-0.040228,-0.041179,-0.072810,-0.040087,-0.043612,-0.072810,-0.568999,-0.133215,0.441859,3.481854,-0.696209,-11.850119
1790548753.8238,-0.034277,-0.034194,-0.078599,-0.036020,-0.037020,-0.078599,-0.627277,-0.605516,0.350798,3.060246,-0.584669,-10.608161
1790548753.8381,-0.023434,-0.022064,-0.079620,-0.027210,-0.026550,-0.079620,-0.922314,-0.955189,0.318017,2.485326,0.344831,-8.279490
1790548753.8521,-0.014585,-0.006668,-0.078415,-0.018373,-0.012633,-0.078415,-1.186997,-0.882341,0.319231,2.715294,0.233291,-7.425644
1790548753.8660,-0.000594,0.011982,-0.076050,-0.005927,0.004598,-0.076050,-1.416470,-1.236870,0.354441,2.063719,0.382011,-6.921098
1790548753.8799,0.013804,0.033235,-0.070155,0.007884,0.024644,-0.070155,-1.616803,-1.317004,0.393293,2.332014,0.382011,-7.037532
1790548753.8939,-0.001183,0.029042,-0.066885,0.001537,0.027723,-0.066885,0.073283,1.082141,-0.342477,2.868606,-4.079588,-19.301868
1790548753.9078,-0.003309,0.027935,-0.048421,-0.001855,0.027872,-0.048421,0.114563,0.479927,-0.671509,-2.918919,1.906391,-10.685784
1790548753.9218,0.011906,0.028226,-0.044990,0.007778,0.028120,-0.044990,0.198339,-0.977044,-0.800208,0.300631,3.876931,-7.425644
1790548753.9358,0.000774,0.021265,-0.064838,0.002875,0.023321,-0.064838,0.534657,0.720327,-0.620515,0.875551,0.530731,-2.651867
1790548753.9496,0.012913,0.012408,-0.059121,0.009901,0.015682,-0.059121,0.692495,-0.632227,-0.689721,-2.229015,2.352551,-11.035084
1790548753.9636,0.023160,0.005495,-0.072325,0.019182,0.008551,-0.072325,0.486091,-0.688078,-0.756499,0.952207,1.237151,-9.987182
1790548753.9776,0.021902,-0.001764,-0.092082,0.021086,0.001330,-0.092082,0.594150,0.184890,-1.196019,0.990535,1.980751,-7.774944
1790548753.9912,0.017862,-0.001649,-0.104000,0.018829,-0.000755,-0.104000,0.153416,0.413149,-1.033324,0.453943,2.761531,-7.153965
1790548754.0048,0.013714,-0.001751,-0.117429,0.015248,-0.001452,-0.117429,0.034430,0.473856,-1.028467,-0.159304,1.385871,-8.706413
1790548754.0188,0.010718,-0.005309,-0.128119,0.012077,-0.004152,-0.128119,0.259046,0.371868,-0.857273,-0.350944,1.125611,-9.482637
1790548754.0329,0.004087,-0.005051,-0.136253,0.006484,-0.004782,-0.136253,0.103636,0.575844,-0.701863,0.185647,3.244871,-10.491728
1790548754.0469,-0.004884,-0.001280,-0.143187,-0.001474,-0.002331,-0.143187,-0.130693,0.730040,-0.599875,0.300631,3.207691,-9.599070
1790548754.0610,0.002283,-0.009196,-0.145381,0.001156,-0.007136,-0.145381,0.531014,-0.345690,-0.476032,-2.458983,1.088431,-18.331588
1790548754.0749,0.001983,-0.012993,-0.142409,0.001735,-0.011236,-0.142409,0.392602,0.136324,-0.239275,-1.155832,3.430771,-10.957462
1790548754.0895,0.000411,-0.004971,-0.128313,0.000808,-0.006851,-0.128313,-0.469439,0.337872,0.213600,-4.183743,2.761531,-9.637881
1790548754.1036,0.004367,-0.004176,-0.121182,0.003299,-0.004978,-0.121182,-0.158619,-0.241274,0.634908,-2.075704,0.047391,-11.500819
1790548754.1178,-0.000026,-0.007289,-0.111490,0.000972,-0.006595,-0.111490,0.184984,0.110827,0.911732,0.837223,0.642271,-5.485084
1790548754.1324,-0.004076,-0.012800,-0.099627,-0.002562,-0.010939,-0.099627,0.249333,0.215244,1.070785,-0.887536,-0.250049,-9.521448
1790548754.1464,-0.002020,-0.015843,-0.083466,-0.002183,-0.014372,-0.083466,0.119420,-0.095577,0.990651,-2.152360,0.158931,-8.473546
1790548754.1604,-0.001198,-0.020060,-0.085739,-0.001493,-0.018354,-0.085739,0.090281,-0.084649,0.653120,-0.695896,-1.848788,-10.646972
1790548754.1743,-0.011171,-0.024769,-0.089222,-0.008268,-0.022845,-0.089222,0.175271,0.611054,0.633694,0.875551,-1.030829,-10.181238
1790548754.1882,-0.017450,-0.031213,-0.082016,-0.014695,-0.028702,-0.082016,0.376818,0.410721,0.677403,-0.082648,0.196111,-9.405014
1790548754.2022,-0.028931,-0.041487,-0.082123,-0.024660,-0.037652,-0.082123,0.622075,0.681474,0.708970,1.680439,-0.212869,-10.530539
1790548754.2158,-0.034500,-0.050888,-0.074290,-0.031548,-0.046917,-0.074290,0.596578,0.371868,0.698043,0.185647,0.084571,-9.133336
1790548754.2295,-0.039192,-0.056007,-0.068382,-0.036899,-0.053280,-0.068382,0.308826,0.279593,0.627623,0.875551,0.493551,-10.685784
1790548754.2435,-0.038741,-0.052676,-0.056115,-0.038188,-0.052857,-0.056115,-0.260606,-0.020300,0.507423,-0.159304,1.014071,-9.793126
1790548754.2575,-0.037700,-0.044951,-0.053690,-0.037846,-0.047323,-0.053690,-0.611494,-0.118645,0.371439,0.760567,0.419191,-9.560259
1790548754.2715,-0.035421,-0.037223,-0.061796,-0.036149,-0.040253,-0.061796,-0.670987,-0.294696,0.233027,2.485326,-0.584669,-10.957462
1790548754.2854,-0.024335,-0.029262,-0.067866,-0.027879,-0.032560,-0.067866,-0.673415,-0.964902,0.235455,2.791950,-0.101329,-10.841028
1790548754.2993,-0.021465,-0.017841,-0.071996,-0.023389,-0.022257,-0.071996,-0.911387,-0.486530,0.258524,4.440053,-0.101329,-9.405014
1790548754.3133,-0.011611,-0.003807,-0.074926,-0.015144,-0.009342,-0.074926,-1.088651,-0.930906,0.233027,2.715294,0.158931,-7.813756
1790548754.3275,0.002186,0.015366,-0.074168,-0.003013,0.007954,-0.074168,-1.399472,-1.245369,0.274307,2.332014,0.642271,-5.950818
1790548754.3419,0.013286,0.036525,-0.072890,0.008396,0.027953,-0.072890,-1.517244,-1.015896,0.256095,2.255358,0.679451,-6.649420
1790548754.3562,-0.005040,0.023742,-0.075799,-0.001009,0.025005,-0.075799,0.817552,1.282475,-0.060796,1.872079,0.530731,-21.281238
1790548754.3702,-0.001775,0.016067,-0.074765,-0.001545,0.018749,-0.074765,0.668212,-0.048225,-0.681222,-1.270816,4.955151,-14.993826
1790548754.3845,0.007157,0.019390,-0.032474,0.004546,0.019198,-0.032474,0.148559,-0.418538,-0.678794,-0.810880,4.806431,-4.708860
1790548754.3986,0.015382,0.009566,-0.024738,0.012131,0.012455,-0.024738,0.680354,-0.237631,-0.768641,-2.497311,0.642271,-6.843476
1790548754.4126,0.028719,-0.006023,-0.024991,0.023743,-0.000479,-0.024991,1.110160,-0.752428,-0.636299,-1.347472,0.939711,-7.425644
1790548754.4266,0.041340,-0.013976,-0.033392,0.036061,-0.009927,-0.033392,0.634216,-0.815563,-0.779568,0.032335,2.538451,-10.414105
1790548754.4406,0.035727,-0.017186,-0.056612,0.035827,-0.015009,-0.056612,0.311254,0.375510,-1.038180,2.638638,2.947431,-10.336483
1790548754.4543,0.032693,-0.017616,-0.067077,0.033633,-0.016834,-0.067077,0.127919,0.379153,-0.938620,-0.657568,2.910251,-10.103616
1790548754.4678,0.028726,-0.018026,-0.075930,0.030198,-0.017669,-0.075930,0.075711,0.467785,-0.846346,-0.964192,1.832031,-9.327392
1790548754.4818,0.020535,-0.016215,-0.082598,0.023434,-0.016651,-0.082598,0.028359,0.765250,-0.745572,-0.925864,2.687171,-6.882287
1790548754.4959,0.012107,-0.014118,-0.090261,0.015505,-0.014878,-0.090261,-0.049346,0.754323,-0.684865,-0.810880,2.538451,-9.172147
1790548754.5099,-0.001141,-0.011268,-0.097571,0.003853,-0.012351,-0.097571,-0.112481,1.049359,-0.544024,-0.082648,2.203831,-8.667602
1790548754.5239,0.008545,-0.020149,-0.101766,0.007137,-0.017810,-0.101766,0.594150,-0.536310,-0.340048,-2.727279,0.828171,-16.623896
1790548754.5379,0.002128,-0.026514,-0.099426,0.003631,-0.023903,-0.099426,0.518873,0.493282,0.046049,-0.427600,3.244871,-15.149070
1790548754.5519,-0.000386,-0.017468,-0.094571,0.000819,-0.019399,-0.094571,-0.594496,0.384009,0.350798,-3.723807,2.129471,-9.327392
1790548754.5659,0.001761,-0.017378,-0.089572,0.001478,-0.017984,-0.089572,-0.140406,-0.261914,0.827956,0.338959,-0.510309,-10.375294
1790548754.5800,-0.005097,-0.023297,-0.084540,-0.003124,-0.021704,-0.084540,0.259046,0.357298,0.990651,0.377287,-0.696209,-7.580888
1790548754.5945,-0.005358,-0.022202,-0.062142,-0.004688,-0.022052,-0.062142,-0.103982,0.056191,1.223767,-2.650623,1.348691,-9.560259
1790548754.6085,-0.003578,-0.026057,-0.053882,-0.003911,-0.024856,-0.053882,0.109707,-0.087078,1.040431,-2.343999,-0.919289,-9.793126
1790548754.6233,-0.007612,-0.031444,-0.049673,-0.006501,-0.029468,-0.049673,0.212909,0.258953,0.821886,-1.079176,-0.993649,-10.646972
1790548754.6391,-0.016092,-0.038237,-0.039822,-0.013215,-0.035606,-0.039822,0.352535,0.481141,0.853453,-0.120976,0.233291,-10.142427
1790548754.6544,-0.024667,-0.047628,-0.027910,-0.021231,-0.044022,-0.027910,0.537085,0.481141,0.966368,0.262303,0.382011,-9.172147
1790548754.6685,-0.031912,-0.055713,-0.016606,-0.028708,-0.052206,-0.016606,0.488519,0.467785,0.939657,0.032335,0.270471,-8.628791
1790548754.6833,-0.038125,-0.059355,-0.004271,-0.035300,-0.057210,-0.004271,0.194697,0.376725,0.802459,0.300631,0.828171,-10.608161
1790548754.6970,-0.037957,-0.057870,0.006444,-0.037160,-0.057672,0.006444,-0.152548,-0.010587,0.628837,-0.159304,0.790991,-10.142427
1790548754.7109,-0.038218,-0.053821,0.008053,-0.037901,-0.054976,0.008053,-0.363809,-0.050653,0.452786,1.143847,0.270471,-10.064805
1790548754.7249,-0.037390,-0.049364,0.003759,-0.037543,-0.051048,0.003759,-0.416017,-0.187851,0.367796,2.293686,-0.212869,-10.569350
1790548754.7390,-0.030539,-0.042851,0.000272,-0.032640,-0.045310,0.000272,-0.527718,-0.656510,0.275522,3.136902,0.344831,-10.841028
1790548754.7529,-0.021949,-0.031245,-0.002972,-0.025156,-0.035464,-0.002972,-0.877391,-0.827704,0.180819,3.366870,0.605091,-9.249770
1790548754.7670,-0.011921,-0.015300,-0.004697,-0.015891,-0.021349,-0.004697,-1.182140,-0.923622,0.211172,2.676966,0.530731,-7.774944
1790548754.7812,0.000435,0.001487,-0.004345,-0.004463,-0.005364,-0.004345,-1.285342,-1.120313,0.292520,2.485326,-0.064149,-6.688231
1790548754.7952,0.013515,0.019217,-0.002504,0.008122,0.011843,-0.002504,-1.393401,-1.159165,0.301019,2.025391,-0.250049,-7.037532
1790548754.8091,0.009569,0.027671,-0.006960,0.009135,0.022922,-0.006960,-0.670987,0.139967,0.072760,1.948735,0.530731,-8.357112
1790548754.8231,0.004319,0.017242,0.028558,0.005764,0.018946,0.028558,0.880687,0.748252,-0.442036,-5.755190,4.434631,-11.811308
1790548754.8373,0.017782,0.016443,0.040855,0.014176,0.017194,0.040855,0.341608,-0.632227,-0.988400,-3.340527,7.297490,-10.375294
1790548754.8521,0.023577,0.018177,0.045029,0.020757,0.017882,0.045029,0.231121,-0.168425,-0.686079,-1.194160,4.211551,-4.243126
1790548754.8664,0.032096,0.007445,0.037861,0.028694,0.010576,0.037861,0.775057,-0.316551,-0.584091,-3.033903,1.646131,-8.784035
1790548754.8804,0.044386,-0.005609,0.028822,0.039679,-0.000753,0.028822,0.909826,-0.724502,-0.712790,-1.194160,1.125611,-10.491728
1790548754.8947,0.051332,-0.009837,0.023985,0.047836,-0.007112,0.023985,0.433883,-0.340833,-0.977473,-0.465928,3.282051,-8.163056
1790548754.9084,0.046661,-0.011332,0.014817,0.047014,-0.010066,0.014817,0.220194,0.358512,-0.950762,1.488799,3.207691,-9.133336
1790548754.9221,0.039283,-0.009257,0.006408,0.041602,-0.009500,0.006408,0.008933,0.683903,-0.942263,-0.350944,3.393591,-7.891378
1790548754.9362,0.036665,-0.011807,-0.002976,0.038146,-0.011115,-0.002976,0.220194,0.330587,-0.718861,-0.887536,2.055111,-10.025993
1790548754.9502,0.030390,-0.011747,-0.009311,0.032717,-0.011558,-0.009311,0.130347,0.591628,-0.653297,-0.925864,3.505131,-9.599070
1790548754.9642,0.017164,-0.010883,-0.013323,0.021830,-0.011085,-0.013323,0.035644,0.995937,-0.502743,0.377287,2.761531,-9.637881
1790548754.9782,0.013160,-0.008001,-0.026443,0.015761,-0.008926,-0.026443,-0.219326,0.453216,-0.346119,-3.647151,2.278191,-20.970749
1790548754.9922,0.009528,-0.017686,-0.030727,0.011398,-0.015058,-0.030727,0.640287,0.294163,0.129825,-1.232488,1.014071,-21.281238
1790548755.0063,0.005333,-0.012269,-0.030805,0.007153,-0.013106,-0.030805,-0.264249,0.453216,0.358083,-3.455511,3.876931,-10.569350
1790548755.0202,0.000278,-0.011333,-0.050491,0.002340,-0.011865,-0.050491,-0.338312,0.130254,0.538990,2.140375,-1.997508,-6.688231
1790548755.0342,-0.004691,-0.021218,-0.054975,-0.002581,-0.018412,-0.054975,0.473949,0.218886,0.787890,0.530599,-1.179549,-5.523895
1790548755.0482,-0.011708,-0.028203,-0.044465,-0.008970,-0.025266,-0.044465,0.435097,0.302662,0.902019,1.642111,0.493551,-8.240679
1790548755.0621,-0.013759,-0.032445,-0.031849,-0.012322,-0.030291,-0.031849,0.232335,0.203102,0.995508,-2.382327,0.605091,-10.414105
1790548755.0760,-0.011102,-0.036940,-0.024407,-0.011468,-0.034946,-0.024407,0.217765,-0.128358,0.791532,-2.382327,-0.101329,-11.772497
1790548755.0900,-0.017063,-0.044058,-0.020838,-0.015384,-0.041325,-0.020838,0.381675,0.370654,0.797603,0.108991,-0.584669,-11.384385
1790548755.1044,-0.028411,-0.050394,-0.011293,-0.024503,-0.047673,-0.011293,0.375604,0.662048,0.870451,1.220503,0.493551,-9.016902
1790548755.1184,-0.033974,-0.062066,-0.002430,-0.031132,-0.057748,-0.002430,0.733776,0.306304,0.915375,0.760567,0.047391,-8.822846
1790548755.1324,-0.040689,-0.073757,0.005002,-0.037822,-0.068954,0.005002,0.722849,0.387652,0.866809,1.067191,-0.212869,-9.055714
1790548755.1461,-0.047956,-0.076215,0.016673,-0.044916,-0.074037,0.016673,0.161915,0.513923,0.682259,0.338959,1.125611,-10.181238
1790548755.1597,-0.046614,-0.073298,0.027657,-0.046104,-0.073520,0.027657,-0.215683,-0.061581,0.496495,-0.350944,1.237151,-10.181238
1790548755.1739,-0.044712,-0.068051,0.029876,-0.045129,-0.069692,0.029876,-0.420873,-0.153855,0.292520,0.837223,0.344831,-11.772497
1790548755.1880,-0.040627,-0.062549,0.027733,-0.041978,-0.064692,0.027733,-0.481580,-0.442821,0.157750,3.405198,-0.547489,-11.112707
1790548755.2019,-0.034489,-0.053387,0.030007,-0.036736,-0.056779,0.030007,-0.683128,-0.601874,0.149251,3.213558,0.679451,-10.258860
1790548755.2158,-0.029578,-0.040017,0.032684,-0.031725,-0.045045,0.032684,-1.041300,-0.587304,0.191746,3.405198,-0.138509,-7.813756
1790548755.2298,-0.018978,-0.024007,0.033540,-0.022802,-0.030319,0.033540,-1.269559,-0.921193,0.211172,1.833751,-0.398769,-6.843476
1790548755.2437,-0.005839,-0.003823,0.035839,-0.010928,-0.011772,0.035839,-1.567023,-1.138525,0.197817,2.025391,-0.287229,-6.571797
1790548755.2576,0.010542,0.021654,0.037320,0.004101,0.011626,0.037320,-1.931266,-1.329145,0.097043,1.718767,0.084571,-7.891378
1790548755.2717,0.021553,0.042514,0.033718,0.016317,0.033248,0.033718,-1.581593,-0.876270,-0.257487,2.830278,0.270471,-13.363756
1790548755.2856,0.006625,0.027936,0.027922,0.009533,0.029529,0.027922,0.909826,1.135563,-0.377687,1.220503,-1.476988,-21.281238
1790548755.2995,0.022865,0.020177,0.128933,0.018865,0.022983,0.128933,1.158726,-0.820419,-0.949548,-3.225543,9.751370,-0.711308
1790548755.3135,0.036157,0.023481,0.077237,0.030970,0.023332,0.077237,0.106064,-0.646797,-0.637513,-1.040848,2.092291,-1.953266
1790548755.3275,0.042062,0.011384,0.060797,0.038734,0.014968,0.060797,0.776271,-0.161140,-0.756499,-2.229015,0.196111,-8.861658
1790548755.3417,0.049949,0.001785,0.053193,0.046585,0.005740,0.053193,0.730133,-0.491387,-0.779568,0.530599,2.538451,-9.948371
1790548755.3560,0.047521,0.000938,0.042035,0.047240,0.002379,0.042035,0.154630,0.177605,-0.939835,1.987063,3.356411,-9.599070
1790548755.3696,0.037280,0.001341,0.031661,0.040268,0.001653,0.031661,0.053856,0.704543,-0.773497,2.753622,3.133331,-10.142427
1790548755.3834,0.031546,0.003444,0.017688,0.034162,0.002906,0.017688,-0.084556,0.626838,-0.809921,-1.462456,2.575631,-9.599070
1790548755.3975,0.022196,0.006807,0.005731,0.025786,0.005637,0.005731,-0.108839,0.817458,-0.777140,-0.427600,2.984611,-7.969000
1790548755.4115,0.014327,0.010380,-0.010362,0.017764,0.008957,-0.010362,-0.135550,0.813816,-0.735859,-1.884064,3.021791,-8.628791
1790548755.4254,0.003468,0.016470,-0.017999,0.007757,0.014216,-0.017999,-0.312815,0.913375,-0.497887,-0.312616,2.278191,-6.416553
1790548755.4393,0.017653,0.002740,-0.025906,0.014684,0.006183,-0.025906,0.929253,-0.911480,-0.306052,-1.270816,0.753811,-13.363756
1790548755.4532,0.021675,-0.006703,-0.016984,0.019578,-0.002837,-0.016984,0.894043,-0.357831,-0.014658,1.220503,5.215411,-9.909560
1790548755.4672,0.000161,-0.007604,-0.012495,0.005986,-0.006174,-0.012495,0.084210,1.471881,0.338657,1.335487,2.649991,-15.575993
1790548755.4811,0.003390,-0.006387,-0.017078,0.004169,-0.006323,-0.017078,-0.135550,-0.145356,0.547489,-3.417183,1.274331,-14.528091
1790548755.4952,0.004965,-0.003655,-0.004240,0.004726,-0.004455,-0.004240,-0.179259,-0.202421,0.927516,-0.312616,1.720491,-8.434735
1790548755.5091,0.001032,-0.006130,0.006469,0.002140,-0.005628,0.006469,0.008933,0.075617,1.079284,1.067191,-0.807749,-8.279490
1790548755.5232,0.004687,-0.007681,0.015380,0.003923,-0.007065,0.015380,0.034430,-0.297124,1.171558,-1.117504,0.419191,-6.377742
1790548755.5371,0.001942,-0.010154,0.018511,0.002536,-0.009227,0.018511,0.091495,0.193389,0.785461,-1.309144,0.270471,-10.025993
1790548755.5510,-0.003735,-0.013901,0.019167,-0.001854,-0.012499,0.019167,0.115778,0.356084,0.650692,-0.120976,-1.068009,-11.811308
1790548755.5649,-0.010511,-0.019653,0.023162,-0.007914,-0.017507,0.023162,0.313683,0.418005,0.631265,0.338959,-0.026969,-12.665154
1790548755.5790,-0.016358,-0.026277,0.029794,-0.013825,-0.023646,0.029794,0.408386,0.391294,0.738110,-0.504256,0.605091,-10.064805
1790548755.5927,-0.024254,-0.032666,0.038469,-0.021125,-0.029960,0.038469,0.404743,0.465357,0.736896,0.913879,0.567911,-8.822846
1790548755.6067,-0.030635,-0.035845,0.046346,-0.027782,-0.034080,0.046346,0.192269,0.422862,0.659191,0.032335,0.902531,-8.589979
1790548755.6203,-0.029149,-0.033943,0.053253,-0.028739,-0.033984,0.053253,-0.176831,-0.098005,0.588770,-0.619240,1.088431,-10.336483
1790548755.6343,-0.026427,-0.027362,0.055760,-0.027120,-0.029349,0.055760,-0.550786,-0.225490,0.399364,0.377287,0.233291,-11.384385
1790548755.6483,-0.025283,-0.021860,0.058298,-0.025834,-0.024106,0.058298,-0.501007,-0.198779,0.335015,2.102047,-0.324409,-11.539630
1790548755.6622,-0.023451,-0.014841,0.060254,-0.024166,-0.017621,0.060254,-0.616350,-0.267985,0.219671,2.293686,-0.361589,-9.948371
1790548755.6762,-0.014558,-0.003790,0.062195,-0.017440,-0.007939,0.062195,-0.855536,-0.760927,0.046049,2.140375,0.344831,-9.172147
1790548755.6902,-0.006305,0.013401,0.067076,-0.009646,0.006999,0.067076,-1.274415,-0.782781,0.003554,2.638638,0.642271,-7.464455
1790548755.7042,0.004941,0.031878,0.071352,0.000565,0.024414,0.071352,-1.383688,-0.980686,0.031479,2.370342,0.605091,-8.046623
1790548755.7181,-0.002187,0.039188,0.071350,-0.001362,0.034756,0.071350,-0.634562,0.376725,-0.014658,3.596838,-0.175689,-13.247322
1790548755.7320,-0.007293,0.027702,0.063162,-0.005514,0.029818,0.063162,0.749560,0.515137,-0.576806,-0.542584,0.121751,-19.146623
1790548755.7460,0.016095,0.024144,0.087712,0.009612,0.025846,0.087712,0.643929,-1.194375,-1.051536,-4.490366,5.810290,-4.359560
1790548755.7600,0.019565,0.022901,0.078764,0.016579,0.023785,0.078764,0.249333,-0.350546,-0.854845,2.332014,2.315371,-4.941727
1790548755.7739,0.020865,0.019212,0.064957,0.019579,0.020584,0.064957,0.359820,0.177605,-0.766212,-1.385800,1.794851,-5.601518
1790548755.7878,0.034152,0.009207,0.055227,0.029780,0.012620,0.055227,0.665784,-0.830133,-0.682436,-0.580912,0.679451,-10.957462
1790548755.8018,0.039122,-0.002573,0.045754,0.036319,0.001985,0.045754,0.846691,-0.242488,-0.720075,-0.427600,2.129471,-13.868301
1790548755.8159,0.039243,-0.003994,0.035462,0.038366,-0.002200,0.035462,0.197125,0.127825,-0.874271,-0.427600,3.505131,-10.918651
1790548755.8295,0.034462,0.000364,0.027000,0.035633,-0.000405,0.027000,-0.182901,0.496925,-0.688507,-0.734224,3.282051,-8.434735
1790548755.8433,0.023533,0.003816,0.015578,0.027163,0.002550,0.015578,-0.171974,0.964369,-0.694578,-0.925864,2.687171,-9.599070
1790548755.8577,0.012872,0.008119,0.005373,0.017159,0.006448,0.005373,-0.209613,0.893949,-0.561022,-0.964192,2.835891,-9.637881
1790548755.8719,0.004596,0.009553,-0.006164,0.008365,0.008622,-0.006164,-0.056631,0.753109,-0.511242,-1.232488,2.166651,-10.414105
1790548755.8858,0.009019,0.002337,-0.010661,0.008823,0.004223,-0.010661,0.466665,-0.265557,-0.012230,-0.964192,0.865351,-14.489280
1790548755.8997,0.015020,-0.008872,-0.007682,0.013161,-0.004943,-0.007682,0.919540,-0.338405,0.129825,-1.002520,1.869211,-5.446273
1790548755.9136,0.007472,-0.010243,0.007566,0.009178,-0.008653,0.007566,0.217765,0.377939,0.291305,2.676966,3.765391,-10.957462
1790548755.9276,0.002147,-0.009363,0.013607,0.004256,-0.009150,0.013607,-0.077271,0.335444,0.613053,-0.389272,2.092291,-15.808861
1790548755.9416,0.006849,-0.006819,0.025359,0.006071,-0.007518,0.025359,-0.140406,-0.376043,1.052573,-1.270816,2.166651,-8.434735
1790548755.9555,0.002105,-0.008497,0.038436,0.003295,-0.008203,0.038436,-0.008065,0.147252,1.223767,0.568927,-0.212869,-7.270399
1790548755.9695,-0.006096,-0.013135,0.052071,-0.003279,-0.011656,0.052071,0.166772,0.362155,1.269904,1.028863,-0.621849,-7.348021
1790548755.9836,-0.002380,-0.016548,0.059402,-0.002650,-0.015080,0.059402,0.192269,-0.253415,1.041645,-1.845736,0.939711,-8.861658
1790548755.9974,-0.004779,-0.018598,0.060214,-0.004140,-0.017543,0.060214,0.021074,0.173963,0.734467,-1.270816,-0.473129,-11.500819
1790548756.0114,-0.012001,-0.023778,0.059515,-0.009642,-0.021908,0.059515,0.226264,0.506638,0.610625,-0.695896,-0.993649,-12.315854
1790548756.0254,-0.017562,-0.029685,0.064350,-0.015186,-0.027352,0.064350,0.348893,0.362155,0.645835,-0.120976,0.382011,-10.336483
1790548756.0392,-0.024966,-0.037652,0.069012,-0.022032,-0.034562,0.069012,0.470307,0.452001,0.651906,0.837223,-0.212869,-9.909560
1790548756.0527,-0.030369,-0.044898,0.074518,-0.027868,-0.041798,0.074518,0.472735,0.359727,0.591199,0.262303,0.419191,-8.551168
1790548756.0663,-0.037212,-0.049060,0.080714,-0.034409,-0.046881,0.080714,0.271188,0.442288,0.497710,0.913879,0.828171,-10.025993
1790548756.0800,-0.037567,-0.048558,0.086376,-0.036620,-0.048055,0.086376,-0.056631,0.030694,0.432146,-0.044320,1.088431,-10.181238
1790548756.0939,-0.036479,-0.043968,0.091582,-0.036521,-0.045194,0.091582,-0.378378,-0.156284,0.378724,1.412143,0.605091,-10.452916
1790548756.1083,-0.036909,-0.037976,0.095802,-0.036793,-0.040141,0.095802,-0.485223,-0.084649,0.285235,2.140375,0.158931,-9.987182
1790548756.1224,-0.031777,-0.029674,0.101311,-0.033281,-0.032814,0.101311,-0.677057,-0.521741,0.262166,3.060246,-0.064149,-11.035084
1790548756.1365,-0.023846,-0.017165,0.105259,-0.026677,-0.021860,0.105259,-0.944168,-0.699005,0.101899,2.485326,0.419191,-9.637881
1790548756.1504,-0.014594,-0.002020,0.110990,-0.018219,-0.007972,0.110990,-1.150573,-0.849559,0.088544,2.830278,0.382011,-8.551168
1790548756.1643,-0.000911,0.016045,0.118058,-0.006104,0.008840,0.118058,-1.356977,-1.195589,0.076402,2.561982,0.493551,-7.153965
1790548756.1783,0.008500,0.034333,0.124651,0.004119,0.026685,0.124651,-1.373975,-0.894482,0.089758,2.600310,0.493551,-7.192776
1790548756.1922,0.001487,0.028418,0.120065,0.002277,0.027898,0.120065,0.341608,0.591628,-0.298768,-0.312616,0.307651,-21.281238
1790548756.2062,0.011770,0.019988,0.111803,0.008922,0.022361,0.111803,0.634216,-0.425823,-0.883984,-4.298727,2.947431,-15.692427
1790548756.2203,0.027700,0.022160,0.112880,0.022066,0.022221,0.112880,0.172842,-0.843488,-0.879128,-2.343999,5.735931,-6.261308
1790548756.2342,0.039771,0.019704,0.099524,0.034460,0.020459,0.099524,0.310040,-0.357831,-0.908267,-3.417183,1.906391,-3.971448
1790548756.2482,0.053853,0.006088,0.085094,0.048035,0.010399,0.085094,0.880687,-0.717217,-0.593804,-2.995575,0.047391,-7.774944
1790548756.2623,0.066286,-0.005260,0.079986,0.060811,-0.000562,0.079986,0.855190,-0.753642,-0.709148,-1.117504,2.501271,-10.220049
1790548756.2762,0.065671,-0.009855,0.080069,0.064213,-0.007067,0.080069,0.452095,0.046478,-0.898554,1.488799,3.653851,-9.016902
1790548756.2898,0.055949,-0.006224,0.079584,0.058428,-0.006477,0.079584,-0.101554,0.736111,-0.784424,1.105519,4.360271,-9.133336
1790548756.3035,0.047256,-0.000909,0.068397,0.050608,-0.002579,0.068397,-0.259392,0.845383,-0.786853,-1.424128,3.096151,-7.619700
1790548756.3175,0.046367,-0.005110,0.047301,0.047639,-0.004351,0.047301,0.259046,0.322088,-0.680008,-2.957247,0.976891,-10.181238
1790548756.3315,0.036952,-0.007236,0.043602,0.040158,-0.006370,0.043602,0.271188,0.807745,-0.462677,-1.079176,2.984611,-8.395923
1790548756.3456,0.025593,-0.004655,0.044702,0.029962,-0.005170,0.044702,-0.100340,0.832028,-0.224705,0.223975,3.021791,-10.879840
1790548756.3603,0.027255,-0.009655,0.038691,0.028067,-0.008309,0.038691,0.328252,-0.038512,-0.086293,-1.960720,2.129471,-18.525644
1790548756.3743,0.019648,-0.014853,0.041869,0.022174,-0.012890,0.041869,0.420527,0.541848,0.098257,-0.082648,3.988471,-19.146623
1790548756.3885,0.016192,-0.008454,0.045404,0.017987,-0.009785,0.045404,-0.405089,0.275951,0.513493,-1.539112,2.203831,-9.948371
1790548756.4027,0.012736,-0.010551,0.055976,0.014311,-0.010321,0.055976,0.081782,0.088973,0.866809,0.760567,0.344831,-8.589979
1790548756.4166,-0.000283,-0.017127,0.072761,0.004095,-0.015085,0.072761,0.371962,0.634123,1.033146,1.910407,-0.101329,-5.834385
1790548756.4306,-0.002584,-0.021571,0.075364,-0.000580,-0.019625,0.075364,0.284543,0.226171,1.091425,-1.999048,0.902531,-6.843476
1790548756.4446,-0.000841,-0.023806,0.075512,-0.000763,-0.022552,0.075512,0.081782,-0.062795,0.888663,-2.458983,0.456371,-9.987182
1790548756.4586,-0.001425,-0.026101,0.073257,-0.001227,-0.025036,0.073257,0.044143,0.075617,0.725968,-1.807408,-0.398769,-11.306763
1790548756.4726,-0.007372,-0.030320,0.076909,-0.005529,-0.028735,0.076909,0.208052,0.362155,0.734467,0.108991,0.010211,-11.035084
1790548756.4865,-0.015601,-0.037605,0.087582,-0.012579,-0.034944,0.087582,0.442382,0.435003,0.848597,1.373815,0.196111,-8.745224
1790548756.5006,-0.025214,-0.048109,0.096211,-0.021423,-0.044159,0.096211,0.631788,0.547919,0.860738,1.220503,-0.250049,-8.551168
1790548756.5143,-0.033932,-0.056480,0.107877,-0.030179,-0.052784,0.107877,0.566224,0.526064,0.792746,1.258831,0.753811,-9.482637
1790548756.5280,-0.037498,-0.058306,0.115320,-0.035303,-0.056650,0.115320,0.092709,0.260167,0.668904,-0.235960,0.939711,-10.879840
1790548756.5416,-0.036426,-0.053404,0.124951,-0.036089,-0.054378,0.124951,-0.352881,-0.095577,0.537776,0.185647,1.608951,-10.414105
1790548756.5556,-0.035707,-0.048185,0.135191,-0.035822,-0.050043,0.135191,-0.447584,-0.214563,0.484354,2.753622,0.196111,-10.375294
1790548756.5694,-0.031706,-0.041894,0.146973,-0.032941,-0.044339,0.146973,-0.494936,-0.465890,0.389651,3.136902,0.753811,-10.685784
1790548756.5835,-0.024688,-0.030556,0.158162,-0.027164,-0.034691,0.158162,-0.845823,-0.678365,0.325301,3.060246,0.828171,-10.375294
1790548756.5975,-0.016553,-0.016429,0.169867,-0.019737,-0.021908,0.169867,-1.065583,-0.803421,0.259738,3.175230,0.382011,-8.434735
1790548756.6119,-0.007302,-0.001219,0.180112,-0.011032,-0.007426,0.180112,-1.167571,-0.875056,0.288877,2.906934,-0.250049,-7.852567
1790548756.6259,0.004926,0.016582,0.188876,0.000138,0.009380,0.188876,-1.356977,-1.077818,0.252453,2.140375,0.158931,-7.231588
1790548756.6400,0.021850,0.040156,0.195437,0.015337,0.030923,0.195437,-1.707864,-1.360713,0.061833,1.373815,0.790991,-6.028441
1790548756.6539,0.012719,0.038227,0.192383,0.013505,0.036036,0.192383,0.004076,0.578272,-0.273271,4.823333,-1.105189,-19.301868
1790548756.6678,0.021347,0.028571,0.181651,0.018994,0.030810,0.181651,0.654857,-0.363902,-0.760142,-3.378855,1.460231,-16.119350
1790548756.6818,0.033996,0.030646,0.167873,0.029495,0.030695,0.167873,0.225050,-0.717217,-1.066105,-0.197632,4.471811,-4.049070
1790548756.6958,0.045776,0.026307,0.150618,0.040892,0.027623,0.150618,0.413242,-0.473175,-0.798994,-2.420655,1.943571,-5.019350
1790548756.7110,0.062894,0.009462,0.139187,0.056294,0.014911,0.139187,1.071307,-0.958832,-0.695792,-1.462456,0.902531,-8.822846
1790548756.7258,0.078558,-0.001739,0.130671,0.071878,0.003256,0.130671,0.801768,-0.950333,-0.921622,-0.197632,2.761531,-9.676693
1790548756.7408,0.075832,-0.004968,0.119852,0.074646,-0.002501,0.119852,0.282115,0.272308,-1.109815,0.645583,3.616671,-9.831937
1790548756.7549,0.065091,-0.003730,0.107469,0.067957,-0.003362,0.107469,-0.004423,0.903662,-0.913123,-0.542584,3.542311,-9.793126
1790548756.7710,0.058494,-0.006390,0.091923,0.061333,-0.005482,0.091923,0.192269,0.561274,-0.875485,-0.810880,2.389731,-9.599070
1790548756.7854,0.054093,-0.006995,0.076706,0.056265,-0.006541,0.076706,0.175271,0.527278,-0.778354,-1.845736,3.356411,-7.774944
1790548756.7994,0.044170,-0.005865,0.068890,0.047798,-0.006068,0.068890,0.051428,0.824743,-0.757713,-0.274288,3.319231,-8.279490
1790548756.8138,0.019955,0.005889,0.062321,0.028308,0.002302,0.062321,-0.712267,1.760847,-0.476032,0.223975,4.546171,-13.402567
1790548756.8280,0.030612,-0.000042,0.043141,0.029921,0.000662,0.043141,0.335537,-0.546023,-0.205279,-6.253454,0.196111,-21.281238
1790548756.8420,0.030955,0.002388,0.037666,0.030645,0.001870,0.037666,-0.151334,0.081688,0.175962,-3.685479,3.207691,-17.050819
1790548756.8564,0.023591,0.009182,0.049089,0.025707,0.006989,0.049089,-0.627277,0.312375,0.366582,1.220503,-0.584669,-4.670049
1790548756.8708,0.022714,-0.001319,0.058639,0.023612,0.001173,0.058639,0.439953,-0.144142,0.485568,1.143847,-1.811608,-4.553616
1790548756.8851,0.018322,-0.008914,0.071089,0.019909,-0.005888,0.071089,0.504303,0.159393,0.807316,0.645583,0.790991,-8.279490
1790548756.8991,0.003504,-0.013595,0.088009,0.008425,-0.011283,0.088009,0.350107,0.896377,1.235908,0.492271,2.426911,-12.859210
1790548756.9131,0.011251,-0.014352,0.094361,0.010404,-0.013431,0.094361,0.012575,-0.502314,0.973653,-4.107087,1.460231,-14.566903
1790548756.9273,0.007236,-0.016279,0.102056,0.008187,-0.015425,0.102056,0.113349,0.261381,0.838884,-1.040848,1.088431,-9.405014
1790548756.9411,-0.005601,-0.021718,0.114495,-0.001465,-0.019830,0.114495,0.293042,0.737325,0.844954,1.488799,-0.101329,-8.046623
1790548756.9551,-0.021661,-0.031234,0.137227,-0.015602,-0.027813,0.137227,0.641501,0.849026,1.022219,2.102047,0.567911,-5.523895
1790548756.9691,-0.033131,-0.047271,0.150028,-0.027872,-0.041433,0.150028,1.060380,0.716684,1.028290,0.760567,0.493551,-11.694875
1790548756.9828,-0.041339,-0.053295,0.162819,-0.037299,-0.049737,0.162819,0.370747,0.523636,1.031932,0.530599,1.014071,-12.199420
1790548756.9965,-0.038244,-0.048084,0.170097,-0.037961,-0.048580,0.170097,-0.403875,-0.181781,0.761178,-1.500784,1.869211,-12.936833
1790548757.0104,-0.034562,-0.040766,0.179145,-0.035582,-0.043110,0.179145,-0.599352,-0.317765,0.713827,0.338959,0.567911,-9.405014
1790548757.0244,-0.028517,-0.033885,0.192214,-0.030636,-0.036652,0.192214,-0.539859,-0.597017,0.569344,2.140375,0.790991,-9.210958
1790548757.0384,-0.018924,-0.023649,0.205603,-0.022437,-0.027550,0.205603,-0.786330,-0.856844,0.598483,1.987063,0.790991,-9.327392
1790548757.0523,-0.013440,-0.010654,0.220646,-0.016139,-0.015723,0.220646,-1.003661,-0.657724,0.474641,4.056774,0.605091,-10.530539
1790548757.0663,-0.003968,0.003969,0.236267,-0.007620,-0.001939,0.236267,-1.129932,-0.978258,0.485568,3.673494,0.307651,-8.512357
1790548757.0803,0.004957,0.021207,0.250862,0.001184,0.014264,0.250862,-1.325409,-0.927264,0.532920,2.753622,0.233291,-7.503266
1790548757.0942,0.017423,0.041868,0.263236,0.012551,0.033587,0.263236,-1.537884,-1.168878,0.446716,1.987063,0.716631,-6.261308
1790548757.1082,0.012163,0.047650,0.268856,0.012279,0.043431,0.268856,-0.588425,0.255310,0.021766,3.788478,-1.885968,-17.244875
1790548757.1227,0.015529,0.041563,0.262099,0.014554,0.042123,0.262099,0.390174,-0.078579,-0.536739,-1.577440,2.315371,-19.224245
1790548757.1368,0.024017,0.046367,0.225048,0.021178,0.045094,0.225048,-0.003208,-0.355403,-0.856059,-0.772552,3.542311,-3.738581
1790548757.1508,0.034722,0.042594,0.205207,0.030659,0.043344,0.205207,0.401101,-0.374829,-0.603517,-2.190688,1.720491,-3.777392
1790548757.1648,0.043759,0.027842,0.195274,0.039829,0.032493,0.195274,0.989960,-0.403969,-0.537954,-2.152360,0.493551,-7.774944
1790548757.1788,0.062434,0.013022,0.188673,0.055652,0.018863,0.188673,1.070093,-1.240513,-0.669081,-0.427600,2.203831,-11.384385
1790548757.1928,0.068947,0.002567,0.176976,0.064959,0.007456,0.176976,0.762915,-0.369973,-1.061249,0.683911,2.798711,-11.578441
1790548757.2064,0.061698,-0.000110,0.170482,0.062676,0.002160,0.170482,0.266331,0.499353,-1.063677,3.021918,3.542311,-10.375294
1790548757.2201,0.056880,0.003185,0.150053,0.058619,0.002878,0.150053,-0.159833,0.580700,-1.078247,-1.270816,2.984611,-8.667602
1790548757.2341,0.053966,0.000948,0.128159,0.055361,0.001527,0.128159,0.155844,0.484783,-1.092817,-1.769080,1.497411,-8.007811
1790548757.2481,0.048674,-0.003152,0.114009,0.050680,-0.001749,0.114009,0.267545,0.527278,-0.870629,-0.542584,1.274331,-9.831937
1790548757.2620,0.036708,0.001850,0.105145,0.040899,0.000771,0.105145,-0.165903,0.943729,-0.786853,0.338959,4.211551,-7.969000
1790548757.2759,0.021889,0.006216,0.094467,0.027592,0.004582,0.094467,-0.231467,1.185343,-0.388614,-0.772552,3.021791,-10.375294
1790548757.2900,0.022831,0.009653,0.082621,0.024259,0.008131,0.082621,-0.265463,0.109613,-0.230776,-4.835318,2.389731,-21.281238
1790548757.3040,0.024710,0.010127,0.078372,0.024575,0.009528,0.078372,0.030788,-0.009373,0.201459,-3.340527,3.467951,-12.781588
1790548757.3181,0.022240,0.015244,0.079215,0.022940,0.013530,0.079215,-0.292174,0.256525,0.543847,-1.922392,2.017931,-6.921098
1790548757.3321,0.016458,0.007995,0.114086,0.018403,0.009656,0.114086,0.388960,0.048906,0.843740,1.910407,-0.361589,-4.631238
1790548757.3462,0.004863,0.002866,0.144751,0.008925,0.004903,0.144751,0.522515,0.492068,0.954227,2.102047,2.612811,-5.368651
1790548757.3602,-0.002573,-0.000854,0.160725,0.000876,0.000873,0.160725,0.341608,0.351228,1.079284,0.568927,2.241011,-6.882287
1790548757.3749,0.003919,-0.003953,0.165685,0.003006,-0.002505,0.165685,0.150988,-0.461033,0.904447,-1.884064,0.976891,-11.966553
1790548757.3892,-0.003759,-0.007264,0.186962,-0.001729,-0.005837,0.186962,0.123062,0.307519,0.940871,2.217030,-0.101329,-10.841028
1790548757.4033,-0.016074,-0.012989,0.204482,-0.011771,-0.010843,0.204482,0.317325,0.683903,0.963940,1.488799,0.344831,-9.560259
1790548757.4174,-0.031803,-0.025362,0.227236,-0.025793,-0.021007,0.227236,0.734990,0.866024,1.087783,2.178703,-0.361589,-8.046623
1790548757.4313,-0.045160,-0.041011,0.242572,-0.039350,-0.035009,0.242572,0.972962,0.836884,1.050144,0.837223,-0.324409,-9.521448
1790548757.4449,-0.053844,-0.048134,0.257666,-0.049496,-0.044197,0.257666,0.446024,0.510280,1.035575,1.412143,0.939711,-10.452916
1790548757.4586,-0.050177,-0.042329,0.260300,-0.049972,-0.042889,0.260300,-0.403875,-0.250987,0.784247,-0.695896,2.501271,-10.375294
1790548757.4725,-0.048833,-0.034455,0.274589,-0.049175,-0.036985,0.274589,-0.658845,-0.230346,0.711399,1.603783,0.419191,-9.172147
1790548757.4865,-0.045632,-0.029805,0.294694,-0.046695,-0.031959,0.294694,-0.471867,-0.495029,0.681045,4.363398,-0.361589,-10.841028
1790548757.5005,-0.035865,-0.021144,0.311672,-0.039114,-0.024389,0.311672,-0.697698,-0.913908,0.693187,3.021918,0.790991,-10.336483
1790548757.5145,-0.029307,-0.007379,0.327355,-0.032249,-0.012482,0.327355,-1.080152,-0.746357,0.571772,4.056774,0.456371,-10.025993
1790548757.5284,-0.017431,0.009156,0.341337,-0.021876,0.002665,0.341337,-1.264702,-1.133668,0.503780,3.175230,0.605091,-8.007811
1790548757.5423,-0.008583,0.026541,0.355210,-0.012571,0.019378,0.355210,-1.372761,-0.969759,0.526849,3.290214,0.047391,-7.153965
1790548757.5563,0.006910,0.046497,0.372955,0.001066,0.038362,0.372955,-1.548811,-1.319432,0.508637,1.258831,0.233291,-6.882287
1790548757.5702,0.003820,0.053652,0.377596,0.002994,0.049065,0.377596,-0.578712,0.189747,-0.028014,1.795423,1.757671,-19.961658
1790548757.5843,0.008749,0.047557,0.349155,0.007022,0.048010,0.349155,0.517659,-0.032441,-0.535525,-5.026958,4.062831,-13.635434
1790548757.5983,0.032435,0.048106,0.282261,0.024811,0.048077,0.282261,0.180127,-1.149452,-0.727360,-6.790045,4.471811,-6.222497
1790548757.6125,0.035994,0.040283,0.279319,0.032639,0.042621,0.279319,0.506731,-0.210920,-0.642370,0.607255,0.605091,-5.213406
1790548757.6268,0.047865,0.024467,0.269041,0.043297,0.029913,0.269041,1.062808,-0.535096,-0.576806,-3.187215,0.716631,-8.163056
1790548757.6407,0.067563,0.012354,0.261276,0.060283,0.017622,0.261276,0.908612,-1.330359,-0.664224,-0.350944,2.798711,-11.539630
1790548757.6545,0.067307,0.005259,0.250372,0.065200,0.008968,0.250372,0.523729,0.041621,-1.214231,1.987063,2.203831,-8.667602
1790548757.6682,0.060547,0.003466,0.235421,0.061943,0.005116,0.235421,0.198339,0.550347,-1.104958,1.335487,2.835891,-8.512357
1790548757.6818,0.058809,0.002576,0.213167,0.059749,0.003338,0.213167,0.101208,0.359727,-1.135311,-1.079176,2.055111,-7.852567
1790548757.6957,0.055659,-0.002261,0.192907,0.056886,-0.000581,0.192907,0.375604,0.431361,-1.050322,-1.040848,2.166651,-9.172147
1790548757.7097,0.051541,-0.002222,0.171973,0.053144,-0.001730,0.171973,0.132776,0.475070,-0.993257,-0.695896,3.393591,-7.930189
1790548757.7236,0.038993,0.001552,0.155965,0.043238,0.000567,0.155965,-0.162261,1.014149,-0.921622,0.262303,3.244871,-8.900469
1790548757.7376,0.017326,0.013506,0.135010,0.025100,0.009624,0.135010,-0.793615,1.792414,-0.533097,-2.995575,3.579491,-13.674245
1790548757.7515,0.023036,0.016736,0.125680,0.023655,0.014603,0.125680,-0.289746,-0.161140,-0.130002,-7.709917,1.051251,-19.612357
1790548757.7655,0.016992,0.011603,0.126447,0.018991,0.012503,0.126447,0.379246,0.422862,0.254881,-0.350944,2.203831,-12.432287
1790548757.7795,0.009755,0.014290,0.125838,0.012525,0.013754,0.125838,-0.173188,0.540634,0.369011,-0.389272,0.753811,-3.855014
1790548757.7935,0.006955,0.002013,0.146559,0.008626,0.005535,0.146559,0.743489,0.007625,0.695615,1.105519,-0.361589,-6.959909
1790548757.8075,-0.005743,-0.006242,0.165036,-0.001433,-0.002709,0.165036,0.526158,0.703329,0.995508,1.527127,0.753811,-10.297672
1790548757.8215,-0.009718,-0.007861,0.174035,-0.007232,-0.006315,0.174035,0.090281,0.243169,1.036789,-1.424128,1.869211,-12.238231
1790548757.8355,0.000731,-0.012588,0.182499,-0.001658,-0.010706,0.182499,0.237192,-0.654082,0.861952,-3.953775,0.121751,-11.811308
1790548757.8494,-0.007960,-0.018208,0.200759,-0.006070,-0.015958,0.200759,0.300327,0.437432,0.891092,1.412143,-0.064149,-8.473546
1790548757.8634,-0.019566,-0.026637,0.215578,-0.015517,-0.023434,0.215578,0.512802,0.682688,0.910518,1.067191,0.233291,-9.172147
1790548757.8780,-0.034942,-0.042510,0.241036,-0.029115,-0.036787,0.241036,0.941394,0.812602,1.078070,2.370342,-0.510309,-8.163056
1790548757.8920,-0.043928,-0.054318,0.253928,-0.039484,-0.049059,0.253928,0.741061,0.577058,0.982152,0.338959,0.270471,-10.763406
1790548757.9057,-0.049327,-0.056404,0.264539,-0.046374,-0.054200,0.264539,0.092709,0.364583,0.942086,0.032335,1.125611,-11.462007
1790548757.9197,-0.046725,-0.050338,0.272483,-0.046620,-0.051497,0.272483,-0.441514,-0.185423,0.747823,-0.312616,1.683311,-9.754315
1790548757.9339,-0.047838,-0.046796,0.285564,-0.047472,-0.048206,0.285564,-0.388091,-0.026371,0.600912,1.718767,-0.696209,-10.957462
1790548757.9480,-0.040694,-0.041304,0.298258,-0.042727,-0.043374,0.298258,-0.414803,-0.658939,0.583914,2.370342,1.497411,-10.608161
1790548757.9619,-0.034134,-0.029838,0.312416,-0.036712,-0.033899,0.312416,-0.884676,-0.662581,0.422433,3.443526,0.753811,-11.306763
1790548757.9759,-0.025098,-0.016315,0.329630,-0.028582,-0.021590,0.329630,-1.070439,-0.872628,0.412720,3.290214,-0.026969,-9.327392
1790548757.9899,-0.013069,-0.001022,0.349283,-0.017722,-0.007192,0.349283,-1.201567,-1.150666,0.511065,3.136902,0.010211,-7.348021
1790548758.0039,-0.001153,0.015631,0.369588,-0.006124,0.008784,0.369588,-1.308411,-1.188305,0.673760,2.906934,0.047391,-6.804665
1790548758.0178,0.014923,0.035870,0.386948,0.008609,0.027744,0.386948,-1.545169,-1.444489,0.608197,2.063719,0.419191,-6.921098
1790548758.0318,0.011679,0.049353,0.396212,0.010758,0.042870,0.396212,-1.026730,0.050120,0.359297,3.328542,1.497411,-15.498371
1790548758.0457,0.002543,0.037814,0.397161,0.005007,0.039331,0.397161,0.741061,0.664476,-0.329121,2.868606,0.456371,-21.281238
1790548758.0596,0.021943,0.039038,0.365624,0.016862,0.039126,0.365624,0.104850,-1.057177,-0.865772,-3.455511,4.732071,-9.249770
1790548758.0735,0.023030,0.030969,0.356115,0.021179,0.033416,0.356115,0.607505,0.069547,-0.502743,-0.695896,1.571771,-7.542077
1790548758.0874,0.030209,0.011942,0.344980,0.027500,0.018384,0.344980,1.356631,-0.213348,-0.545238,-3.378855,1.199971,-8.822846
1790548758.1014,0.046982,-0.000617,0.335554,0.041137,0.005083,0.335554,0.942608,-1.126383,-0.676366,0.032335,2.092291,-9.405014
1790548758.1155,0.054295,-0.002858,0.314258,0.050348,-0.000476,0.314258,0.305184,-0.475603,-1.108600,1.220503,3.244871,-7.270399
1790548758.1296,0.044448,-0.007427,0.305466,0.046218,-0.005341,0.305466,0.340394,0.608626,-0.960475,3.136902,1.720491,-8.046623
1790548758.1434,0.047665,-0.010156,0.283207,0.047231,-0.008712,0.283207,0.235978,0.052549,-0.996899,-2.650623,2.055111,-9.443825
1790548758.1574,0.042224,-0.014559,0.265787,0.043726,-0.012805,0.265787,0.362248,0.496925,-0.988400,0.262303,2.389731,-10.181238
1790548758.1714,0.037009,-0.016623,0.243649,0.039024,-0.015478,0.243649,0.244477,0.528492,-1.033324,-0.427600,2.947431,-9.560259
1790548758.1855,0.017796,-0.015078,0.222136,0.024164,-0.015198,0.222136,0.059927,1.479166,-0.798994,0.147319,4.843611,-11.384385
1790548758.1996,-0.001219,-0.002462,0.206865,0.006396,-0.006282,0.206865,-0.889532,1.564156,-0.472390,-3.033903,1.832031,-15.149070
1790548758.2136,-0.000433,0.006108,0.193361,0.001616,0.002391,0.193361,-0.542287,0.206745,-0.246559,-5.640206,3.876931,-15.265504
1790548758.2275,-0.007812,0.002788,0.201600,-0.004983,0.002669,0.201600,0.222622,0.418005,-0.017087,2.063719,1.088431,-9.055714
1790548758.2415,-0.013550,0.004134,0.220322,-0.010980,0.003695,0.220322,0.273616,0.217672,0.263380,1.220503,3.282051,-2.768301
1790548758.2555,-0.016756,-0.007294,0.233936,-0.015023,-0.003998,0.233936,0.755630,0.099900,0.671332,1.143847,0.902531,-11.151518
1790548758.2695,-0.027839,-0.011705,0.246134,-0.023995,-0.009393,0.246134,0.263903,0.675404,0.881379,0.875551,1.385871,-12.471098
1790548758.2834,-0.026117,-0.014150,0.246651,-0.025481,-0.012723,0.246651,0.132776,-0.059152,0.877736,-2.612295,1.497411,-11.229140
1790548758.2973,-0.020695,-0.015760,0.248765,-0.022131,-0.014849,0.248765,0.046571,-0.301981,0.842526,-2.382327,0.716631,-8.667602
1790548758.3113,-0.029880,-0.020525,0.269218,-0.027555,-0.018822,0.269218,0.217765,0.473856,0.872880,1.527127,-0.064149,-8.434735
1790548758.3253,-0.039091,-0.028495,0.288874,-0.035630,-0.025593,0.288874,0.480020,0.468999,1.022219,1.565455,0.567911,-8.395923
1790548758.3391,-0.046751,-0.038147,0.308105,-0.043414,-0.034381,0.308105,0.599006,0.376725,1.025861,2.063719,0.642271,-11.073895
1790548758.3527,-0.052656,-0.043906,0.323397,-0.049884,-0.041048,0.323397,0.344036,0.302662,0.996722,1.412143,0.939711,-10.336483
1790548758.3665,-0.058646,-0.046433,0.337118,-0.056017,-0.044818,0.337118,0.072068,0.357298,0.973653,0.683911,0.456371,-10.646972
1790548758.3807,-0.057197,-0.043056,0.344206,-0.056843,-0.043585,0.344206,-0.286103,-0.108932,0.852239,-0.312616,1.199971,-8.628791
1790548758.3951,-0.054167,-0.037187,0.358099,-0.054970,-0.039106,0.358099,-0.510720,-0.311694,0.668904,1.258831,0.307651,-9.366203
1790548758.4091,-0.048847,-0.029440,0.375044,-0.050684,-0.032340,0.375044,-0.657631,-0.548452,0.536562,2.868606,0.233291,-11.229140
1790548758.4231,-0.039564,-0.017512,0.391761,-0.042900,-0.021960,0.391761,-0.942954,-0.849559,0.481926,2.830278,0.456371,-10.181238
1790548758.4372,-0.030064,-0.004433,0.409920,-0.033915,-0.009691,0.409920,-1.042514,-0.892054,0.455215,2.906934,0.158931,-9.366203
1790548758.4511,-0.021390,0.008742,0.428520,-0.025148,0.003212,0.428520,-1.074082,-0.872628,0.423647,3.098574,-0.101329,-8.589979
1790548758.4650,-0.010400,0.025351,0.442148,-0.014824,0.018709,0.442148,-1.268344,-1.020753,0.407863,2.255358,0.716631,-7.580888
1790548758.4790,0.004004,0.047882,0.455169,-0.001644,0.039130,0.455169,-1.676296,-1.313361,0.361726,2.485326,0.679451,-6.494175
1790548758.4930,0.000524,0.050972,0.463597,-0.000127,0.047419,0.463597,-0.335883,0.195817,-0.102077,3.213558,0.121751,-21.281238
1790548758.5070,0.001541,0.042933,0.449642,0.001040,0.044279,0.449642,0.619647,0.143609,-0.536739,-2.267343,3.058971,-13.790679
1790548758.5210,0.017569,0.043758,0.368873,0.012610,0.043914,0.368873,0.388960,-0.796137,-0.635085,-2.880591,6.367990,-4.670049
1790548758.5350,0.024644,0.037887,0.354145,0.021034,0.039695,0.354145,0.467879,-0.299553,-0.687293,-1.117504,1.906391,-7.774944
1790548758.5489,0.039648,0.021934,0.346853,0.034064,0.027262,0.346853,1.104089,-0.805850,-0.517313,-3.033903,0.865351,-8.822846
1790548758.5628,0.054483,0.008733,0.340290,0.048358,0.014291,0.340290,0.969319,-1.008612,-0.624158,0.185647,2.352551,-12.005364
1790548758.5769,0.057796,0.004472,0.320306,0.054964,0.007418,0.320306,0.467879,-0.084649,-1.005398,-0.274288,4.025651,-8.046623
1790548758.5906,0.053257,0.003267,0.301688,0.053770,0.004512,0.301688,0.180127,0.481141,-0.948334,-0.312616,2.947431,-8.473546
1790548758.6043,0.054643,0.001454,0.282020,0.054381,0.002372,0.282020,0.155844,0.119326,-0.987186,-1.577440,2.278191,-10.414105
1790548758.6182,0.051797,-0.001079,0.268146,0.052572,-0.000044,0.268146,0.212909,0.325731,-0.798994,-0.312616,2.278191,-10.064805
1790548758.6327,0.046925,-0.000524,0.251552,0.048619,-0.000380,0.251552,0.131561,0.516351,-0.664224,-1.079176,3.133331,-6.300119
1790548758.6467,0.026616,0.009019,0.239490,0.033217,0.006199,0.239490,-0.593281,1.555657,-0.321836,-0.619240,3.244871,-10.375294
1790548758.6606,0.009521,0.023138,0.227356,0.016630,0.018057,0.227356,-1.007304,1.420887,-0.080222,-3.685479,2.501271,-14.838581
1790548758.6746,0.016858,0.015711,0.229945,0.016789,0.016414,0.229945,0.408386,-0.378472,0.137109,-4.720334,-0.807749,-16.585084
1790548758.6885,0.002393,0.013621,0.253122,0.006712,0.014459,0.253122,0.203196,0.804103,0.484354,1.910407,1.683311,-6.222497
1790548758.7024,-0.007273,0.011504,0.254439,-0.003077,0.012391,0.254439,0.116992,0.706971,0.538990,-0.810880,0.902531,-7.774944
1790548758.7163,-0.012988,0.003138,0.273811,-0.010015,0.005914,0.273811,0.472735,0.234670,0.815815,1.412143,-0.175689,-11.112707
1790548758.7304,-0.022932,-0.000886,0.292382,-0.019057,0.001154,0.292382,0.232335,0.502995,1.018577,1.948735,1.534591,-12.277042
1790548758.7443,-0.016660,-0.005314,0.302540,-0.017379,-0.003373,0.302540,0.199553,-0.371187,0.997936,-3.072231,0.196111,-9.288581
1790548758.7583,-0.019307,-0.012850,0.315647,-0.018729,-0.010007,0.315647,0.414457,0.104757,0.849811,0.032335,-0.138509,-8.318301
1790548758.7723,-0.033631,-0.021145,0.338104,-0.029160,-0.017803,0.338104,0.466665,0.800460,0.783033,2.102047,-0.212869,-7.542077
1790548758.7863,-0.043233,-0.032724,0.350631,-0.039011,-0.028248,0.350631,0.730133,0.598913,0.942086,0.453943,0.493551,-10.569350
1790548758.8020,-0.050533,-0.046878,0.364425,-0.047077,-0.041289,0.364425,0.798125,0.393723,0.904447,0.530599,0.382011,-12.626343
1790548758.8166,-0.057912,-0.053211,0.376575,-0.054662,-0.049634,0.376575,0.353749,0.430147,0.835241,0.837223,0.567911,-9.172147
1790548758.8307,-0.062982,-0.054900,0.387463,-0.060486,-0.053321,0.387463,0.070854,0.269880,0.729611,1.258831,1.014071,-9.172147
1790548758.8458,-0.061016,-0.054188,0.396245,-0.060857,-0.053927,0.396245,-0.097911,-0.179352,0.581485,0.875551,0.939711,-10.064805
1790548758.8606,-0.060298,-0.049786,0.410777,-0.060466,-0.051028,0.410777,-0.369879,-0.207278,0.359297,3.635166,0.307651,-11.617252
1790548758.8750,-0.051269,-0.039848,0.424582,-0.054028,-0.043202,0.424582,-0.771760,-0.775496,0.320445,3.328542,0.196111,-11.850119
1790548758.8891,-0.046066,-0.027530,0.440953,-0.048455,-0.032232,0.440953,-0.989092,-0.560593,0.324087,3.251886,-0.250049,-9.676693
1790548758.9032,-0.036657,-0.013799,0.459921,-0.040196,-0.019329,0.459921,-1.136003,-0.873842,0.398150,2.791950,-0.696209,-8.667602
1790548758.9172,-0.025488,0.001633,0.477604,-0.029900,-0.004656,0.477604,-1.268344,-0.978258,0.381152,1.872079,-0.621849,-7.192776
1790548758.9312,-0.010250,0.022601,0.490193,-0.016145,0.014424,0.490193,-1.626516,-1.229585,0.190532,1.450471,-0.064149,-7.425644
1790548758.9452,0.007472,0.048763,0.500512,0.000387,0.038461,0.500512,-1.950692,-1.494268,0.155322,2.293686,0.419191,-6.765853
1790548758.9592,0.003077,0.053926,0.502673,0.002270,0.049287,0.502673,-0.448799,0.290521,-0.206493,1.910407,0.828171,-13.635434
1790548758.9734,0.009908,0.050516,0.485984,0.007617,0.050147,0.485984,0.308826,-0.190280,-0.739501,-4.145415,4.657711,-16.546273
1790548758.9878,0.015330,0.051292,0.428603,0.013016,0.050949,0.428603,0.412028,-0.253415,-0.792923,0.568927,6.702610,-4.359560
1790548759.0019,0.022848,0.045531,0.415852,0.019899,0.047157,0.415852,0.424170,-0.265557,-0.705505,-2.190688,1.869211,-9.366203
1790548759.0159,0.035605,0.031108,0.408546,0.030893,0.035922,0.408546,1.015457,-0.745143,-0.609588,-1.194160,1.311511,-9.327392
1790548759.0299,0.046580,0.020678,0.399138,0.041874,0.025251,0.399138,0.775057,-0.709933,-0.768641,0.607255,2.389731,-10.375294
1790548759.0435,0.045575,0.017885,0.379963,0.044464,0.020095,0.379963,0.314897,0.223743,-1.006612,0.070663,3.244871,-8.667602
1790548759.0572,0.039011,0.019709,0.359313,0.040647,0.019825,0.359313,0.002862,0.649907,-0.944691,-0.197632,3.058971,-7.270399
1790548759.0708,0.036938,0.017753,0.340932,0.038051,0.018375,0.340932,0.184984,0.388866,-0.868200,-1.462456,2.166651,-9.055714
1790548759.0849,0.033513,0.016599,0.324174,0.034874,0.017132,0.324174,0.120634,0.437432,-0.814778,-1.079176,2.389731,-10.336483
1790548759.0989,0.026525,0.015930,0.306831,0.029030,0.016290,0.306831,0.124277,0.698472,-0.727360,-1.347472,3.096151,-10.724595
1790548759.1130,0.007479,0.023686,0.298750,0.013944,0.021468,0.298750,-0.374736,1.399032,-0.415325,0.760567,3.876931,-8.007811
1790548759.1274,0.013152,0.015639,0.292945,0.013390,0.017387,0.292945,0.505517,-0.223062,-0.225919,-4.643678,1.199971,-21.164805
1790548759.1420,0.010346,0.016033,0.289652,0.011259,0.016439,0.289652,0.086638,0.255310,0.216029,-1.807408,4.583351,-12.238231
1790548759.1562,0.011315,0.025773,0.291934,0.011298,0.022973,0.291934,-0.530146,0.073189,0.491639,-2.727279,3.319231,-6.649420
1790548759.1704,0.003382,0.019703,0.325775,0.005757,0.020684,0.325775,0.228693,0.283236,0.887449,1.680439,-1.068009,-7.153965
1790548759.1843,-0.010499,0.012769,0.349361,-0.005622,0.015144,0.349361,0.486091,0.698472,0.996722,2.025391,1.348691,-7.076343
1790548759.1983,-0.019415,0.010318,0.362533,-0.015277,0.011765,0.362533,0.160701,0.477498,1.096282,0.338959,1.460231,-7.192776
1790548759.2122,-0.017099,0.006491,0.370865,-0.016552,0.008073,0.370865,0.140060,-0.139286,0.795174,-2.267343,-0.175689,-11.462007
1790548759.2262,-0.023981,0.000706,0.385872,-0.021753,0.002916,0.385872,0.263903,0.373082,0.783033,0.722239,-0.510309,-11.384385
1790548759.2402,-0.031415,-0.005970,0.401061,-0.028516,-0.003304,0.401061,0.354964,0.390080,0.860738,0.837223,0.084571,-8.473546
1790548759.2540,-0.039463,-0.017332,0.419719,-0.036179,-0.013124,0.419719,0.676711,0.403436,1.004007,1.220503,-0.101329,-8.163056
1790548759.2681,-0.047437,-0.028093,0.436100,-0.044059,-0.023602,0.436100,0.652428,0.409506,0.948156,1.412143,0.344831,-9.249770
1790548759.2819,-0.051058,-0.031508,0.445756,-0.048959,-0.029136,0.445756,0.195911,0.216458,0.903233,-0.044320,1.497411,-10.957462
1790548759.2956,-0.050090,-0.027655,0.454696,-0.049751,-0.028099,0.454696,-0.318885,-0.134429,0.741752,0.530599,1.608951,-10.763406
1790548759.3096,-0.052348,-0.021889,0.466029,-0.051569,-0.023752,0.466029,-0.456083,0.017339,0.577843,1.948735,1.162791,-9.210958
1790548759.3236,-0.048863,-0.018468,0.480564,-0.049675,-0.020053,0.480564,-0.350453,-0.414896,0.464928,2.676966,0.158931,-10.452916
1790548759.3375,-0.042540,-0.009635,0.491982,-0.044680,-0.012760,0.491982,-0.692841,-0.626157,0.326516,2.830278,0.939711,-10.142427
1790548759.3514,-0.034039,0.001620,0.504844,-0.037231,-0.002694,0.504844,-0.901674,-0.786424,0.202673,3.251886,0.233291,-10.724595
1790548759.3654,-0.023486,0.013394,0.518453,-0.027610,0.008568,0.518453,-0.946597,-0.963688,0.144394,3.098574,0.047391,-8.551168
1790548759.3797,-0.014377,0.029904,0.530932,-0.018347,0.023503,0.530932,-1.237991,-0.854415,0.259738,2.408670,0.456371,-7.231588
1790548759.3943,-0.004821,0.049988,0.544464,-0.008879,0.042043,0.544464,-1.501460,-0.868985,0.158964,2.446998,-0.026969,-7.153965
1790548759.4083,-0.010235,0.053222,0.554601,-0.009828,0.049868,0.554601,-0.400233,0.331801,-0.008588,2.715294,-1.514168,-19.069001
1790548759.4223,-0.009005,0.045459,0.543454,-0.009252,0.046782,0.543454,0.560154,0.197032,-0.579234,-3.647151,2.166651,-14.217602
1790548759.4363,0.002968,0.046192,0.517937,-0.000698,0.046369,0.517937,0.109707,-0.560593,-1.090388,-2.075704,5.624391,-13.596623
1790548759.4504,0.013961,0.041814,0.498673,0.009563,0.043180,0.498673,0.384103,-0.424609,-0.698220,-1.960720,1.311511,-4.631238
1790548759.4642,0.022712,0.029123,0.487393,0.018767,0.033340,0.487393,0.911041,-0.356617,-0.665438,-2.458983,1.385871,-9.094525
1790548759.4784,0.038930,0.017079,0.477584,0.032881,0.021957,0.477584,0.838192,-0.946690,-0.785639,-1.462456,1.311511,-9.560259
1790548759.4925,0.044621,0.010448,0.462100,0.041099,0.013901,0.462100,0.527372,-0.291054,-0.985972,0.568927,3.244871,-11.811308
1790548759.5063,0.035831,0.008124,0.443936,0.037411,0.009857,0.443936,0.282115,0.700901,-0.955618,1.527127,3.914111,-10.569350
1790548759.5200,0.028564,0.011373,0.423032,0.031218,0.010918,0.423032,-0.101554,0.713042,-0.930121,-0.465928,3.244871,-8.279490
1790548759.5341,0.026166,0.008288,0.408978,0.027682,0.009077,0.408978,0.194697,0.402222,-0.774711,-1.730752,0.976891,-9.443825
1790548759.5482,0.022474,0.006901,0.393923,0.024036,0.007554,0.393923,0.178913,0.436218,-0.682436,-1.040848,2.687171,-9.599070
1790548759.5620,0.012685,0.007598,0.381781,0.016091,0.007585,0.381781,0.025931,0.828385,-0.523384,-0.465928,2.724351,-10.258860
1790548759.5760,0.001647,0.018084,0.368686,0.005980,0.014935,0.368686,-0.519219,0.915804,-0.338834,-0.772552,5.401311,-9.210958
1790548759.5902,0.006635,0.008533,0.366460,0.006438,0.010454,0.366460,0.596578,-0.244916,-0.048654,-2.727279,0.307651,-18.253966
1790548759.6042,-0.001788,0.014768,0.364222,0.000680,0.013474,0.364222,-0.284889,0.665690,0.339871,-1.347472,3.951291,-8.473546
1790548759.6182,-0.002620,0.021608,0.367564,-0.001630,0.019168,0.367564,-0.564142,0.118112,0.619124,-2.075704,0.567911,-9.055714
1790548759.6322,-0.003182,0.014351,0.395283,-0.002717,0.015796,0.395283,0.272402,-0.243702,0.807316,1.910407,-1.551348,-6.688231
1790548759.6464,-0.011968,0.009126,0.417621,-0.009193,0.011127,0.417621,0.319753,0.292949,1.071999,2.408670,0.976891,-7.309210
1790548759.6605,-0.018071,0.005872,0.431521,-0.015408,0.007448,0.431521,0.150988,0.329373,1.141205,-0.542584,0.902531,-9.599070
1790548759.6745,-0.016089,0.001481,0.439930,-0.015885,0.003271,0.439930,0.194697,-0.073722,0.844954,-3.455511,0.084571,-12.315854
1790548759.6885,-0.022336,-0.003230,0.453060,-0.020401,-0.001280,0.453060,0.211695,0.313589,0.846168,0.875551,-0.064149,-11.151518
1790548759.7024,-0.030786,-0.009881,0.466628,-0.027671,-0.007301,0.466628,0.381675,0.466571,0.954227,0.837223,0.456371,-9.133336
1790548759.7163,-0.042245,-0.020061,0.481925,-0.037872,-0.016233,0.481925,0.613576,0.652335,1.044074,1.143847,0.270471,-8.163056
1790548759.7304,-0.049554,-0.031317,0.494714,-0.046050,-0.026792,0.494714,0.687638,0.452001,0.957869,0.108991,0.344831,-9.443825
1790548759.7439,-0.055114,-0.036008,0.504525,-0.052395,-0.033243,0.504525,0.286972,0.365797,0.818243,0.223975,1.199971,-10.879840
1790548759.7575,-0.054454,-0.033496,0.511567,-0.053836,-0.033420,0.511567,-0.226611,-0.040940,0.604554,-0.350944,1.348691,-10.996273
1790548759.7715,-0.054766,-0.029781,0.520409,-0.054487,-0.030873,0.520409,-0.362594,-0.101647,0.464928,2.178703,0.158931,-10.608161
1790548759.7856,-0.052504,-0.025077,0.529541,-0.053099,-0.026816,0.529541,-0.433015,-0.317765,0.401792,2.868606,0.084571,-10.646972
1790548759.7995,-0.043744,-0.018260,0.538064,-0.046551,-0.020826,0.538064,-0.594496,-0.756070,0.343514,2.255358,0.047391,-10.957462
1790548759.8136,-0.034465,-0.005710,0.545869,-0.038091,-0.010245,0.545869,-0.966023,-0.860486,0.247596,3.098574,0.419191,-8.861658
1790548759.8276,-0.026366,0.009673,0.554482,-0.029883,0.003697,0.554482,-1.197924,-0.808278,0.241526,3.290214,0.047391,-8.395923
1790548759.8417,-0.014805,0.026797,0.564952,-0.019329,0.019867,0.564952,-1.341193,-1.051106,0.322873,2.561982,0.010211,-7.852567
1790548759.8555,-0.001609,0.049143,0.574825,-0.006925,0.040360,0.574825,-1.727290,-1.215016,0.298590,2.446998,0.158931,-6.765853
1790548759.8695,-0.010590,0.056402,0.578317,-0.009490,0.051589,0.578317,-0.622421,0.597698,0.010839,2.063719,0.382011,-15.847672
1790548759.8836,-0.010701,0.048428,0.574502,-0.010338,0.049376,0.574502,0.487305,0.214030,-0.692150,-1.194160,0.270471,-16.235784
1790548759.8982,0.004742,0.050988,0.530473,0.000218,0.050504,0.530473,0.269974,-0.906624,-0.802637,-0.120976,6.144910,-4.243126
1790548759.9123,0.018051,0.046636,0.521329,0.012701,0.047797,0.521329,0.416885,-0.499886,-0.664224,-3.033903,1.794851,-4.475993
1790548759.9265,0.032129,0.034034,0.515197,0.026301,0.038163,0.515197,0.878259,-0.796137,-0.581663,-1.654096,1.423051,-9.094525
1790548759.9405,0.046416,0.022640,0.508129,0.040382,0.027296,0.508129,0.815123,-0.940620,-0.667867,0.223975,2.092291,-11.617252
1790548759.9546,0.050023,0.014497,0.492522,0.047130,0.018337,0.492522,0.601434,-0.112575,-1.073390,0.223975,2.501271,-10.918651
1790548759.9682,0.043468,0.013680,0.478153,0.044566,0.015077,0.478153,0.138846,0.536991,-0.903410,1.220503,2.835891,-8.822846
1790548759.9820,0.040033,0.013110,0.463727,0.041393,0.013700,0.463727,0.090281,0.425290,-0.803851,-0.734224,2.055111,-8.046623
1790548759.9961,0.034222,0.011177,0.449677,0.036373,0.011934,0.449677,0.186198,0.581915,-0.737073,-0.810880,2.166651,-8.706413
1790548760.0099,0.030991,0.009906,0.433622,0.032606,0.010514,0.433622,0.183770,0.466571,-0.824491,-1.615768,2.835891,-8.978091
1790548760.0238,0.017478,0.011378,0.418546,0.022017,0.011119,0.418546,0.057499,1.108852,-0.772283,-0.044320,3.616671,-8.201867
1790548760.0377,0.008248,0.019102,0.410850,0.012379,0.016707,0.410850,-0.374736,0.709400,-0.423824,0.760567,4.806431,-9.987182
1790548760.0517,0.013801,0.009111,0.407297,0.013375,0.011390,0.407297,0.671855,-0.271627,-0.126359,-3.302199,1.423051,-19.689980
1790548760.0656,0.010027,0.014087,0.404216,0.011031,0.013278,0.404216,-0.208398,0.461715,0.207530,-3.838791,4.434631,-9.870749
1790548760.0796,0.008669,0.023025,0.405160,0.009378,0.020101,0.405160,-0.640633,0.234670,0.481926,-2.420655,1.237151,-6.921098
1790548760.0935,0.004044,0.016684,0.424363,0.005644,0.017709,0.424363,0.256618,0.114470,0.613053,1.412143,-1.030829,-6.338930
1790548760.1075,-0.003692,0.008611,0.438662,-0.000892,0.011340,0.438662,0.473949,0.363369,0.802459,1.220503,0.121751,-8.357112
1790548760.1214,-0.006456,0.005412,0.449226,-0.004786,0.007190,0.449226,0.205624,0.121755,0.904447,-0.427600,1.237151,-7.930189
1790548760.1354,-0.007909,0.001867,0.456984,-0.006972,0.003464,0.456984,0.142489,0.102329,0.659191,-1.347472,-0.026969,-11.423196
1790548760.1498,-0.011507,-0.006468,0.467181,-0.010147,-0.003488,0.467181,0.430240,0.172749,0.643407,0.223975,-0.882109,-11.539630
1790548760.1641,-0.022713,-0.014436,0.478806,-0.018943,-0.011152,0.478806,0.454523,0.641408,0.767249,1.143847,0.010211,-8.395923
1790548760.1781,-0.032550,-0.025027,0.490509,-0.028468,-0.020864,0.490509,0.648786,0.586771,0.846168,0.722239,0.121751,-8.473546
1790548760.1923,-0.038821,-0.036863,0.502807,-0.035715,-0.032064,0.502807,0.724063,0.363369,0.885021,0.415615,0.047391,-9.676693
1790548760.2059,-0.046227,-0.040527,0.511662,-0.043073,-0.037988,0.511662,0.227479,0.481141,0.708970,0.645583,1.162791,-10.491728
1790548760.2195,-0.047228,-0.039368,0.519657,-0.045982,-0.038954,0.519657,-0.141621,0.061048,0.622766,-0.044320,0.902531,-10.491728
1790548760.2336,-0.045632,-0.035263,0.527546,-0.045737,-0.036370,0.527546,-0.343168,-0.175710,0.537776,0.837223,0.902531,-9.948371
1790548760.2476,-0.048991,-0.032330,0.536025,-0.048015,-0.033542,0.536025,-0.322528,0.112042,0.474641,2.140375,-0.250049,-10.297672
1790548760.2616,-0.042282,-0.026772,0.543897,-0.044002,-0.028803,0.543897,-0.503435,-0.622514,0.326516,2.868606,-0.175689,-11.772497
1790548760.2754,-0.033317,-0.015199,0.551754,-0.036523,-0.019280,0.551754,-0.916243,-0.848345,0.241526,3.673494,0.270471,-10.491728
1790548760.2895,-0.022960,0.001949,0.561994,-0.027029,-0.004420,0.561994,-1.305983,-1.030466,0.240312,3.520182,0.196111,-6.765853
1790548760.3034,-0.009901,0.021312,0.574072,-0.015039,0.013592,0.574072,-1.535456,-1.182234,0.303447,2.217030,-0.361589,-6.028441
1790548760.3174,0.005855,0.043754,0.585470,-0.000413,0.034705,0.585470,-1.757644,-1.337644,0.219671,1.987063,-0.398769,-6.843476
1790548760.3316,0.015810,0.062774,0.590664,0.010943,0.054353,0.590664,-1.477177,-0.769426,-0.138501,2.332014,-0.287229,-15.886483
1790548760.3456,-0.002979,0.049820,0.588591,0.001197,0.051180,0.588591,0.804196,1.434242,-0.325479,0.645583,-0.547489,-21.281238
1790548760.3595,0.023312,0.039766,0.579943,0.016678,0.043190,0.579943,0.749560,-1.603541,-1.095245,-3.953775,4.211551,-20.854315
1790548760.3735,0.023258,0.035671,0.571877,0.021284,0.037927,0.571877,0.234763,0.010054,-0.569521,1.105519,0.493551,-6.688231
1790548760.3877,0.027969,0.027677,0.560462,0.025964,0.030752,0.560462,0.674283,0.046478,-0.745572,-2.765607,2.203831,-5.601518
1790548760.4021,0.039005,0.020146,0.551350,0.035093,0.023328,0.551350,0.552869,-0.622514,-0.727360,-0.810880,2.315371,-10.802217
1790548760.4163,0.039913,0.016286,0.532345,0.038467,0.018398,0.532345,0.361034,0.023409,-0.987186,0.875551,2.687171,-8.046623
1790548760.4299,0.032446,0.016591,0.516079,0.034252,0.017133,0.516079,0.038072,0.635337,-0.865772,0.837223,2.538451,-9.366203
1790548760.4435,0.025797,0.019143,0.498483,0.028333,0.018540,0.498483,-0.067558,0.641408,-0.869414,-0.120976,2.984611,-8.163056
1790548760.4575,0.018707,0.020324,0.483531,0.021595,0.019789,0.483531,-0.022635,0.706971,-0.837847,-0.772552,2.278191,-8.861658
1790548760.4715,0.012195,0.021096,0.470082,0.015015,0.020704,0.470082,0.018646,0.717899,-0.731002,-1.845736,2.501271,-9.210958
1790548760.4855,0.009549,0.021189,0.461750,0.011189,0.021044,0.461750,-0.000780,0.302662,-0.562236,-0.235960,2.984611,-19.263056
1790548760.4994,0.018796,0.010360,0.459674,0.016514,0.013565,0.459674,0.792055,-0.611587,-0.219848,-0.504256,2.687171,-15.498371
1790548760.5134,0.014232,0.003429,0.454181,0.014917,0.006470,0.454181,0.811481,0.210387,0.060618,1.833751,5.959010,-7.037532
1790548760.5273,-0.005239,0.006366,0.455999,0.000808,0.006397,0.455999,-0.119766,1.256978,0.359297,3.021918,4.471811,-14.101168
1790548760.5413,-0.002017,0.009163,0.461889,-0.001169,0.008333,0.461889,-0.207184,-0.164783,0.608197,-3.225543,2.352551,-13.519000
1790548760.5553,0.003783,0.013621,0.472702,0.002297,0.012035,0.472702,-0.301887,-0.505957,0.844954,-0.427600,2.166651,-9.521448
1790548760.5693,-0.002255,0.012564,0.492504,-0.000889,0.012405,0.492504,-0.071200,0.198246,1.031932,1.143847,-0.324409,-7.309210
1790548760.5834,-0.001435,0.007513,0.507294,-0.001271,0.008981,0.507294,0.282115,-0.095577,1.053787,-1.347472,0.567911,-7.619700
1790548760.5974,0.002053,0.004079,0.519615,0.001056,0.005549,0.519615,0.103636,-0.172068,0.706542,-2.727279,-0.584669,-9.443825
1790548760.6114,-0.003449,0.001173,0.530311,-0.002097,0.002486,0.530311,0.080567,0.335444,0.688330,-0.350944,-0.473129,-12.509909
1790548760.6253,-0.010881,-0.004098,0.540938,-0.008246,-0.002123,0.540938,0.271188,0.468999,0.740538,-0.197632,0.010211,-10.918651
1790548760.6394,-0.020225,-0.012705,0.553389,-0.016631,-0.009530,0.553389,0.521301,0.509066,0.906876,1.067191,0.382011,-9.443825
1790548760.6536,-0.032140,-0.021391,0.564442,-0.027487,-0.017833,0.564442,0.538299,0.708185,0.843740,0.990535,0.567911,-8.628791
1790548760.6674,-0.040630,-0.024061,0.573762,-0.036687,-0.022193,0.573762,0.165557,0.557632,0.750251,0.223975,1.385871,-9.521448
1790548760.6812,-0.038710,-0.021199,0.582240,-0.038103,-0.021497,0.582240,-0.248465,-0.094363,0.553560,-1.309144,1.348691,-11.345574
1790548760.6953,-0.036828,-0.013685,0.589211,-0.037210,-0.016028,0.589211,-0.646704,-0.207278,0.412720,1.182175,-0.175689,-11.733686
1790548760.7093,-0.036327,-0.007015,0.595022,-0.036592,-0.009719,0.595022,-0.585997,-0.209706,0.387223,2.830278,-0.101329,-10.336483
1790548760.7234,-0.031472,-0.000640,0.600139,-0.033008,-0.003364,0.600139,-0.559285,-0.486530,0.277950,2.408670,-0.064149,-10.491728
1790548760.7373,-0.021478,0.011225,0.603208,-0.024937,0.006848,0.603208,-0.908958,-0.867771,0.161392,2.293686,0.679451,-8.978091
1790548760.7514,-0.012985,0.027719,0.604558,-0.016571,0.021458,0.604558,-1.257417,-0.822848,0.049691,3.136902,0.270471,-7.891378
1790548760.7654,0.001360,0.045588,0.609208,-0.004019,0.038349,0.609208,-1.367904,-1.208945,0.106756,2.140375,0.270471,-7.425644
1790548760.7794,-0.008029,0.051985,0.609582,-0.006826,0.047894,0.609582,-0.525289,0.488426,0.191746,4.938317,1.311511,-16.002917
1790548760.7935,-0.012887,0.042120,0.607597,-0.011069,0.043852,0.607597,0.642715,0.563702,-0.564665,-2.305671,0.828171,-18.331588
1790548760.8075,0.006508,0.041544,0.597720,0.001235,0.042236,0.597720,0.225050,-0.913908,-1.066105,-4.682006,4.137191,-8.046623
1790548760.8216,0.010271,0.039063,0.588887,0.007560,0.040015,0.588887,0.227479,0.037979,-0.814778,-1.654096,1.571771,-6.416553
1790548760.8358,0.021459,0.034874,0.582779,0.017290,0.036416,0.582779,0.429026,-0.294696,-0.711576,-4.682006,2.501271,-5.329839
1790548760.8497,0.031111,0.022943,0.575966,0.026964,0.026985,0.575966,0.874616,-0.554522,-0.626586,-0.810880,2.389731,-12.082986
1790548760.8638,0.039694,0.016106,0.564703,0.035875,0.019370,0.564703,0.535871,-0.459819,-0.885198,-0.389272,2.761531,-10.841028
1790548760.8784,0.033999,0.014233,0.549196,0.034561,0.015774,0.549196,0.167986,0.473856,-0.922837,1.258831,2.798711,-11.500819
1790548760.8938,0.027069,0.019708,0.533319,0.029317,0.018528,0.533319,-0.213255,0.686331,-0.897340,-1.270816,3.430771,-7.503266
1790548760.9080,0.018197,0.022647,0.520104,0.021533,0.021411,0.520104,-0.127051,0.824743,-0.797780,-0.734224,2.203831,-7.464455
1790548760.9224,0.009370,0.025120,0.507861,0.013019,0.024007,0.507861,-0.095483,0.811387,-0.718861,-0.964192,2.687171,-9.560259
1790548760.9376,0.010090,0.026311,0.502953,0.010969,0.025620,0.502953,-0.003208,-0.006944,-0.352190,0.453943,2.575631,-8.628791
1790548760.9517,0.016314,0.012394,0.500005,0.014710,0.016362,0.500005,0.943822,-0.343262,-0.202850,-1.539112,1.125611,-14.683336
1790548760.9656,0.017451,0.007515,0.502535,0.016629,0.010169,0.502535,0.620861,-0.134429,0.097043,0.607255,4.955151,-7.076343
1790548760.9797,0.020127,-0.003886,0.510837,0.019078,0.000331,0.510837,0.846691,-0.343262,0.423647,1.718767,2.241011,-10.569350
1790548760.9937,0.012493,-0.004391,0.518423,0.014469,-0.002975,0.518423,0.068426,0.431361,0.546275,1.220503,2.835891,-13.984735
1790548761.0078,0.013059,-0.001061,0.527385,0.013482,-0.001635,0.527385,-0.254536,-0.038512,0.851025,-2.420655,1.757671,-13.053266
1790548761.0218,0.013675,-0.004170,0.542090,0.013617,-0.003409,0.542090,0.121848,-0.158712,1.149704,-0.619240,0.010211,-10.297672
1790548761.0357,0.007389,-0.006751,0.554429,0.009258,-0.005749,0.554429,0.030788,0.362155,1.096282,-0.504256,-0.621849,-6.959909
1790548761.0496,0.007906,-0.010428,0.562670,0.008312,-0.009025,0.562670,0.089066,0.093830,0.974867,-2.458983,-0.807749,-5.485084
1790548761.0636,0.008859,-0.014347,0.567894,0.008695,-0.012750,0.567894,0.125491,0.041621,0.621552,-2.803935,-1.068009,-9.055714
1790548761.0775,0.000645,-0.015906,0.569648,0.003060,-0.014959,0.569648,-0.028705,0.580700,0.445502,-0.580912,-1.142369,-12.548721
1790548761.0914,-0.005722,-0.021606,0.573268,-0.003088,-0.019612,0.573268,0.317325,0.447145,0.456429,-0.389272,-0.138509,-11.772497
1790548761.1054,-0.013375,-0.029410,0.578097,-0.010289,-0.026471,0.578097,0.503089,0.465357,0.506209,0.837223,0.493551,-9.793126
1790548761.1191,-0.020842,-0.038056,0.582075,-0.017676,-0.034580,0.582075,0.562582,0.494496,0.454001,0.492271,0.196111,-8.667602
1790548761.1329,-0.026188,-0.043979,0.586961,-0.023635,-0.041159,0.586961,0.387745,0.368226,0.416362,0.223975,0.605091,-9.909560
1790548761.1472,-0.026883,-0.044338,0.592044,-0.025908,-0.043384,0.592044,-0.022635,0.058619,0.364154,-0.197632,0.493551,-9.909560
1790548761.1613,-0.026338,-0.039215,0.593231,-0.026209,-0.040466,0.593231,-0.424516,-0.164783,0.264594,2.408670,0.270471,-10.802217
1790548761.1753,-0.026988,-0.032087,0.591772,-0.026755,-0.034601,0.591772,-0.601780,-0.121074,0.157750,3.405198,-0.398769,-10.841028
1790548761.1894,-0.015857,-0.024140,0.592189,-0.019127,-0.027278,0.592189,-0.641847,-0.919979,0.135895,2.485326,0.047391,-10.841028
1790548761.2034,-0.010181,-0.011873,0.591540,-0.012865,-0.016495,0.591540,-0.946597,-0.640726,0.095829,3.098574,0.121751,-7.231588
1790548761.2175,-0.002442,0.002869,0.591752,-0.005569,-0.002940,0.591752,-1.120219,-0.728145,0.099471,2.638638,0.158931,-8.512357
1790548761.2314,0.009546,0.021619,0.592748,0.005012,0.014251,0.592748,-1.423755,-1.066890,0.082473,2.753622,0.382011,-8.473546
1790548761.2454,0.020380,0.045329,0.592588,0.015770,0.036006,0.592588,-1.746716,-0.969759,-0.004945,2.485326,0.753811,-7.697322
1790548761.2594,0.003601,0.037886,0.591382,0.007252,0.037322,0.591382,0.344036,1.270333,-0.357046,1.105519,-3.075728,-20.233336
1790548761.2734,0.017293,0.028694,0.598133,0.014280,0.031282,0.598133,0.719206,-0.533882,-0.944691,-5.601878,2.724351,-10.608161
1790548761.2874,0.022672,0.030471,0.588152,0.020154,0.030714,0.588152,0.158273,-0.187851,-0.916766,-0.504256,4.434631,-5.873196
1790548761.3015,0.032526,0.028954,0.589604,0.028814,0.029482,0.589604,0.262689,-0.207278,-0.845132,-2.497311,1.608951,-3.078790
1790548761.3155,0.046981,0.015328,0.583540,0.041531,0.019574,0.583540,0.914683,-0.785209,-0.714004,-2.458983,0.642271,-9.560259
1790548761.3295,0.057451,0.004673,0.573906,0.052675,0.009144,0.573906,0.789626,-0.592161,-0.890055,-0.810880,2.612811,-11.229140
1790548761.3432,0.055548,0.002193,0.556716,0.054686,0.004278,0.556716,0.263903,0.205531,-1.192376,1.527127,3.393591,-9.831937
1790548761.3569,0.042488,0.007148,0.540209,0.046148,0.006287,0.540209,-0.250893,0.948586,-0.958047,2.293686,3.579491,-9.249770
1790548761.3707,0.034152,0.010619,0.527248,0.037751,0.009319,0.527248,-0.224182,0.817458,-0.893697,-1.079176,1.943571,-9.016902
1790548761.3847,0.031215,0.011086,0.517250,0.033176,0.010556,0.517250,-0.035990,0.427719,-0.707933,-1.692424,1.423051,-9.327392
1790548761.3991,0.021718,0.014262,0.507034,0.025155,0.013150,0.507034,-0.123408,0.875737,-0.711576,-1.462456,2.835891,-8.628791
1790548761.4136,0.019515,0.012150,0.501014,0.021207,0.012450,0.501014,0.197125,0.328159,-0.437180,-2.267343,3.021791,-12.587532
1790548761.4276,0.027155,-0.004332,0.498752,0.025370,0.000703,0.498752,1.130800,-0.501100,-0.144572,-0.887536,0.939711,-17.904665
1790548761.4416,0.010596,-0.002692,0.501252,0.015028,-0.001674,0.501252,0.058713,1.061501,0.137109,2.561982,5.289771,-11.306763
1790548761.4555,0.003948,0.000416,0.505446,0.007272,-0.000211,0.505446,-0.235110,0.553989,0.472213,-2.650623,1.794851,-12.975644
1790548761.4695,0.007949,-0.000030,0.517035,0.007746,-0.000084,0.517035,0.016218,-0.351761,0.797603,-0.772552,1.869211,-12.587532
1790548761.4834,0.001405,-0.000503,0.529756,0.003307,-0.000377,0.529756,0.016218,0.237098,0.940871,1.450471,1.051251,-7.153965
1790548761.4975,0.002610,-0.000020,0.543145,0.002819,-0.000127,0.543145,-0.111267,-0.145356,1.075641,-1.385800,0.679451,-10.724595
1790548761.5115,0.006510,-0.002477,0.552941,0.005403,-0.001772,0.552941,0.041715,-0.333549,0.923873,-0.810880,-0.324409,-7.542077
1790548761.5254,0.004537,-0.007863,0.557837,0.004797,-0.006036,0.557837,0.231121,0.034337,0.687116,0.492271,-1.030829,-10.646972
1790548761.5394,-0.001363,-0.013597,0.563566,0.000485,-0.011329,0.563566,0.284543,0.357298,0.672546,-0.082648,-0.584669,-11.966553
1790548761.5535,-0.009113,-0.021292,0.571097,-0.006234,-0.018303,0.571097,0.436311,0.466571,0.775748,0.262303,-0.250049,-10.452916
1790548761.5673,-0.019271,-0.032292,0.580417,-0.015359,-0.028096,0.580417,0.685210,0.592842,0.932372,1.067191,-0.064149,-9.987182
1790548761.5810,-0.032730,-0.040767,0.589338,-0.027519,-0.036966,0.589338,0.575937,0.846598,0.823100,1.335487,0.828171,-8.706413
1790548761.5947,-0.037662,-0.042502,0.600134,-0.034619,-0.040841,0.600134,0.092709,0.290521,0.783033,0.568927,1.237151,-10.142427
1790548761.6088,-0.034749,-0.034134,0.609372,-0.034710,-0.036146,0.609372,-0.612708,-0.242488,0.564487,0.262303,1.497411,-10.569350
1790548761.6228,-0.035445,-0.027989,0.612572,-0.035225,-0.030436,0.612572,-0.549572,-0.079793,0.454001,2.063719,-0.250049,-10.530539
1790548761.6369,-0.033205,-0.024379,0.614717,-0.033811,-0.026196,0.614717,-0.366237,-0.376043,0.416362,3.481854,-0.250049,-9.870749
1790548761.6508,-0.022882,-0.016278,0.616876,-0.026161,-0.019253,0.616876,-0.635776,-0.895696,0.245168,2.485326,0.642271,-9.793126
1790548761.6653,-0.014951,-0.002848,0.617000,-0.018314,-0.007770,0.617000,-0.993948,-0.734215,0.138324,2.868606,0.344831,-8.628791
1790548761.6795,-0.003751,0.013553,0.617321,-0.008119,0.007156,0.617321,-1.231920,-0.989185,0.086115,2.523654,0.233291,-7.309210
1790548761.6935,0.010046,0.034113,0.619640,0.004597,0.026026,0.619640,-1.512387,-1.270866,0.184461,2.791950,0.679451,-6.183686
1790548761.7075,0.005648,0.047844,0.617994,0.005332,0.041298,0.617994,-0.995162,0.120541,0.116469,2.370342,1.162791,-7.231588
1790548761.7216,-0.006792,0.036367,0.621946,-0.003154,0.037846,0.621946,0.886758,1.255763,-0.444465,-4.988630,2.984611,-10.918651
1790548761.7355,0.012761,0.027861,0.616439,0.007986,0.030856,0.616439,0.782342,-1.046250,-1.050322,-4.490366,5.847470,-12.898021
1790548761.7495,0.014754,0.028248,0.603884,0.012723,0.029030,0.603884,0.246905,-0.039726,-0.899768,0.837223,5.364131,-7.542077
1790548761.7635,0.017525,0.021468,0.596088,0.016085,0.023737,0.596088,0.512802,0.165464,-0.800208,-2.765607,1.311511,-6.882287
1790548761.7775,0.028935,0.011092,0.586469,0.025080,0.014886,0.586469,0.681568,-0.692935,-0.791709,-0.082648,0.493551,-10.025993
1790548761.7914,0.034126,0.003901,0.572403,0.031412,0.007196,0.572403,0.540727,-0.236417,-1.050322,0.262303,2.203831,-11.384385
1790548761.8052,0.028498,0.002436,0.555649,0.029372,0.003864,0.555649,0.233549,0.430147,-1.137740,2.255358,3.282051,-8.628791
1790548761.8189,0.018486,0.007287,0.540610,0.021752,0.006260,0.540610,-0.191400,0.851454,-0.967760,0.453943,3.505131,-8.201867
1790548761.8329,0.012468,0.010903,0.524687,0.015253,0.009510,0.524687,-0.136764,0.687545,-1.026039,-1.232488,2.798711,-8.163056
1790548761.8468,0.010587,0.009370,0.511654,0.011987,0.009412,0.511654,0.174056,0.335444,-0.866986,-0.964192,2.389731,-10.220049
1790548761.8608,0.002703,0.010289,0.502797,0.005488,0.010026,0.502797,0.078139,0.626838,-0.629014,0.722239,2.910251,-7.619700
1790548761.8748,0.005981,0.006734,0.500584,0.005833,0.007721,0.500584,0.369533,-0.190280,-0.196780,-0.044320,2.687171,-7.774944
1790548761.8888,0.007954,-0.004238,0.502260,0.007318,-0.000650,0.502260,0.955964,-0.136857,0.059404,-0.044320,4.955151,-10.996273
1790548761.9029,-0.003388,0.001157,0.507330,-0.000177,0.000615,0.507330,-0.254536,0.757965,0.440645,0.223975,5.029511,-12.936833
1790548761.9174,-0.001205,0.001379,0.514251,-0.000896,0.001149,0.514251,-0.049346,-0.107718,0.848597,-2.765607,1.423051,-10.685784
1790548761.9316,-0.004060,-0.000219,0.532060,-0.003111,0.000192,0.532060,0.095137,-0.002088,1.141205,0.760567,1.274331,-7.348021
1790548761.9456,-0.012436,-0.006835,0.547600,-0.009638,-0.004727,0.547600,0.265117,0.448359,1.272332,0.070663,-0.919289,-6.494175
1790548761.9595,-0.012378,-0.009256,0.562091,-0.011556,-0.007897,0.562091,0.097565,-0.070080,1.220124,-1.117504,0.865351,-9.482637
1790548761.9736,-0.007624,-0.012033,0.569438,-0.008804,-0.010793,0.569438,0.052642,-0.282555,0.784247,-2.803935,-0.733389,-11.850119
1790548761.9876,-0.012268,-0.014766,0.578061,-0.011229,-0.013574,0.578061,0.042929,0.239527,0.774534,0.377287,-0.956469,-12.199420
1790548762.0016,-0.017045,-0.020113,0.586945,-0.015300,-0.018151,0.586945,0.293042,0.252882,0.736896,0.415615,0.233291,-9.366203
1790548762.0155,-0.024879,-0.028817,0.597167,-0.022005,-0.025617,0.597167,0.503089,0.418005,0.817029,1.335487,-0.287229,-9.366203
1790548762.0294,-0.034098,-0.039807,0.605694,-0.030470,-0.035550,0.605694,0.671855,0.570987,0.728397,0.798895,-0.250049,-8.939280
1790548762.0430,-0.041727,-0.045864,0.614206,-0.038350,-0.042769,0.614206,0.432669,0.634123,0.636122,-1.424128,1.348691,-9.870749
1790548762.0566,-0.042071,-0.045189,0.622588,-0.040954,-0.044463,0.622588,-0.057845,0.065904,0.577843,-0.887536,1.571771,-10.569350
1790548762.0706,-0.039335,-0.038639,0.630138,-0.039821,-0.040386,0.630138,-0.463368,-0.212134,0.460071,0.185647,1.683311,-10.025993
1790548762.0846,-0.039134,-0.034018,0.636801,-0.039340,-0.035928,0.636801,-0.408732,-0.174496,0.415148,3.098574,0.270471,-11.656063
1790548762.0985,-0.035849,-0.028929,0.642643,-0.036897,-0.031029,0.642643,-0.424516,-0.390613,0.315588,2.830278,0.530731,-10.608161
1790548762.1125,-0.025845,-0.020006,0.646574,-0.029161,-0.023313,0.646574,-0.712267,-0.851987,0.144394,2.485326,0.196111,-10.025993
1790548762.1263,-0.012649,-0.007052,0.650301,-0.017602,-0.011930,0.650301,-1.007304,-1.114242,0.056976,2.408670,0.196111,-8.240679
1790548762.1403,0.001385,0.007824,0.653685,-0.004311,0.001898,0.653685,-1.151787,-1.164022,0.013267,2.063719,0.121751,-7.619700
1790548762.1543,0.017370,0.025632,0.658035,0.010866,0.018512,0.658035,-1.353334,-1.338858,0.003554,2.638638,0.158931,-7.852567
1790548762.1687,0.012940,0.027180,0.654177,0.012318,0.024580,0.654177,-0.301887,0.377939,-0.495459,0.913879,-3.261628,-18.021098
1790548762.1829,0.019040,0.022921,0.644788,0.017023,0.023419,0.644788,0.378032,-0.117431,-0.886412,-3.455511,3.393591,-11.811308
1790548762.1969,0.035881,0.022162,0.632273,0.030224,0.022539,0.632273,0.335537,-0.810706,-1.276152,-3.225543,5.624391,-7.076343
1790548762.2108,0.043554,0.019958,0.619954,0.039555,0.020732,0.619954,0.302755,-0.269199,-1.006612,-0.964192,1.794851,-3.971448
1790548762.2248,0.046088,0.016161,0.610375,0.044128,0.017532,0.610375,0.336751,-0.016657,-0.728574,-0.772552,2.166651,-7.425644
1790548762.2388,0.058732,0.007659,0.598613,0.054351,0.010621,0.598613,0.529800,-0.705076,-0.854845,-2.075704,0.642271,-13.324944
1790548762.2528,0.063273,0.000349,0.583286,0.060596,0.003431,0.583286,0.504303,-0.175710,-1.160808,-0.082648,2.129471,-12.315854
1790548762.2665,0.062726,-0.000602,0.571317,0.062087,0.000607,0.571317,0.184984,0.138753,-1.066105,0.492271,3.802571,-9.288581
1790548762.2801,0.063596,0.001417,0.558685,0.063144,0.001174,0.558685,-0.031134,0.148466,-0.973831,-1.270816,3.096151,-7.542077
1790548762.2941,0.064614,-0.001967,0.544025,0.064173,-0.001024,0.544025,0.248119,0.192175,-0.856059,-2.765607,1.980751,-9.637881
1790548762.3080,0.068277,-0.007231,0.534023,0.067045,-0.005369,0.534023,0.422956,-0.028799,-0.608374,-2.803935,2.315371,-9.055714
1790548762.3222,0.054705,-0.003312,0.527109,0.058407,-0.003929,0.527109,-0.288532,1.042074,-0.299982,-1.500784,2.649991,-18.486833
1790548762.3361,0.048393,0.012268,0.518505,0.051398,0.007409,0.518505,-1.139645,0.728826,-0.083864,-7.786573,1.980751,-15.847672
1790548762.3500,0.041236,0.028520,0.510035,0.044284,0.022187,0.510035,-1.225849,0.766464,-0.065652,-4.413711,0.828171,-10.414105
1790548762.3640,0.029252,0.040196,0.504247,0.033761,0.034793,0.504247,-0.859179,0.976511,-0.052297,-0.849208,0.753811,-5.213406
1790548762.3781,0.044514,0.032521,0.501574,0.041288,0.033203,0.501574,0.435097,-1.001327,0.144394,-2.497311,-0.138509,-10.879840
