t,imu_roll,imu_pitch,imu_yaw,lpf_roll,lpf_pitch,lpf_yaw,gyro_x,gyro_y,gyro_z,acc_x,acc_y,acc_z
1790547734.5316,0.008786,-0.032575,-0.001418,0.006150,-0.022803,-0.001418,-0.015590,-0.009128,-0.002511,0.185647,1.311511,-10.491728
1790547734.5469,0.000661,-0.030725,-0.006857,0.002307,-0.028349,-0.006857,0.009907,0.007870,-0.000083,0.338959,1.348691,-10.142427
1790547734.5607,0.011498,-0.031628,-0.000095,0.008741,-0.030644,-0.000095,0.017192,0.010298,-0.003725,-0.082648,1.274331,-9.909560
1790547734.5745,0.013221,-0.028792,0.001042,0.011877,-0.029348,0.001042,0.008693,-0.003057,0.004774,0.070663,1.385871,-9.754315
1790547734.5884,0.015923,-0.028484,0.002353,0.014709,-0.028743,0.002353,-0.016804,-0.012770,-0.001297,-0.005993,1.348691,-10.103616
1790547734.6024,0.012644,-0.026808,0.000756,0.013263,-0.027388,0.000756,-0.044730,0.001799,-0.007367,0.300631,1.423051,-10.142427
1790547734.6165,0.015545,-0.025523,0.002110,0.014860,-0.026083,0.002110,-0.037445,0.006656,-0.000083,-0.082648,1.423051,-10.103616
1790547734.6308,0.014580,-0.023517,0.002645,0.014664,-0.024286,0.002645,-0.032588,0.027296,0.035128,0.147319,1.497411,-10.025993
1790547734.6448,0.018829,-0.019777,0.005942,0.017580,-0.021130,0.005942,-0.087225,-0.022483,0.117689,-0.274288,1.646131,-10.103616
1790547734.6589,0.019007,-0.013175,0.011962,0.018579,-0.015561,0.011962,-0.109079,-0.022483,0.248817,0.032335,1.943571,-9.909560
1790547734.6728,0.023634,-0.007065,0.018823,0.022117,-0.009614,0.018823,-0.096938,-0.125686,0.403013,-0.350944,1.980751,-9.676693
1790547734.6867,0.016400,-0.007491,0.032325,0.018115,-0.008128,0.032325,0.032975,-0.044338,0.579063,0.760567,1.423051,-9.172147
1790547734.7008,0.007598,-0.017199,0.044644,0.010753,-0.014478,0.044644,0.145891,0.145068,0.721118,0.760567,0.493551,-9.366203
1790547734.7148,0.012464,-0.018681,0.052546,0.011951,-0.017420,0.052546,0.219953,0.074648,0.665267,-0.810880,1.646131,-9.870749
1790547734.7288,0.017127,-0.021717,0.058768,0.015574,-0.020428,0.058768,0.103396,-0.021269,0.593633,-0.810880,1.385871,-11.617252
1790547734.7428,0.023441,-0.030386,0.052344,0.021081,-0.027398,0.052344,0.012335,-0.024912,0.331378,-1.079176,0.047391,-10.996273
1790547734.7568,0.019510,-0.036696,0.042828,0.019981,-0.033906,0.042828,0.060901,0.217917,0.199037,0.147319,0.419191,-10.879840
1790547734.7707,0.019171,-0.043514,0.038750,0.019414,-0.040632,0.038750,0.209026,0.026082,0.190538,-0.005993,0.567911,-10.841028
1790547734.7844,0.010269,-0.044200,0.031556,0.013012,-0.043130,0.031556,0.161675,0.288337,0.123760,0.990535,1.423051,-9.754315
1790547734.7980,0.010273,-0.041653,0.041927,0.011095,-0.042096,0.041927,0.099753,0.105001,0.095835,-0.120976,1.683311,-8.628791
1790547734.8120,0.010573,-0.038653,0.049308,0.010729,-0.039686,0.049308,-0.008305,0.023654,0.104334,-0.005993,1.832031,-10.103616
1790547734.8261,0.007175,-0.036671,0.051916,0.008241,-0.037576,0.051916,0.022048,0.028510,0.114047,0.837223,1.869211,-10.724595
1790547734.8401,0.006803,-0.032435,0.057280,0.007235,-0.033977,0.057280,-0.041087,-0.170609,0.149257,0.798895,2.278191,-10.724595
1790547734.8542,0.009164,-0.018710,0.066720,0.008585,-0.023290,0.066720,-0.338552,-0.418294,0.090978,1.028863,3.876931,-10.646972
1790547734.8683,0.009678,-0.008641,0.082424,0.009350,-0.013036,0.082424,-0.461180,-0.542136,0.148043,1.987063,2.687171,-10.957462
1790547734.8826,0.000321,-0.014465,0.098343,0.003030,-0.014036,0.098343,0.272161,0.223987,-0.132424,2.830278,1.534591,-15.226693
1790547734.8967,0.001036,-0.006526,0.037506,0.001634,-0.008779,0.037506,0.403289,0.016369,-0.478455,0.338959,4.025651,-7.425644
1790547734.9107,0.006903,0.000448,0.006060,0.005322,-0.002320,0.006060,-0.033802,-0.191249,-0.856053,-0.082648,2.687171,-7.969000
1790547734.9247,0.025985,-0.002556,-0.049125,0.019786,-0.002485,-0.049125,0.287945,-0.668407,-1.001750,-1.539112,1.423051,-7.736133
1790547734.9387,0.010611,-0.008639,0.061838,0.013364,-0.006793,0.061838,0.338939,0.281052,-1.053958,3.098574,1.125611,-8.046623
1790547734.9526,0.020723,-0.014770,0.027219,0.018515,-0.012377,0.027219,0.302515,-0.267740,-0.937400,-1.270816,0.865351,-10.608161
1790547734.9665,0.024640,-0.013881,0.013768,0.022802,-0.013429,0.013768,-0.021661,-0.157253,-1.058814,0.108991,1.497411,-9.055714
1790547734.9803,0.022552,-0.017838,0.005240,0.022627,-0.016516,0.005240,0.232095,0.237343,-1.230008,0.453943,1.348691,-11.112707
1790547734.9942,0.026147,-0.014241,-0.025842,0.025091,-0.014923,-0.025842,-0.087225,0.016369,-1.274932,-0.350944,2.092291,-9.327392
1790547735.0076,0.020387,-0.006361,-0.037821,0.021798,-0.008930,-0.037821,-0.260847,0.418250,-1.205726,0.683911,2.278191,-7.348021
1790547735.0212,0.019714,-0.009196,-0.071924,0.020339,-0.009116,-0.071924,-0.002235,0.480171,-1.063671,-1.117504,0.493551,-10.375294
1790547735.0349,0.022481,-0.012378,-0.093497,0.021838,-0.011399,-0.093497,0.128893,0.067363,-0.874265,-0.580912,0.939711,-9.793126
1790547735.0488,0.020799,-0.011194,-0.093738,0.021110,-0.011255,-0.093738,0.086398,0.085575,-0.756493,0.722239,2.278191,-9.482637
1790547735.0628,0.017729,-0.006778,-0.105916,0.018743,-0.008121,-0.105916,-0.052014,0.290765,-0.669075,0.262303,2.910251,-9.831937
1790547735.0767,0.016285,0.000981,-0.146606,0.017022,-0.001750,-0.146606,-0.225637,0.458317,-0.796560,-0.887536,3.133331,-9.094525
1790547735.0905,0.010054,0.004134,-0.163219,0.012144,0.002369,-0.163219,-0.082368,0.622226,-0.705499,-0.082648,2.649991,-10.957462
1790547735.1045,0.011210,0.006845,-0.201999,0.011490,0.005502,-0.201999,-0.285130,0.288337,-0.554945,-1.730752,1.646131,-14.372847
1790547735.1189,0.016373,0.001217,-0.213053,0.014908,0.002502,-0.213053,0.165317,-0.253170,-0.096000,-0.657568,0.530731,-16.779140
1790547735.1335,0.010552,-0.005469,-0.204834,0.011859,-0.003077,-0.204834,0.319513,0.295622,0.559637,0.185647,0.530731,-7.076343
1790547735.1479,0.000799,-0.018031,-0.190507,0.004117,-0.013545,-0.190507,0.517418,0.565161,0.877742,0.108991,-0.473129,-7.309210
1790547735.1620,-0.002225,-0.029616,-0.191646,-0.000322,-0.024795,-0.191646,0.540487,0.363614,0.910524,-0.810880,-0.138509,-5.989630
1790547735.1762,0.000579,-0.038893,-0.188652,0.000309,-0.034663,-0.188652,0.341368,0.120785,0.701692,-2.037376,-0.547489,-8.667602
1790547735.1903,-0.004292,-0.043514,-0.189025,-0.002912,-0.040859,-0.189025,0.143462,0.398824,0.690764,-0.542584,0.158931,-10.336483
1790547735.2042,-0.011233,-0.051074,-0.186143,-0.008737,-0.048009,-0.186143,0.347438,0.437676,0.797609,0.262303,0.047391,-12.859210
1790547735.2181,-0.024621,-0.061636,-0.155291,-0.019856,-0.057548,-0.155291,0.752962,0.570018,0.991872,1.987063,0.939711,-8.124245
1790547735.2320,-0.037415,-0.072632,-0.139296,-0.032147,-0.068107,-0.139296,0.802742,0.794634,0.946948,0.645583,0.939711,-7.270399
1790547735.2455,-0.044105,-0.076243,-0.112958,-0.040517,-0.073802,-0.112958,0.473709,0.616155,0.891098,-0.542584,2.166651,-8.395923
1790547735.2591,-0.043284,-0.082487,-0.105190,-0.042454,-0.079882,-0.105190,0.454283,0.187563,0.757542,-1.500784,1.199971,-10.841028
1790547735.2730,-0.039239,-0.085004,-0.094793,-0.040204,-0.083467,-0.094793,0.166531,-0.322377,0.637342,0.607255,1.125611,-11.694875
1790547735.2869,-0.034694,-0.086830,-0.085623,-0.036347,-0.085821,-0.085623,0.043903,-0.445005,0.592419,1.488799,0.530731,-13.480189
1790547735.3008,-0.036944,-0.087456,-0.061905,-0.036765,-0.086966,-0.061905,-0.208639,-0.233744,0.606988,3.290214,-0.956469,-10.181238
1790547735.3146,-0.038100,-0.086753,-0.041244,-0.037699,-0.086817,-0.041244,-0.364049,-0.329661,0.525641,3.060246,-1.253909,-8.745224
1790547735.3287,-0.034390,-0.076724,-0.021682,-0.035382,-0.079752,-0.021682,-0.814496,-0.736399,0.500144,3.021918,0.233291,-7.464455
1790547735.3426,-0.028354,-0.064212,-0.007092,-0.030462,-0.068874,-0.007092,-1.092534,-0.835959,0.381158,3.251886,-0.361589,-9.443825
1790547735.3566,-0.025736,-0.053086,0.002699,-0.027154,-0.057822,0.002699,-0.990546,-0.664765,0.199037,4.286742,-0.398769,-10.025993
1790547735.3706,-0.013738,-0.043328,0.007625,-0.017763,-0.047676,0.007625,-0.819352,-1.169848,0.072766,2.561982,0.270471,-9.288581
1790547735.3848,-0.017656,-0.042729,0.016164,-0.017688,-0.044213,0.016164,-0.236564,0.140212,-0.248982,2.408670,-0.547489,-13.363756
1790547735.3989,-0.017460,-0.051014,0.010027,-0.017528,-0.048974,0.010027,0.641261,0.423107,-0.819628,-2.612295,1.385871,-10.879840
1790547735.4129,-0.002566,-0.062944,0.007709,-0.007055,-0.058753,0.007709,0.822168,-0.740041,-0.917974,-1.884064,0.567911,-11.617252
1790547735.4267,-0.004284,-0.064812,-0.036039,-0.005115,-0.062994,-0.036039,0.312228,-0.302950,-0.337614,3.021918,1.571771,-6.921098
1790547735.4407,0.001702,-0.074689,-0.033364,-0.000343,-0.071181,-0.033364,0.663115,-0.339375,-0.257481,-0.350944,0.530731,-11.306763
1790547735.4546,0.020608,-0.081235,-0.044140,0.014322,-0.078219,-0.044140,0.644903,-0.923377,-0.681216,-2.803935,1.869211,-8.240679
1790547735.4690,0.031482,-0.090294,-0.061706,0.026334,-0.086671,-0.061706,0.745677,-0.692690,-0.839055,-0.082648,1.720491,-9.987182
1790547735.4836,0.035107,-0.095000,-0.079950,0.032475,-0.092502,-0.079950,0.446998,-0.266526,-0.777133,0.492271,1.646131,-8.939280
1790547735.4979,0.045130,-0.105467,-0.083464,0.041334,-0.101577,-0.083464,0.649760,-0.719401,-0.638721,0.223975,-0.064149,-7.619700
1790547735.5126,0.037191,-0.118644,-0.083701,0.038434,-0.113524,-0.083701,0.791814,0.429177,-0.485739,1.642111,-0.659029,-14.178791
1790547735.5276,0.024222,-0.106779,-0.095115,0.028485,-0.108802,-0.095115,-0.728292,0.899050,-0.409248,-0.159304,1.274331,-11.306763
1790547735.5416,0.031801,-0.096098,-0.083135,0.030806,-0.099909,-0.083135,-0.994189,-0.238601,-0.523378,-2.305671,-1.291089,-8.939280
1790547735.5551,0.031928,-0.091250,-0.070552,0.031592,-0.093848,-0.070552,-0.860633,0.353901,-0.620509,-2.037376,-2.741108,-6.494175
1790547735.5691,0.019355,-0.079946,-0.076460,0.023026,-0.084116,-0.076460,-1.060967,0.964614,-0.542804,-0.082648,-1.253909,-8.318301
1790547735.5830,0.013008,-0.070396,-0.066645,0.016014,-0.074512,-0.066645,-0.844849,0.815275,-0.381323,-2.114032,-0.510309,-7.231588
1790547735.5970,0.008047,-0.059310,-0.060376,0.010437,-0.063871,-0.060376,-0.722221,0.638010,-0.371610,-1.807408,1.385871,-8.512357
1790547735.6110,0.019874,-0.064455,-0.058070,0.017043,-0.064280,-0.058070,0.235737,-0.568847,-0.161563,-4.145415,-0.584669,-16.585084
1790547735.6249,0.018873,-0.064594,-0.056921,0.018324,-0.064500,-0.056921,0.005050,-0.050409,0.538997,0.875551,1.199971,-12.471098
1790547735.6393,0.009700,-0.070467,-0.056645,0.012287,-0.068677,-0.056645,0.374149,0.515381,0.600918,0.990535,0.753811,-12.082986
1790547735.6536,0.004756,-0.079377,-0.056141,0.007015,-0.076167,-0.056141,0.687398,0.242199,0.407869,0.798895,1.423051,-9.094525
1790547735.6679,-0.012775,-0.088095,-0.073594,-0.006838,-0.084516,-0.073594,0.644903,0.973113,0.418796,1.910407,0.865351,-7.270399
1790547735.6818,-0.022738,-0.095786,-0.068049,-0.017968,-0.092405,-0.068049,0.616978,0.681719,0.479504,0.568927,1.534591,-10.530539
1790547735.6954,-0.033408,-0.101715,-0.062500,-0.028776,-0.098922,-0.062500,0.574483,0.732713,0.593633,0.645583,1.943571,-8.551168
1790547735.7090,-0.039771,-0.104908,-0.050521,-0.036473,-0.103112,-0.050521,0.398432,0.510525,0.712619,-0.159304,2.538451,-9.560259
1790547735.7226,-0.044606,-0.110457,-0.037121,-0.042166,-0.108253,-0.037121,0.410574,0.413394,0.745401,-0.235960,0.939711,-9.172147
1790547735.7365,-0.048431,-0.112285,-0.027203,-0.046552,-0.111075,-0.027203,0.391147,0.335688,0.636128,-0.274288,4.285911,-11.229140
1790547735.7504,-0.040397,-0.118282,-0.019005,-0.042243,-0.116120,-0.019005,0.347438,-0.485072,0.627629,-0.810880,0.047391,-13.402567
1790547735.7643,-0.029875,-0.112116,-0.013174,-0.033586,-0.113317,-0.013174,-0.514603,-0.818961,0.521999,1.220503,0.121751,-12.781588
1790547735.7782,-0.029048,-0.104807,-0.021854,-0.030410,-0.107360,-0.021854,-0.725863,-0.384298,0.582706,3.405198,-1.179549,-8.939280
1790547735.7923,-0.032132,-0.096595,-0.034056,-0.031615,-0.099824,-0.034056,-0.882488,-0.249528,0.418796,4.593365,-2.183408,-7.386832
1790547735.8062,-0.024929,-0.084361,-0.034817,-0.026935,-0.089000,-0.034817,-0.975977,-0.733971,0.292526,2.255358,-0.064149,-8.745224
1790547735.8205,-0.021285,-0.067594,-0.043257,-0.022980,-0.074015,-0.043257,-1.169025,-0.719401,0.203893,4.631693,0.790991,-7.464455
1790547735.8345,-0.008557,-0.052355,-0.047102,-0.012884,-0.058853,-0.047102,-1.073108,-1.195345,0.218463,2.600310,1.014071,-7.774944
1790547735.8485,-0.013513,-0.048748,-0.057838,-0.013324,-0.051779,-0.057838,-0.198926,0.135355,-0.074145,3.443526,1.943571,-11.500819
1790547735.8625,-0.025505,-0.048769,-0.072867,-0.021850,-0.049672,-0.072867,0.159246,1.042319,-0.590156,-0.964192,3.133331,-12.432287
1790547735.8763,-0.006452,-0.049489,-0.062126,-0.011072,-0.049544,-0.062126,0.192028,-0.975585,-0.716426,-4.298727,3.133331,-12.044175
1790547735.8907,-0.011406,-0.053634,-0.067664,-0.011306,-0.052407,-0.067664,0.319513,0.136569,-0.384966,2.561982,0.976891,-7.464455
1790547735.9047,0.000403,-0.063987,-0.054667,-0.003110,-0.060513,-0.054667,0.652188,-0.611342,-0.461457,-1.347472,-0.064149,-7.153965
1790547735.9186,0.018216,-0.071545,-0.062841,0.011818,-0.068236,-0.062841,0.642475,-1.046005,-0.661790,-1.769080,1.720491,-8.861658
1790547735.9322,0.025112,-0.076670,-0.082648,0.021124,-0.074140,-0.082648,0.514990,-0.498427,-0.830556,0.607255,2.092291,-8.978091
1790547735.9457,0.031340,-0.080580,-0.101555,0.028275,-0.078648,-0.101555,0.425143,-0.428007,-0.814772,0.262303,2.092291,-9.016902
1790547735.9596,0.038764,-0.085046,-0.118376,0.035617,-0.083127,-0.118376,0.399646,-0.491142,-0.860909,0.108991,1.534591,-8.861658
1790547735.9735,0.048799,-0.092016,-0.128560,0.044844,-0.089349,-0.128560,0.510133,-0.650195,-0.664218,-0.695896,1.199971,-13.169700
1790547735.9873,0.040687,-0.094287,-0.139189,0.041934,-0.092805,-0.139189,0.165317,0.633153,-0.650863,-0.274288,1.311511,-15.770049
1790547736.0011,0.041800,-0.084260,-0.132381,0.041840,-0.086824,-0.132381,-0.739219,0.321119,-0.517307,-5.601878,0.828171,-11.462007
1790547736.0150,0.045558,-0.072239,-0.121987,0.044442,-0.076615,-0.121987,-0.992975,0.205775,-0.550089,-3.838791,-0.473129,-6.261308
1790547736.0289,0.041423,-0.062818,-0.125873,0.042328,-0.066957,-0.125873,-0.946837,0.604014,-0.488168,-1.730752,-1.179549,-5.058161
1790547736.0427,0.031462,-0.047973,-0.129915,0.034722,-0.053668,-0.129915,-0.980833,0.911192,-0.516093,-1.117504,1.608951,-6.765853
1790547736.0566,0.019885,-0.038079,-0.140727,0.024336,-0.042756,-0.140727,-0.846063,1.084814,-0.495453,-2.612295,-0.510309,-11.694875
1790547736.0705,0.025725,-0.046497,-0.147976,0.025308,-0.045375,-0.147976,0.434857,-0.305379,-0.185846,-2.343999,-1.848788,-20.233336
1790547736.0847,0.027026,-0.044358,-0.142821,0.026510,-0.044663,-0.142821,-0.088439,-0.279882,0.426081,1.987063,2.278191,-11.578441
1790547736.0988,0.019614,-0.047085,-0.138691,0.021683,-0.046358,-0.138691,0.162889,0.322333,0.653126,1.565455,0.753811,-9.521448
1790547736.1132,0.017917,-0.053558,-0.129047,0.019047,-0.051398,-0.129047,0.529560,0.158424,0.320451,-0.695896,1.683311,-7.969000
1790547736.1275,0.003924,-0.062457,-0.129665,0.008461,-0.059139,-0.129665,0.603622,0.763066,0.342306,2.370342,0.716631,-9.055714
1790547736.1422,-0.004544,-0.073925,-0.119220,-0.000643,-0.069489,-0.119220,0.828239,0.602800,0.520784,-0.695896,1.757671,-10.297672
1790547736.1561,-0.015710,-0.083049,-0.106174,-0.011190,-0.078981,-0.106174,0.739606,0.775208,0.752686,0.032335,1.832031,-8.589979
1790547736.1697,-0.024770,-0.086359,-0.091199,-0.020696,-0.084146,-0.091199,0.357151,0.629511,0.834033,0.223975,2.501271,-9.599070
1790547736.1833,-0.029248,-0.093702,-0.081928,-0.026682,-0.090835,-0.081928,0.451855,0.319905,0.810964,-0.044320,0.121751,-9.793126
1790547736.1973,-0.034604,-0.100907,-0.071716,-0.032228,-0.097886,-0.071716,0.493135,0.386682,0.715047,-0.005993,0.716631,-8.706413
1790547736.2112,-0.026514,-0.107233,-0.063668,-0.028228,-0.104429,-0.063668,0.338939,-0.488714,0.770898,-1.615768,-0.473129,-12.742777
1790547736.2251,-0.019677,-0.103775,-0.056390,-0.022242,-0.103971,-0.056390,-0.347051,-0.642910,0.724760,2.063719,-0.250049,-10.957462
1790547736.2390,-0.017786,-0.098448,-0.052348,-0.019123,-0.100105,-0.052348,-0.611734,-0.373371,0.798823,3.328542,-2.220588,-11.306763
1790547736.2529,-0.015731,-0.088482,-0.047532,-0.016749,-0.091969,-0.047532,-0.881274,-0.448647,0.664053,3.405198,-0.993649,-8.745224
1790547736.2668,-0.006493,-0.075336,-0.044387,-0.009570,-0.080326,-0.044387,-0.966263,-0.923377,0.485574,3.481854,0.790991,-10.452916
1790547736.2808,0.003288,-0.060973,-0.037464,-0.000569,-0.066779,-0.037464,-1.090106,-1.103070,0.303453,4.286742,0.196111,-7.503266
1790547736.2947,0.017132,-0.048040,-0.036162,0.011821,-0.053662,-0.036162,-0.934696,-1.180775,0.269457,2.370342,1.199971,-11.151518
1790547736.3087,-0.000493,-0.057599,-0.040451,0.003201,-0.056417,-0.040451,0.688612,1.169804,0.042412,2.446998,1.683311,-16.080539
1790547736.3226,-0.005191,-0.061550,-0.049410,-0.002674,-0.060010,-0.049410,0.436071,0.560305,-0.666647,-2.343999,3.691031,-13.169700
1790547736.3365,0.006403,-0.060121,-0.056133,0.003680,-0.060088,-0.056133,-0.019233,-0.655052,-0.633865,-1.309144,1.832031,-9.405014
1790547736.3504,0.009802,-0.061647,-0.061746,0.007965,-0.061180,-0.061746,0.132535,-0.244671,-0.325473,0.530599,1.125611,-9.172147
1790547736.3644,0.016061,-0.070355,-0.060108,0.013632,-0.067602,-0.060108,0.572055,-0.315092,-0.377681,-1.117504,0.158931,-9.210958
1790547736.3784,0.028769,-0.076770,-0.060654,0.024228,-0.074020,-0.060654,0.517418,-0.624698,-0.670289,-2.114032,1.088431,-6.532986
1790547736.3926,0.038301,-0.082022,-0.074817,0.034079,-0.079621,-0.074817,0.455497,-0.693904,-0.843911,1.105519,2.055111,-9.831937
1790547736.4068,0.037244,-0.084636,-0.089393,0.036295,-0.083132,-0.089393,0.297658,0.009084,-0.825699,1.527127,2.241011,-8.939280
1790547736.4211,0.046298,-0.090599,-0.099145,0.043297,-0.088359,-0.099145,0.387505,-0.534851,-0.780776,-0.849208,0.493551,-10.685784
1790547736.4351,0.051174,-0.098395,-0.109556,0.048811,-0.095384,-0.109556,0.667972,-0.364872,-0.524592,0.453943,2.315371,-9.793126
1790547736.4494,0.036527,-0.100225,-0.111014,0.040212,-0.098773,-0.111014,0.058472,0.957329,-0.423818,1.872079,-0.324409,-14.799770
1790547736.4635,0.033787,-0.087880,-0.115205,0.035714,-0.091148,-0.115205,-0.890987,0.519024,-0.553731,-5.333582,0.679451,-12.160609
1790547736.4773,0.034664,-0.075635,-0.117003,0.034979,-0.080289,-0.117003,-1.068251,0.168137,-0.563444,-2.229015,-1.328269,-8.240679
1790547736.4912,0.026635,-0.065325,-0.120971,0.029138,-0.069814,-0.120971,-0.926197,0.753353,-0.471170,-1.079176,-0.956469,-5.912007
1790547736.5051,0.018059,-0.052551,-0.124138,0.021383,-0.057730,-0.124138,-0.965049,0.827416,-0.446887,-1.577440,0.233291,-7.115154
1790547736.5190,0.009177,-0.038406,-0.128229,0.012839,-0.044203,-0.128229,-0.856991,0.701145,-0.432317,0.070663,2.947431,-8.357112
1790547736.5329,0.023238,-0.044346,-0.131125,0.020118,-0.044303,-0.131125,0.280660,-0.865098,-0.154279,-3.877119,-1.885968,-21.281238
1790547736.5469,0.024375,-0.041010,-0.121534,0.023098,-0.041998,-0.121534,-0.156431,-0.094118,0.410297,-0.465928,2.241011,-9.366203
1790547736.5609,0.022129,-0.040997,-0.112783,0.022420,-0.041297,-0.112783,-0.008305,0.072220,0.668910,0.147319,1.051251,-9.366203
1790547736.5748,0.028586,-0.043827,-0.109594,0.026736,-0.043068,-0.109594,0.098539,-0.462003,0.404227,-0.695896,-0.250049,-9.016902
1790547736.5886,0.014284,-0.050568,-0.115259,0.018019,-0.048318,-0.115259,0.445784,0.777636,0.392085,3.520182,0.530731,-10.685784
1790547736.6025,-0.001466,-0.061372,-0.113409,0.004380,-0.057456,-0.113409,0.752962,0.980398,0.509857,1.987063,0.865351,-11.384385
1790547736.6161,-0.014568,-0.069861,-0.102955,-0.008884,-0.066140,-0.102955,0.667972,0.941545,0.700477,-0.120976,1.720491,-9.599070
1790547736.6298,-0.026337,-0.075040,-0.090692,-0.021101,-0.072370,-0.090692,0.446998,0.846842,0.740544,-0.159304,2.129471,-9.366203
1790547736.6437,-0.032450,-0.080545,-0.079386,-0.029045,-0.078092,-0.079386,0.426358,0.449818,0.660411,-0.312616,1.646131,-9.443825
1790547736.6578,-0.026229,-0.086443,-0.069189,-0.027074,-0.083938,-0.069189,0.400861,-0.520282,0.672552,1.105519,1.311511,-12.509909
1790547736.6717,-0.019504,-0.086685,-0.062797,-0.021775,-0.085861,-0.062797,-0.072655,-0.526352,0.520784,0.568927,-0.175689,-11.927742
1790547736.6857,-0.016681,-0.086123,-0.058630,-0.018209,-0.086044,-0.058630,-0.228065,-0.398868,0.661625,2.715294,-1.700068,-10.569350
1790547736.6996,-0.014921,-0.082408,-0.053739,-0.015907,-0.083499,-0.053739,-0.455110,-0.375799,0.682265,3.060246,-1.514168,-9.133336
1790547736.7138,-0.013246,-0.075338,-0.048913,-0.014044,-0.077787,-0.048913,-0.674869,-0.407367,0.606988,2.906934,-1.105189,-7.037532
1790547736.7278,-0.006127,-0.063638,-0.047351,-0.008502,-0.067883,-0.047351,-0.935910,-0.746112,0.421225,3.213558,-0.324409,-9.870749
1790547736.7415,-0.000114,-0.048943,-0.050289,-0.002631,-0.054625,-0.050289,-1.150813,-0.741256,0.112833,4.133430,-0.101329,-8.745224
1790547736.7554,0.008787,-0.032487,-0.061199,0.005362,-0.039128,-0.061199,-1.145956,-0.851743,0.021772,2.906934,1.720491,-9.210958
1790547736.7693,-0.006455,-0.035969,-0.049041,-0.002910,-0.036917,-0.049041,0.082755,0.962186,-0.262337,4.363398,-1.811608,-14.139979
1790547736.7832,-0.006689,-0.041774,-0.047229,-0.005555,-0.040317,-0.047229,0.490707,0.315048,-0.873051,-2.382327,1.906391,-9.715504
1790547736.7971,0.002959,-0.045758,-0.074703,0.000405,-0.044126,-0.074703,0.489493,-0.673264,-0.627794,0.683911,3.133331,-7.969000
1790547736.8108,0.001454,-0.050608,-0.085656,0.001139,-0.048663,-0.085656,0.375364,0.034581,-0.341256,1.872079,1.274331,-9.948371
1790547736.8248,0.016099,-0.060490,-0.090273,0.011611,-0.056942,-0.090273,0.748105,-0.905165,-0.608368,-1.232488,1.608951,-10.724595
1790547736.8388,0.029705,-0.067504,-0.111226,0.024277,-0.064335,-0.111226,0.618192,-0.962229,-0.716426,0.645583,2.166651,-8.279490
1790547736.8524,0.031981,-0.073542,-0.132461,0.029670,-0.070780,-0.132461,0.548986,-0.207033,-0.823271,1.105519,1.683311,-7.037532
1790547736.8660,0.038931,-0.076198,-0.154386,0.036152,-0.074573,-0.154386,0.308586,-0.481429,-0.879121,0.377287,1.980751,-7.774944
1790547736.8799,0.045809,-0.082536,-0.166429,0.042912,-0.080147,-0.166429,0.446998,-0.447433,-0.846340,0.108991,0.828171,-9.521448
1790547736.8941,0.050529,-0.090043,-0.182001,0.048244,-0.087074,-0.182001,0.603622,-0.287166,-0.568301,-0.350944,2.129471,-10.879840
1790547736.9082,0.034286,-0.084931,-0.197723,0.038473,-0.085574,-0.197723,-0.296057,1.146735,-0.621723,1.373815,3.579491,-18.797322
1790547736.9221,0.037118,-0.072534,-0.170345,0.037525,-0.076446,-0.170345,-0.917698,0.142640,-0.556160,-6.138470,0.976891,-12.005364
1790547736.9360,0.032865,-0.060631,-0.148814,0.034263,-0.065375,-0.148814,-1.030613,0.583373,-0.550089,-2.727279,-1.179549,-7.619700
1790547736.9500,0.026773,-0.049451,-0.149687,0.029020,-0.054229,-0.149687,-0.854562,0.625868,-0.446887,-0.887536,0.158931,-4.243126
1790547736.9638,0.016885,-0.040141,-0.149988,0.020526,-0.044367,-0.149988,-0.748932,0.894194,-0.408034,-1.040848,0.047391,-5.912007
1790547736.9777,0.007465,-0.030857,-0.155032,0.011383,-0.034910,-0.155032,-0.650587,0.784921,-0.327901,-0.619240,1.274331,-8.589979
1790547736.9915,0.016594,-0.035814,-0.147939,0.015031,-0.035543,-0.147939,0.230881,-0.602843,0.015701,-1.194160,-0.882109,-14.450469
1790547737.0054,0.022450,-0.033852,-0.139839,0.020224,-0.034359,-0.139839,-0.139433,-0.471716,0.500144,-0.235960,1.423051,-10.452916
1790547737.0195,0.018977,-0.039166,-0.129843,0.019351,-0.037724,-0.129843,0.289159,0.107430,0.711405,0.952207,-0.101329,-11.151518
1790547737.0333,0.014356,-0.046128,-0.124504,0.015855,-0.043607,-0.124504,0.521061,0.356329,0.320451,-0.350944,0.679451,-4.553616
1790547737.0473,0.000385,-0.051491,-0.132035,0.005026,-0.049126,-0.132035,0.454283,0.807990,0.291312,2.140375,1.720491,-7.580888
1790547737.0612,-0.011959,-0.059264,-0.130879,-0.006863,-0.056222,-0.130879,0.565984,0.781279,0.381158,1.450471,1.199971,-9.754315
1790547737.0752,-0.023334,-0.067538,-0.129318,-0.018393,-0.064144,-0.129318,0.670400,0.742426,0.577849,0.798895,2.501271,-10.103616
1790547737.0889,-0.031929,-0.073099,-0.125231,-0.027868,-0.070412,-0.125231,0.471281,0.576089,0.678623,0.492271,2.389731,-10.142427
1790547737.1025,-0.035591,-0.079617,-0.117840,-0.033274,-0.076856,-0.117840,0.483422,0.291979,0.621558,-0.504256,1.423051,-9.909560
1790547737.1164,-0.035113,-0.088219,-0.110479,-0.034561,-0.084810,-0.110479,0.602408,-0.018841,0.528069,-0.274288,1.088431,-11.267951
1790547737.1308,-0.025517,-0.091754,-0.099700,-0.028230,-0.089671,-0.099700,0.166531,-0.681763,0.551138,0.108991,-0.026969,-12.742777
1790547737.1457,-0.018977,-0.088598,-0.088540,-0.021753,-0.088920,-0.088540,-0.322768,-0.533637,0.506215,1.373815,-0.659029,-9.909560
1790547737.1599,-0.014878,-0.081967,-0.076385,-0.016940,-0.084053,-0.076385,-0.627518,-0.553064,0.558423,3.366870,-1.216729,-8.163056
1790547737.1739,-0.011366,-0.074047,-0.066171,-0.013038,-0.077049,-0.066171,-0.729506,-0.515425,0.494073,3.750150,-1.439808,-9.133336
1790547737.1882,-0.001514,-0.061599,-0.068375,-0.004971,-0.066234,-0.068375,-0.905556,-0.936732,0.333807,3.405198,0.493551,-8.978091
1790547737.2023,0.007789,-0.047337,-0.071698,0.003961,-0.053006,-0.071698,-1.041540,-0.962229,0.179610,3.635166,0.493551,-7.425644
1790547737.2163,0.020025,-0.033794,-0.072668,0.015206,-0.039558,-0.072668,-0.979619,-1.084858,0.157756,2.102047,0.753811,-7.037532
1790547737.2304,0.008432,-0.040378,-0.067578,0.010464,-0.040132,-0.067578,0.392362,0.770351,-0.106927,2.485326,0.158931,-18.448022
1790547737.2446,0.001112,-0.048239,-0.079406,0.003917,-0.045807,-0.079406,0.604836,0.668363,-0.697000,-1.309144,2.649991,-15.731238
1790547737.2587,0.011977,-0.046134,-0.093493,0.009559,-0.046036,-0.093493,-0.087225,-0.642910,-0.780776,-0.619240,2.278191,-12.199420
1790547737.2728,0.020686,-0.048486,-0.098728,0.017348,-0.047751,-0.098728,0.175030,-0.566419,-0.425032,-0.044320,0.642271,-5.368651
1790547737.2871,0.027692,-0.062726,-0.092953,0.024589,-0.058233,-0.092953,0.929012,-0.389154,-0.440816,-0.772552,0.047391,-9.016902
1790547737.3012,0.046962,-0.074834,-0.093407,0.040250,-0.069854,-0.093407,0.873162,-1.100642,-0.762564,-2.842263,1.014071,-8.007811
1790547737.3150,0.057903,-0.081657,-0.124876,0.052607,-0.078116,-0.124876,0.602408,-0.884524,-0.885192,1.757095,2.166651,-8.163056
1790547737.3288,0.060252,-0.087092,-0.150863,0.057959,-0.084399,-0.150863,0.479780,-0.279882,-0.866980,1.987063,1.980751,-8.163056
1790547737.3429,0.069126,-0.094854,-0.166261,0.065776,-0.091718,-0.166261,0.555057,-0.599201,-0.792917,-0.044320,1.348691,-11.500819
1790547737.3567,0.053282,-0.100783,-0.165490,0.057030,-0.098063,-0.165490,0.309800,1.093313,-0.832984,2.293686,-0.919289,-15.653616
1790547737.3705,0.051572,-0.093751,-0.168218,0.053210,-0.095045,-0.168218,-0.541314,0.328404,-0.720069,-3.953775,0.790991,-14.334035
1790547737.3846,0.057584,-0.083271,-0.142181,0.056272,-0.086803,-0.142181,-0.897057,-0.044338,-0.661790,-4.643678,-1.068009,-7.192776
1790547737.3990,0.058824,-0.067578,-0.136939,0.058058,-0.073345,-0.136939,-1.284369,0.278624,-0.564659,-3.302199,-1.253909,-5.213406
1790547737.4130,0.051418,-0.049657,-0.137994,0.053410,-0.056763,-0.137994,-1.394856,0.690218,-0.574372,-1.040848,-0.175689,-5.989630
1790547737.4270,0.038072,-0.039578,-0.141059,0.042674,-0.044734,-0.141059,-0.917698,1.122453,-0.563444,-1.155832,-1.253909,-7.348021
1790547737.4409,0.028238,-0.027662,-0.160298,0.032568,-0.032784,-0.160298,-0.697938,0.959757,-0.602297,-2.190688,2.947431,-7.115154
1790547737.4548,0.038713,-0.034425,-0.157200,0.036870,-0.033933,-0.157200,0.343796,-0.630769,-0.170062,-3.340527,-1.848788,-18.991378
1790547737.4688,0.035423,-0.033552,-0.162255,0.035857,-0.033667,-0.162255,-0.002235,0.140212,0.216035,1.105519,2.501271,-11.384385
1790547737.4826,0.031795,-0.032437,-0.158771,0.033013,-0.032806,-0.158771,-0.075083,0.135355,0.570564,0.837223,1.385871,-10.685784
1790547737.4967,0.034876,-0.037430,-0.146890,0.034317,-0.036043,-0.146890,0.247879,-0.098974,0.280384,-1.577440,-0.324409,-6.106063
1790547737.5107,0.024430,-0.042739,-0.163114,0.027396,-0.040730,-0.163114,0.377792,0.546949,0.226962,2.638638,1.051251,-9.560259
1790547737.5245,0.015200,-0.053025,-0.163304,0.018859,-0.049337,-0.163304,0.746891,0.602800,0.267029,0.683911,1.237151,-10.491728
1790547737.5382,0.003725,-0.061254,-0.164274,0.008265,-0.057679,-0.164274,0.706824,0.784921,0.441865,0.453943,2.649991,-9.831937
1790547737.5526,-0.006905,-0.065475,-0.156980,-0.002354,-0.063136,-0.156980,0.343796,0.724214,0.591205,-0.350944,1.980751,-9.676693
1790547737.5680,-0.010843,-0.073015,-0.143315,-0.008296,-0.070051,-0.143315,0.479780,0.299264,0.594847,-1.155832,0.939711,-8.900469
1790547737.5828,-0.003515,-0.080350,-0.129513,-0.004949,-0.077260,-0.129513,0.405717,-0.502070,0.639770,-0.657568,-0.398769,-13.169700
1790547737.5975,0.005959,-0.078593,-0.121058,0.002687,-0.078193,-0.121058,-0.139433,-0.701189,0.551138,0.415615,0.939711,-12.665154
1790547737.6127,0.005478,-0.071017,-0.126398,0.004640,-0.073170,-0.126398,-0.580166,-0.216746,0.664053,3.021918,-0.361589,-8.512357
1790547737.6269,0.005768,-0.061123,-0.129106,0.005430,-0.064737,-0.129106,-0.819352,-0.302950,0.605774,3.328542,-0.807749,-8.434735
1790547737.6409,0.016555,-0.050711,-0.126023,0.013218,-0.054919,-0.126023,-0.864276,-0.986512,0.413940,2.408670,-0.696209,-8.589979
1790547737.6552,0.023562,-0.040135,-0.135354,0.020459,-0.044571,-0.135354,-0.779286,-0.849314,0.372659,3.980118,0.233291,-7.076343
1790547737.6693,0.036427,-0.029222,-0.139667,0.031637,-0.033826,-0.139667,-0.762288,-1.127353,0.318023,1.872079,1.014071,-7.386832
1790547737.6833,0.028857,-0.029926,-0.147098,0.029691,-0.031096,-0.147098,0.058472,0.324761,0.141972,4.095102,1.683311,-12.626343
1790547737.6972,0.024444,-0.033575,-0.160375,0.026018,-0.032831,-0.160375,0.336511,0.384254,-0.412891,-0.312616,3.319231,-13.635434
1790547737.7111,0.030172,-0.034444,-0.173847,0.028926,-0.033960,-0.173847,0.102182,-0.310235,-0.749208,-0.274288,2.241011,-11.888930
1790547737.7252,0.038428,-0.038516,-0.175489,0.035577,-0.037149,-0.175489,0.251521,-0.595559,-0.358254,0.492271,0.530731,-7.852567
1790547737.7390,0.045451,-0.051193,-0.169584,0.042489,-0.046980,-0.169584,0.854950,-0.465645,-0.224699,-0.350944,0.270471,-8.434735
1790547737.7530,0.054281,-0.062285,-0.173178,0.050743,-0.057693,-0.173178,0.885303,-0.432864,-0.621723,-1.922392,2.055111,-7.386832
1790547737.7665,0.070185,-0.067117,-0.191729,0.064352,-0.064290,-0.191729,0.522275,-1.060575,-0.800202,-0.887536,2.724351,-6.843476
1790547737.7800,0.070252,-0.073323,-0.201180,0.068482,-0.070613,-0.201180,0.466424,-0.177894,-0.826913,3.021918,1.385871,-8.279490
1790547737.7936,0.079172,-0.082110,-0.209775,0.075965,-0.078661,-0.209775,0.613335,-0.601629,-0.697000,-0.619240,0.902531,-11.811308
1790547737.8076,0.075365,-0.091631,-0.226807,0.075545,-0.087740,-0.226807,0.760247,0.321119,-0.517307,-0.695896,2.352551,-10.297672
1790547737.8215,0.061585,-0.095802,-0.221941,0.065773,-0.093384,-0.221941,0.205384,1.104240,-0.495453,-2.688951,-0.510309,-16.080539
1790547737.8356,0.065836,-0.086814,-0.202545,0.065817,-0.088785,-0.202545,-0.738005,-0.045552,-0.530663,-5.180270,-0.435949,-12.626343
1790547737.8495,0.067142,-0.075535,-0.181367,0.066744,-0.079510,-0.181367,-0.999045,0.151139,-0.540376,-2.918919,-1.439808,-7.891378
1790547737.8634,0.063795,-0.062125,-0.168552,0.064680,-0.067341,-0.168552,-1.211520,0.420678,-0.507594,-1.347472,-1.514168,-5.523895
1790547737.8774,0.056985,-0.047135,-0.165782,0.059294,-0.053197,-0.165782,-1.192094,0.642866,-0.479669,-1.424128,-0.324409,-7.697322
1790547737.8915,0.047976,-0.034824,-0.162652,0.051371,-0.040336,-0.162652,-1.094963,0.834701,-0.336400,-2.612295,-2.294948,-9.637881
1790547737.9056,0.047933,-0.024558,-0.158823,0.048964,-0.029291,-0.158823,-0.869132,0.272553,-0.417747,-4.796990,-1.142369,-12.742777
1790547737.9200,0.058332,-0.032391,-0.168022,0.055522,-0.031461,-0.168022,0.368079,-0.772823,0.018130,0.338959,-3.150088,-17.788231
1790547737.9346,0.052709,-0.028146,-0.188752,0.053553,-0.029140,-0.188752,-0.186784,0.206989,0.301025,1.757095,2.687171,-9.133336
1790547737.9486,0.050258,-0.023236,-0.187473,0.051246,-0.025008,-0.187473,-0.274202,0.026082,0.695621,0.415615,1.683311,-7.309210
1790547737.9627,0.048089,-0.029034,-0.165643,0.049036,-0.027826,-0.165643,0.284303,0.264054,0.328950,-1.462456,-0.510309,-5.756762
1790547737.9770,0.038402,-0.033073,-0.197453,0.041592,-0.031499,-0.197453,0.375364,0.415822,0.301025,2.753622,2.129471,-7.852567
1790547737.9911,0.026032,-0.039399,-0.200417,0.030700,-0.037029,-0.200417,0.500420,0.798277,0.359303,0.683911,2.055111,-10.375294
1790547738.0048,0.018056,-0.045376,-0.200275,0.021849,-0.042872,-0.200275,0.522275,0.532379,0.386015,0.108991,2.241011,-8.628791
1790547738.0185,0.011455,-0.049198,-0.196736,0.014574,-0.047300,-0.196736,0.321941,0.432820,0.463720,0.147319,1.906391,-10.297672
1790547738.0324,0.006347,-0.054070,-0.192252,0.008815,-0.052039,-0.192252,0.355937,0.285909,0.541425,0.453943,1.125611,-8.551168
1790547738.0464,0.000454,-0.057600,-0.190028,0.002963,-0.055932,-0.190028,0.296444,0.323547,0.591205,0.683911,1.571771,-8.163056
1790547738.0605,0.001576,-0.058279,-0.189459,0.001992,-0.057575,-0.189459,0.194456,-0.154825,0.511071,0.683911,4.360271,-11.617252
1790547738.0747,0.014562,-0.055231,-0.180614,0.010791,-0.055934,-0.180614,-0.229279,-0.997440,0.585134,0.492271,1.423051,-13.984735
1790547738.0887,0.017842,-0.046571,-0.177198,0.015727,-0.049380,-0.177198,-0.660300,-0.424365,0.485574,2.791950,0.567911,-12.238231
1790547738.1030,0.021040,-0.036187,-0.170546,0.019446,-0.040145,-0.170546,-0.825423,-0.438934,0.359303,2.217030,-0.287229,-7.580888
1790547738.1169,0.030987,-0.024175,-0.170601,0.027525,-0.028966,-0.170601,-0.933482,-0.944017,0.072766,2.102047,0.121751,-6.106063
1790547738.1308,0.036799,-0.016570,-0.174439,0.034017,-0.020289,-0.174439,-0.559526,-0.508140,-0.037721,1.872079,1.571771,-13.713056
1790547738.1449,0.024642,-0.021448,-0.187169,0.027455,-0.021101,-0.187169,0.372935,0.882052,-0.378895,1.220503,2.947431,-16.352217
1790547738.1591,0.019924,-0.020636,-0.210270,0.022183,-0.020775,-0.210270,0.009907,0.398824,-0.914332,1.412143,3.244871,-13.480189
1790547738.1733,0.029902,-0.020866,-0.210816,0.027586,-0.020839,-0.210816,-0.003449,-0.497213,-0.848768,-1.232488,0.939711,-8.046623
1790547738.1873,0.032574,-0.025046,-0.211524,0.031078,-0.023784,-0.211524,0.212669,-0.198534,-0.478455,0.837223,0.047391,-7.386832
1790547738.2013,0.040113,-0.035459,-0.201836,0.037402,-0.031956,-0.201836,0.652188,-0.378227,-0.564659,-1.347472,0.010211,-9.210958
1790547738.2153,0.054066,-0.043255,-0.218572,0.049067,-0.039865,-0.218572,0.691041,-0.838387,-0.864552,-1.079176,2.835891,-7.619700
1790547738.2288,0.062432,-0.047045,-0.241823,0.058423,-0.044891,-0.241823,0.311014,-0.572490,-1.106166,0.875551,2.203831,-10.414105
1790547738.2424,0.062336,-0.051186,-0.262672,0.061162,-0.049298,-0.262672,0.300087,-0.028554,-1.001750,2.025391,1.608951,-10.297672
1790547738.2564,0.069685,-0.056241,-0.276147,0.067128,-0.054158,-0.276147,0.311014,-0.494785,-0.955612,0.607255,0.753811,-9.366203
1790547738.2703,0.076840,-0.064872,-0.285654,0.073926,-0.061658,-0.285654,0.564770,-0.493571,-0.769849,0.338959,0.605091,-9.987182
1790547738.2842,0.072425,-0.070389,-0.305329,0.072875,-0.067769,-0.305329,0.506491,0.251913,-0.376467,1.220503,3.058971,-10.491728
1790547738.2982,0.058229,-0.064341,-0.311000,0.062623,-0.065369,-0.311000,-0.473322,0.991325,-0.394679,1.105519,0.939711,-14.411658
1790547738.3122,0.051331,-0.052159,-0.294602,0.054719,-0.056122,-0.294602,-0.957764,0.710858,-0.410463,-3.723807,0.121751,-12.160609
1790547738.3261,0.049383,-0.042549,-0.264610,0.050984,-0.046621,-0.264610,-0.848492,0.451032,-0.513665,-3.723807,-0.882109,-8.434735
1790547738.3402,0.035108,-0.026866,-0.276541,0.039871,-0.032792,-0.276541,-1.030613,1.145521,-0.381323,-0.389272,0.865351,-2.923546
1790547738.3541,0.026653,-0.015224,-0.287102,0.030619,-0.020494,-0.287102,-0.759859,0.655008,-0.261123,-0.120976,1.869211,-6.998721
1790547738.3679,0.036554,-0.030393,-0.266600,0.034774,-0.027424,-0.266600,0.939940,-0.701189,0.213606,-1.922392,-2.629568,-21.281238
1790547738.3818,0.032597,-0.031526,-0.260275,0.033250,-0.030296,-0.260275,0.131321,0.255555,0.576635,-0.772552,2.017931,-9.909560
1790547738.3958,0.030843,-0.030065,-0.248836,0.031565,-0.030134,-0.248836,-0.120006,0.005442,0.786682,0.262303,1.088431,-11.112707
1790547738.4103,0.036381,-0.037862,-0.220805,0.034936,-0.035544,-0.220805,0.405717,-0.236172,0.549924,-2.688951,-0.770569,-6.882287
1790547738.4247,0.023352,-0.047568,-0.227660,0.026827,-0.043961,-0.227660,0.507705,0.678077,0.429724,1.105519,-0.696209,-3.505713
1790547738.4386,0.009313,-0.059075,-0.224431,0.014567,-0.054541,-0.224431,0.784529,0.865054,0.627629,1.450471,0.456371,-10.530539
1790547738.4526,0.000406,-0.068063,-0.220181,0.004655,-0.064006,-0.220181,0.715323,0.573660,0.774540,0.070663,2.241011,-9.599070
1790547738.4663,-0.013163,-0.073374,-0.213753,-0.007818,-0.070564,-0.213753,0.466424,0.968256,0.830391,-0.389272,2.241011,-8.784035
1790547738.4800,-0.016753,-0.078009,-0.200809,-0.014072,-0.075776,-0.200809,0.381434,0.322333,0.746615,-1.424128,1.869211,-9.172147
1790547738.4941,-0.017242,-0.083418,-0.190150,-0.016291,-0.081125,-0.190150,0.420287,0.054007,0.707762,-0.849208,1.943571,-10.375294
1790547738.5082,-0.012986,-0.085676,-0.180069,-0.013978,-0.084310,-0.180069,0.099753,-0.364872,0.634914,0.798895,0.270471,-12.665154
1790547738.5224,-0.008775,-0.081225,-0.175588,-0.010336,-0.082150,-0.175588,-0.396831,-0.485072,0.694407,2.753622,-0.212869,-10.841028
1790547738.5364,-0.008508,-0.076220,-0.167715,-0.009056,-0.077999,-0.167715,-0.518245,-0.232530,0.698049,2.906934,-1.514168,-9.754315
1790547738.5506,-0.003099,-0.068888,-0.161022,-0.004886,-0.071621,-0.161022,-0.673655,-0.563991,0.457649,1.987063,-1.142369,-7.348021
1790547738.5647,0.003388,-0.056821,-0.168566,0.000906,-0.061261,-0.168566,-0.910413,-0.707260,0.353233,3.098574,0.158931,-8.395923
1790547738.5787,0.009715,-0.042935,-0.173375,0.007072,-0.048433,-0.173375,-1.040326,-0.648981,0.173540,2.791950,0.307651,-9.210958
1790547738.5926,0.021308,-0.029062,-0.181923,0.017037,-0.034873,-0.181923,-1.007544,-1.054504,0.081265,3.021918,0.790991,-8.589979
1790547738.6069,0.011884,-0.030293,-0.188863,0.013430,-0.031667,-0.188863,0.034190,0.536022,-0.239269,4.363398,0.493551,-15.149070
1790547738.6210,0.006249,-0.035533,-0.199086,0.008403,-0.034373,-0.199086,0.393576,0.546949,-0.828127,-0.580912,2.092291,-14.916203
1790547738.6350,0.025383,-0.043985,-0.207351,0.020289,-0.041101,-0.207351,0.704396,-1.198987,-0.680002,-1.769080,2.947431,-10.608161
1790547738.6492,0.016673,-0.047470,-0.234071,0.017758,-0.045559,-0.234071,0.380220,0.480171,-0.320616,2.446998,2.649991,-8.124245
1790547738.6633,0.026012,-0.057549,-0.222593,0.023536,-0.053952,-0.222593,0.681327,-0.480215,-0.431103,-2.037376,0.605091,-9.210958
1790547738.6773,0.041825,-0.061899,-0.237337,0.036338,-0.059515,-0.237337,0.415430,-1.002296,-0.710356,-1.117504,2.538451,-9.094525
1790547738.6910,0.045932,-0.068479,-0.255105,0.043054,-0.065790,-0.255105,0.495564,-0.315092,-0.869408,1.258831,1.274331,-9.560259
1790547738.7047,0.052416,-0.073137,-0.273103,0.049607,-0.070932,-0.273103,0.377792,-0.415866,-0.876693,-0.005993,1.311511,-7.658511
1790547738.7187,0.060199,-0.079351,-0.288450,0.057022,-0.076826,-0.288450,0.440927,-0.516639,-0.868194,0.147319,0.865351,-7.425644
1790547738.7326,0.069922,-0.088052,-0.299659,0.066052,-0.084684,-0.299659,0.603622,-0.672050,-0.771063,-0.005993,0.976891,-12.587532
1790547738.7466,0.058659,-0.090509,-0.313045,0.060877,-0.088761,-0.313045,0.162889,0.818917,-0.699428,0.492271,1.460231,-15.653616
1790547738.7605,0.054574,-0.077088,-0.298680,0.056465,-0.080590,-0.298680,-0.989332,0.566375,-0.533091,-5.793518,1.311511,-13.519000
1790547738.7743,0.056818,-0.064792,-0.260266,0.056712,-0.069531,-0.260266,-0.963835,0.265268,-0.510022,-5.410238,0.158931,-6.882287
1790547738.7883,0.048504,-0.052723,-0.261498,0.050967,-0.057765,-0.261498,-0.880059,0.794634,-0.428675,-1.194160,0.493551,-4.359560
1790547738.8022,0.031416,-0.036663,-0.297698,0.037281,-0.042994,-0.297698,-0.830280,1.262079,-0.473598,0.223975,3.802571,-4.786483
1790547738.8163,0.026396,-0.033717,-0.294554,0.029662,-0.036500,-0.294554,-0.303342,0.404895,-0.257481,-0.465928,-0.473129,-21.281238
1790547738.8305,0.032850,-0.040560,-0.291148,0.031893,-0.039342,-0.291148,0.482208,-0.516639,0.214821,0.683911,1.832031,-15.614805
1790547738.8443,0.028316,-0.040438,-0.281981,0.029389,-0.040109,-0.281981,-0.003449,0.242199,0.706548,-0.005993,1.311511,-10.569350
1790547738.8583,0.029635,-0.044609,-0.255872,0.029561,-0.043259,-0.255872,0.128893,-0.134185,0.808536,-0.734224,-1.253909,-7.852567
1790547738.8724,0.031364,-0.048181,-0.240011,0.030823,-0.046704,-0.240011,0.190814,-0.045552,0.496502,-1.500784,0.047391,-6.571797
1790547738.8862,0.014199,-0.054621,-0.249452,0.019186,-0.052246,-0.249452,0.472495,0.894194,0.602132,1.603783,0.307651,-3.001168
1790547738.9002,0.003382,-0.064741,-0.243300,0.008123,-0.060992,-0.243300,0.755390,0.750925,0.621558,-0.350944,1.460231,-8.861658
1790547738.9145,-0.009501,-0.074077,-0.236415,-0.004214,-0.070151,-0.236415,0.678899,0.799491,0.861958,0.760567,1.720491,-10.181238
1790547738.9284,-0.019561,-0.077503,-0.228317,-0.014957,-0.075298,-0.228317,0.285517,0.691432,0.880170,-0.274288,2.241011,-11.073895
1790547738.9422,-0.021656,-0.081838,-0.216565,-0.019646,-0.079876,-0.216565,0.292802,0.176636,0.716261,-0.849208,0.976891,-10.025993
1790547738.9562,-0.016552,-0.088952,-0.192623,-0.017480,-0.086229,-0.192623,0.320727,-0.319948,0.705334,-1.424128,-2.146228,-12.160609
1790547738.9702,-0.012965,-0.088478,-0.182920,-0.014319,-0.087803,-0.182920,-0.106651,-0.315092,0.543853,0.837223,-0.101329,-12.238231
1790547738.9844,-0.008464,-0.086720,-0.174445,-0.010220,-0.087045,-0.174445,-0.265703,-0.509354,0.630057,2.676966,-1.253909,-9.405014
1790547738.9985,-0.003951,-0.080530,-0.166566,-0.005832,-0.082484,-0.166566,-0.582595,-0.532423,0.636128,2.523654,-1.105189,-8.201867
1790547739.0125,-0.000359,-0.069331,-0.162794,-0.002001,-0.073277,-0.162794,-0.921340,-0.510569,0.593633,3.596838,-0.956469,-9.599070
1790547739.0265,0.007067,-0.057016,-0.164492,0.004347,-0.061894,-0.164492,-0.946837,-0.760682,0.327736,3.558510,-0.138509,-10.025993
1790547739.0404,0.015253,-0.041632,-0.171972,0.011981,-0.047711,-0.171972,-1.138672,-0.822603,0.103120,3.290214,0.530731,-8.784035
1790547739.0546,0.026550,-0.024663,-0.184539,0.022179,-0.031577,-0.184539,-1.154455,-1.002296,0.005988,3.520182,1.906391,-10.297672
1790547739.0687,0.013880,-0.028134,-0.175845,0.016370,-0.029167,-0.175845,0.119180,0.890551,-0.258695,1.910407,-1.030829,-16.468651
1790547739.0827,0.008696,-0.036167,-0.180949,0.010998,-0.034067,-0.180949,0.578125,0.580945,-0.875479,-1.615768,1.497411,-12.044175
1790547739.0971,0.025605,-0.039788,-0.239299,0.021223,-0.038071,-0.239299,0.623049,-1.342256,-0.791703,2.063719,3.244871,-3.505713
1790547739.1110,0.024457,-0.043339,-0.235888,0.023487,-0.041759,-0.235888,0.216311,-0.091690,-0.371610,2.868606,0.493551,-7.386832
1790547739.1249,0.036595,-0.053817,-0.234371,0.032663,-0.050200,-0.234371,0.749319,-0.701189,-0.518521,-2.343999,1.348691,-11.500819
1790547739.1389,0.052412,-0.062141,-0.257150,0.046487,-0.058559,-0.257150,0.711681,-1.110355,-0.637507,0.262303,2.166651,-7.464455
1790547739.1528,0.059696,-0.069996,-0.280193,0.055733,-0.066565,-0.280193,0.660687,-0.573704,-0.811129,1.297159,2.055111,-7.658511
1790547739.1669,0.065964,-0.073492,-0.302433,0.062895,-0.071414,-0.302433,0.321941,-0.438934,-0.798988,0.530599,1.943571,-8.046623
1790547739.1811,0.074861,-0.081521,-0.310352,0.071271,-0.078489,-0.310352,0.507705,-0.562777,-0.818414,-0.427600,0.493551,-10.142427
1790547739.1952,0.071338,-0.090001,-0.331810,0.071318,-0.086547,-0.331810,0.731107,0.249484,-0.480883,0.185647,3.207691,-10.491728
1790547739.2095,0.051762,-0.084904,-0.337885,0.057629,-0.085397,-0.337885,-0.376190,1.351925,-0.410463,0.990535,1.199971,-15.459560
1790547739.2235,0.051730,-0.071966,-0.307666,0.053500,-0.075995,-0.307666,-1.016043,0.300478,-0.384966,-5.908502,0.010211,-11.500819
1790547739.2374,0.044646,-0.063489,-0.284716,0.047302,-0.067241,-0.284716,-0.802354,0.635582,-0.365539,-1.079176,-1.105189,-6.688231
1790547739.2514,0.037083,-0.052341,-0.267951,0.040149,-0.056811,-0.267951,-0.877631,0.846842,-0.281764,-2.075704,0.010211,-4.126693
1790547739.2656,0.024180,-0.044063,-0.262794,0.028971,-0.047887,-0.262794,-0.665156,1.045962,-0.292691,-1.232488,-0.064149,-7.542077
1790547739.2797,0.020962,-0.037697,-0.272706,0.023365,-0.040754,-0.272706,-0.361621,0.334474,-0.219842,-1.309144,2.724351,-10.025993
1790547739.2937,0.029187,-0.041991,-0.262181,0.027441,-0.041620,-0.262181,0.287945,-0.397653,0.196608,-5.218598,1.274331,-13.596623
1790547739.3076,0.028055,-0.040380,-0.252532,0.027871,-0.040752,-0.252532,-0.110293,-0.000629,0.708976,-0.082648,1.460231,-11.578441
1790547739.3219,0.023189,-0.045254,-0.235421,0.024594,-0.043903,-0.235421,0.240594,0.227630,0.762399,0.453943,-0.473129,-9.948371
1790547739.3360,0.013640,-0.055516,-0.232155,0.016926,-0.052032,-0.232155,0.716537,0.576089,0.400584,0.645583,0.530731,-5.834385
1790547739.3500,0.000981,-0.065770,-0.231152,0.005764,-0.061649,-0.231152,0.735964,0.756996,0.467362,1.872079,0.976891,-9.288581
1790547739.3640,-0.014405,-0.072883,-0.227995,-0.008355,-0.069512,-0.227995,0.533202,1.004681,0.661625,1.067191,1.683311,-10.724595
1790547739.3778,-0.027914,-0.081720,-0.221252,-0.022046,-0.078058,-0.221252,0.660687,0.935475,0.843746,0.223975,1.497411,-9.327392
1790547739.3915,-0.036042,-0.088862,-0.215977,-0.031843,-0.085621,-0.215977,0.561127,0.555448,0.881385,0.147319,1.869211,-8.861658
1790547739.4058,-0.040757,-0.096045,-0.211517,-0.038083,-0.092918,-0.211517,0.523489,0.266482,0.715047,0.913879,1.720491,-9.987182
1790547739.4202,-0.037763,-0.103230,-0.203386,-0.037859,-0.100136,-0.203386,0.472495,-0.281096,0.685908,1.488799,1.125611,-12.898021
1790547739.4343,-0.034391,-0.103980,-0.189754,-0.035432,-0.102827,-0.189754,-0.055657,-0.301736,0.521999,1.412143,-0.770569,-12.199420
1790547739.4482,-0.024770,-0.101578,-0.170225,-0.027969,-0.101953,-0.170225,-0.357978,-0.862670,0.577849,2.638638,-1.737248,-9.327392
1790547739.4622,-0.024078,-0.097025,-0.158615,-0.025245,-0.098503,-0.158615,-0.492748,-0.381870,0.596061,5.014973,-1.625708,-7.891378
1790547739.4760,-0.021722,-0.084496,-0.156504,-0.022779,-0.088698,-0.156504,-1.005116,-0.536066,0.582706,4.478381,-0.510309,-6.571797
1790547739.4902,-0.011377,-0.068678,-0.141471,-0.014797,-0.074684,-0.141471,-1.247944,-0.880882,0.401798,2.178703,-0.770569,-9.249770
1790547739.5048,-0.003614,-0.050555,-0.142432,-0.006969,-0.057793,-0.142432,-1.308652,-0.793464,0.241532,4.133430,-0.101329,-8.861658
1790547739.5188,0.011786,-0.033379,-0.139617,0.006159,-0.040703,-0.139617,-1.283155,-1.313117,0.223320,2.523654,0.270471,-7.852567
1790547739.5328,0.002862,-0.038705,-0.124300,0.003852,-0.039304,-0.124300,0.243022,0.606442,-0.017081,1.872079,-1.402628,-18.874945
1790547739.5470,-0.006887,-0.046847,-0.129831,-0.003665,-0.044584,-0.129831,0.595123,0.815275,-0.501523,-1.040848,1.832031,-14.062357
1790547739.5611,0.018285,-0.042932,-0.153537,0.011700,-0.043427,-0.153537,-0.071441,-1.496452,-0.652077,-4.260399,4.323091,-9.094525
1790547739.5750,0.012715,-0.049112,-0.153115,0.012410,-0.047407,-0.153115,0.375364,0.300478,-0.145780,1.488799,0.010211,-7.037532
1790547739.5891,0.027064,-0.057359,-0.144137,0.022668,-0.054373,-0.144137,0.586624,-0.720615,-0.394679,-3.340527,0.865351,-7.076343
1790547739.6033,0.043135,-0.066943,-0.147391,0.036995,-0.063172,-0.147391,0.680113,-1.025365,-0.461457,-1.079176,1.014071,-8.822846
1790547739.6171,0.046081,-0.074487,-0.170204,0.043355,-0.071092,-0.170204,0.625477,-0.279882,-0.550089,1.412143,1.832031,-8.900469
1790547739.6311,0.058787,-0.079968,-0.186514,0.054158,-0.077306,-0.186514,0.454283,-0.825031,-0.648434,-0.657568,1.646131,-8.046623
1790547739.6465,0.066492,-0.088118,-0.203620,0.062792,-0.084874,-0.203620,0.546558,-0.492356,-0.727354,0.338959,1.311511,-9.676693
1790547739.6613,0.051859,-0.091675,-0.220494,0.055139,-0.089635,-0.220494,0.285517,0.993753,-0.493024,0.415615,2.464091,-14.722147
1790547739.6759,0.034781,-0.081469,-0.232372,0.040888,-0.083919,-0.232372,-0.682154,1.205014,-0.503952,-0.082648,2.278191,-19.030189
1790547739.6905,0.038830,-0.067596,-0.203640,0.039448,-0.072493,-0.203640,-1.139886,0.027296,-0.604725,-3.493839,-1.551348,-7.348021
1790547739.7049,0.027980,-0.057109,-0.189208,0.031420,-0.061724,-0.189208,-0.954122,0.801919,-0.382537,0.032335,-1.291089,-5.213406
1790547739.7193,0.017617,-0.048791,-0.188086,0.021758,-0.052671,-0.188086,-0.621447,0.931832,-0.473598,-1.615768,0.307651,-6.455364
1790547739.7336,-0.000377,-0.041472,-0.203105,0.006263,-0.044832,-0.203105,-0.438112,1.283933,-0.357040,0.568927,2.055111,-9.249770
1790547739.7477,0.008026,-0.047677,-0.196231,0.007498,-0.046823,-0.196231,0.376578,-0.367300,-0.296333,-5.448566,0.121751,-17.438931
1790547739.7616,0.010166,-0.043132,-0.197487,0.009365,-0.044239,-0.197487,-0.251134,-0.154825,0.308310,-0.504256,2.649991,-10.646972
1790547739.7756,0.008317,-0.041515,-0.183106,0.008631,-0.042332,-0.183106,-0.263275,0.102573,0.396942,-0.044320,-1.142369,-10.918651
1790547739.7895,0.015399,-0.045417,-0.171646,0.013369,-0.044492,-0.171646,0.141034,-0.594344,0.399370,0.645583,-0.956469,-9.637881
1790547739.8033,0.003074,-0.052324,-0.186890,0.006163,-0.049974,-0.186890,0.563556,0.690218,0.383586,2.408670,1.794851,-8.628791
1790547739.8172,-0.012439,-0.059219,-0.190571,-0.006859,-0.056445,-0.190571,0.516204,0.977970,0.469790,1.987063,1.497411,-10.491728
1790547739.8311,-0.022927,-0.071720,-0.177584,-0.018106,-0.067137,-0.177584,0.864663,0.760638,0.713833,-0.657568,0.865351,-10.957462
1790547739.8448,-0.032859,-0.077770,-0.174339,-0.028433,-0.074580,-0.174339,0.506491,0.701145,0.826748,-0.197632,2.501271,-9.948371
1790547739.8585,-0.037521,-0.082479,-0.163238,-0.034795,-0.080109,-0.163238,0.348652,0.401252,0.779397,-1.155832,1.385871,-8.589979
1790547739.8725,-0.042089,-0.091910,-0.155806,-0.039901,-0.088370,-0.155806,0.694683,0.339331,0.724760,-0.389272,1.646131,-9.172147
1790547739.8865,-0.038223,-0.095094,-0.143498,-0.038726,-0.093077,-0.143498,0.147105,-0.294451,0.610631,0.377287,0.084571,-13.130889
1790547739.9011,-0.032772,-0.093681,-0.134030,-0.034558,-0.093500,-0.134030,-0.203782,-0.476573,0.557209,2.140375,-0.696209,-12.703965
1790547739.9152,-0.025158,-0.090105,-0.126358,-0.027978,-0.091123,-0.126358,-0.444182,-0.736399,0.602132,2.561982,-1.662888,-7.930189
1790547739.9296,-0.029824,-0.080730,-0.137743,-0.029270,-0.083848,-0.137743,-0.746504,-0.021269,0.647055,5.321597,-0.621849,-8.512357
1790547739.9437,-0.021634,-0.064718,-0.135917,-0.023925,-0.070457,-0.135917,-1.211520,-0.784965,0.460077,2.255358,0.047391,-7.115154
1790547739.9577,-0.011320,-0.049689,-0.131877,-0.015102,-0.055919,-0.131877,-1.178738,-0.941589,0.293740,3.060246,-0.435949,-9.327392
1790547739.9719,0.002168,-0.036748,-0.136802,-0.003013,-0.042499,-0.136802,-0.946837,-1.186846,0.217249,2.830278,0.456371,-7.542077
1790547739.9860,0.001324,-0.039971,-0.136784,0.000023,-0.040729,-0.136784,0.184743,-0.058908,0.110404,2.638638,0.642271,-13.247322
1790547739.9999,-0.002853,-0.047384,-0.146108,-0.001990,-0.045387,-0.146108,0.598766,0.392753,-0.398321,-0.695896,2.910251,-14.372847
1790547740.0139,0.006315,-0.046166,-0.166516,0.003823,-0.045933,-0.166516,0.025691,-0.579775,-0.772277,0.223975,2.687171,-10.336483
1790547740.0278,0.013491,-0.048841,-0.175917,0.010591,-0.047969,-0.175917,0.227238,-0.451076,-0.542804,-0.005993,1.274331,-8.318301
1790547740.0420,0.021148,-0.060212,-0.171127,0.017981,-0.056539,-0.171127,0.766317,-0.404938,-0.398321,-1.424128,0.567911,-9.909560
1790547740.0561,0.037483,-0.072771,-0.172631,0.031632,-0.067902,-0.172631,0.924156,-0.973157,-0.597440,-2.037376,1.274331,-8.395923
1790547740.0698,0.047932,-0.080500,-0.198021,0.043042,-0.076720,-0.198021,0.697111,-0.759468,-0.771063,0.530599,2.538451,-8.512357
1790547740.0834,0.055455,-0.085314,-0.221118,0.051731,-0.082736,-0.221118,0.445784,-0.531209,-0.860909,0.338959,2.203831,-8.939280
1790547740.0974,0.058937,-0.092552,-0.239226,0.056776,-0.089607,-0.239226,0.541701,-0.264098,-0.846340,0.837223,1.348691,-9.521448
1790547740.1114,0.051927,-0.099725,-0.255146,0.053382,-0.096689,-0.255146,0.591481,0.635582,-0.712784,-1.539112,1.943571,-8.628791
1790547740.1254,0.041176,-0.101049,-0.251506,0.044838,-0.099741,-0.251506,0.045117,0.984040,-0.641150,-4.682006,0.270471,-14.916203
1790547740.1396,0.045258,-0.090553,-0.243999,0.045132,-0.093310,-0.243999,-0.799926,-0.024912,-0.690929,-5.793518,0.084571,-14.372847
1790547740.1535,0.045912,-0.081479,-0.191894,0.045678,-0.085028,-0.191894,-1.008758,0.355115,-0.585299,-2.727279,-2.257768,-3.428091
1790547740.1676,0.043406,-0.065799,-0.188016,0.044088,-0.071568,-0.188016,-1.235803,0.406109,-0.437174,-1.884064,-0.510309,-5.601518
1790547740.1822,0.033262,-0.046667,-0.195929,0.036510,-0.054137,-0.195929,-1.309866,0.775208,-0.536733,-0.312616,0.790991,-6.610609
1790547740.1963,0.012833,-0.033362,-0.209736,0.019936,-0.039595,-0.209736,-0.836350,1.568043,-0.448101,-0.695896,2.910251,-9.249770
1790547740.2104,0.020773,-0.042664,-0.208718,0.020522,-0.041743,-0.208718,0.538059,-0.305379,-0.479669,-6.368438,-1.848788,-18.680889
1790547740.2246,0.018057,-0.049729,-0.203881,0.018796,-0.047333,-0.203881,0.396004,0.237343,0.075194,-1.194160,-0.844929,-15.149070
1790547740.2385,0.013449,-0.048293,-0.199027,0.015053,-0.048005,-0.199027,-0.130934,0.294408,0.345948,0.147319,0.753811,-10.258860
1790547740.2524,0.010874,-0.051690,-0.191219,0.012128,-0.050584,-0.191219,0.166531,0.134141,0.486788,0.108991,-0.064149,-9.055714
1790547740.2663,0.009463,-0.059978,-0.189832,0.010262,-0.057160,-0.189832,0.633976,0.088003,0.185681,0.070663,1.757671,-10.569350
1790547740.2802,-0.007096,-0.070382,-0.191023,-0.001889,-0.066415,-0.191023,0.746891,1.099384,0.326522,1.488799,1.199971,-11.733686
1790547740.2945,-0.016570,-0.081620,-0.185258,-0.012166,-0.077059,-0.185258,0.837952,0.698717,0.420011,-0.657568,1.757671,-9.482637
1790547740.3083,-0.028182,-0.087997,-0.182755,-0.023377,-0.084716,-0.182755,0.552628,0.817703,0.549924,0.223975,2.166651,-8.279490
1790547740.3221,-0.035704,-0.094164,-0.174077,-0.032006,-0.091330,-0.174077,0.463996,0.526309,0.707762,0.147319,1.794851,-11.306763
1790547740.3362,-0.042533,-0.101051,-0.164709,-0.039375,-0.098135,-0.164709,0.446998,0.447390,0.678623,0.568927,0.567911,-9.405014
1790547740.3501,-0.034452,-0.106131,-0.155336,-0.035929,-0.103732,-0.155336,0.392362,-0.588274,0.730831,0.070663,2.538451,-13.790679
1790547740.3643,-0.025961,-0.105170,-0.147319,-0.028951,-0.104739,-0.147319,-0.145503,-0.681763,0.639770,1.450471,-0.138509,-11.384385
1790547740.3784,-0.021912,-0.098631,-0.145115,-0.024024,-0.100463,-0.145115,-0.603235,-0.479001,0.727189,2.906934,-1.179549,-9.754315
1790547740.3924,-0.023006,-0.089302,-0.152704,-0.023311,-0.092650,-0.152704,-0.830280,-0.216746,0.636128,3.673494,-1.402628,-7.309210
1790547740.4064,-0.012242,-0.074245,-0.153178,-0.015563,-0.079767,-0.153178,-1.153241,-0.959801,0.406655,2.868606,-0.175689,-9.599070
1790547740.4207,-0.003431,-0.058698,-0.160284,-0.007071,-0.065019,-0.160284,-1.175096,-0.911235,0.318023,4.746677,-0.435949,-9.482637
1790547740.4349,0.008440,-0.046523,-0.167543,0.003787,-0.052072,-0.167543,-0.873989,-1.135852,0.319237,3.443526,0.530731,-6.959909
1790547740.4490,0.002416,-0.053207,-0.165806,0.002827,-0.052866,-0.165806,0.353509,0.192420,0.118903,5.781533,-1.476988,-13.519000
1790547740.4632,-0.006327,-0.059875,-0.166583,-0.003581,-0.057772,-0.166583,0.506491,0.801919,-0.490596,-1.845736,1.460231,-9.948371
1790547740.4771,0.005247,-0.058796,-0.177445,0.002599,-0.058489,-0.177445,-0.004663,-0.750969,-0.622937,-0.197632,2.464091,-12.548721
1790547740.4912,0.001457,-0.062332,-0.190873,0.001799,-0.061179,-0.190873,0.281875,0.179064,-0.364325,2.217030,1.162791,-9.366203
1790547740.5051,0.012479,-0.071534,-0.187976,0.009275,-0.068428,-0.187976,0.649760,-0.656266,-0.374038,-1.500784,0.753811,-10.181238
1790547740.5189,0.026652,-0.081114,-0.199834,0.021439,-0.077308,-0.199834,0.796671,-0.958587,-0.520950,-0.427600,1.980751,-8.240679
1790547740.5326,0.031776,-0.086706,-0.221144,0.028675,-0.083887,-0.221144,0.522275,-0.429221,-0.689715,1.182175,1.832031,-7.192776
1790547740.5463,0.037710,-0.089797,-0.241923,0.034999,-0.088024,-0.241923,0.364436,-0.417080,-0.743138,0.338959,2.464091,-8.201867
1790547740.5603,0.044665,-0.095729,-0.255742,0.041765,-0.093417,-0.255742,0.439713,-0.446219,-0.834198,-0.082648,0.902531,-8.124245
1790547740.5746,0.053031,-0.102267,-0.267555,0.049651,-0.099612,-0.267555,0.502848,-0.526352,-0.603511,-0.619240,1.348691,-8.861658
1790547740.5885,0.041263,-0.103875,-0.268347,0.043780,-0.102596,-0.268347,0.023262,0.772780,-0.494238,2.408670,-1.030829,-15.381938
1790547740.6025,0.042016,-0.093504,-0.254570,0.042545,-0.096231,-0.254570,-0.791427,0.242199,-0.468741,-6.636734,0.270471,-13.480189
1790547740.6166,0.044024,-0.079542,-0.241815,0.043580,-0.084549,-0.241815,-1.113175,0.118357,-0.507594,-3.033903,-0.844929,-7.464455
1790547740.6309,0.040854,-0.068786,-0.214513,0.041672,-0.073514,-0.214513,-1.071894,0.579731,-0.381323,-2.842263,-2.369308,-4.010259
1790547740.6448,0.031939,-0.048538,-0.229251,0.034859,-0.056031,-0.229251,-1.246730,0.899050,-0.463885,-1.960720,2.464091,-4.631238
1790547740.6588,0.017637,-0.037228,-0.229354,0.022804,-0.042869,-0.229354,-0.927411,1.315501,-0.449315,-2.535639,-0.547489,-6.532986
1790547740.6730,0.023253,-0.040357,-0.232061,0.023118,-0.041111,-0.232061,0.108252,-0.346659,-0.330329,-0.274288,-1.291089,-18.448022
1790547740.6875,0.026965,-0.040657,-0.231743,0.025811,-0.040793,-0.231743,0.098539,-0.302950,0.213606,0.377287,3.170511,-12.277042
1790547740.7019,0.021135,-0.039814,-0.234667,0.022538,-0.040108,-0.234667,-0.036231,0.206989,0.486788,2.676966,1.720491,-10.918651
1790547740.7160,0.028121,-0.044375,-0.220579,0.026446,-0.043094,-0.220579,0.247879,-0.418294,0.461291,-1.730752,-0.064149,-7.658511
1790547740.7300,0.017100,-0.050439,-0.237451,0.019904,-0.048236,-0.237451,0.440927,0.471672,0.358089,2.255358,0.493551,-4.437182
1790547740.7440,0.000545,-0.060783,-0.241259,0.006352,-0.057019,-0.241259,0.739606,0.984040,0.441865,2.370342,0.865351,-8.201867
1790547740.7577,-0.011541,-0.068458,-0.237780,-0.006173,-0.065026,-0.237780,0.632762,0.846842,0.547496,0.147319,2.315371,-9.870749
1790547740.7714,-0.024600,-0.073592,-0.232883,-0.019071,-0.071022,-0.232883,0.440927,0.917262,0.638556,0.185647,2.203831,-9.327392
1790547740.7852,-0.029955,-0.078836,-0.224054,-0.026690,-0.076492,-0.224054,0.402075,0.387897,0.664053,-0.350944,1.832031,-10.530539
1790547740.7994,-0.027354,-0.081745,-0.212383,-0.027155,-0.080169,-0.212383,0.149533,-0.182750,0.614273,-0.312616,0.493551,-10.646972
1790547740.8134,-0.020256,-0.082306,-0.206373,-0.022326,-0.081665,-0.206373,0.051188,-0.602843,0.608203,1.642111,1.980751,-13.208511
1790547740.8277,-0.013110,-0.077085,-0.197865,-0.015875,-0.078459,-0.197865,-0.393188,-0.614985,0.695621,1.297159,0.902531,-9.948371
1790547740.8421,-0.009734,-0.072802,-0.185959,-0.011576,-0.074499,-0.185959,-0.458752,-0.445005,0.702906,2.791950,-1.439808,-9.210958
1790547740.8563,-0.004035,-0.064152,-0.177344,-0.006298,-0.067256,-0.177344,-0.729506,-0.596773,0.598489,2.293686,-0.659029,-8.628791
1790547740.8702,0.003237,-0.051610,-0.179422,0.000377,-0.056304,-0.179422,-0.941981,-0.778894,0.299811,3.481854,0.419191,-8.589979
1790547740.8842,0.011554,-0.038047,-0.182717,0.008201,-0.043524,-0.182717,-1.003902,-0.857813,0.132259,3.750150,0.530731,-8.473546
1790547740.8982,0.017684,-0.027010,-0.189163,0.014839,-0.031964,-0.189163,-0.788999,-0.669621,-0.037721,3.251886,0.976891,-7.813756
1790547740.9122,0.004041,-0.035111,-0.185238,0.007281,-0.034167,-0.185238,0.545343,1.110311,-0.202844,-1.999048,1.051251,-14.799770
1790547740.9261,0.010369,-0.041525,-0.191448,0.009442,-0.039317,-0.191448,0.510133,-0.181536,-0.949542,-3.417183,2.538451,-13.713056
1790547740.9403,0.019485,-0.043176,-0.203672,0.016473,-0.042019,-0.203672,0.222382,-0.510569,-0.672717,-1.002520,2.947431,-10.258860
1790547740.9543,0.019505,-0.050799,-0.200949,0.018595,-0.048165,-0.200949,0.453069,0.011512,-0.240483,0.300631,-0.324409,-8.706413
1790547740.9683,0.035431,-0.061763,-0.196460,0.030380,-0.057684,-0.196460,0.773602,-0.896666,-0.525806,-3.072231,0.865351,-9.210958
1790547740.9821,0.045683,-0.069927,-0.209135,0.041092,-0.066254,-0.209135,0.680113,-0.648981,-0.684859,-0.695896,2.352551,-9.249770
1790547740.9957,0.049957,-0.076152,-0.229439,0.047297,-0.073183,-0.229439,0.581768,-0.307807,-0.820843,0.645583,2.649991,-8.434735
1790547741.0093,0.052895,-0.077867,-0.247794,0.051216,-0.076462,-0.247794,0.209026,-0.237387,-0.812344,0.760567,1.646131,-6.649420
1790547741.0231,0.062826,-0.086534,-0.258014,0.059343,-0.083512,-0.258014,0.608479,-0.651409,-0.779562,-0.465928,0.790991,-9.482637
1790547741.0369,0.048459,-0.097224,-0.262510,0.051724,-0.093110,-0.262510,0.682542,0.984040,-0.503952,1.910407,-0.770569,-14.644525
1790547741.0508,0.035000,-0.092188,-0.270503,0.040017,-0.092465,-0.270503,-0.326411,1.061745,-0.443244,-1.999048,2.426911,-17.283686
1790547741.0648,0.039790,-0.080262,-0.264543,0.039858,-0.083923,-0.264543,-0.899486,-0.060122,-0.472384,-6.330110,0.307651,-13.829490
1790547741.0786,0.038608,-0.070402,-0.237934,0.038983,-0.074459,-0.237934,-1.042754,0.521452,-0.486954,-2.995575,-2.183408,-3.078790
1790547741.0925,0.025244,-0.055070,-0.250483,0.029366,-0.060887,-0.250483,-1.133815,0.883267,-0.417747,0.453943,0.121751,-2.263755
1790547741.1064,0.010612,-0.040928,-0.260364,0.016238,-0.046916,-0.260364,-0.929839,1.096956,-0.359469,0.070663,1.608951,-6.300119
1790547741.1208,0.012173,-0.037657,-0.259034,0.013393,-0.040434,-0.259034,-0.296057,0.157210,-0.467527,-5.371910,-0.175689,-15.149070
1790547741.1347,0.022098,-0.041838,-0.253783,0.019486,-0.041417,-0.253783,0.153176,-0.662336,0.012059,-1.500784,-2.034688,-16.274595
1790547741.1486,0.024040,-0.035939,-0.244933,0.022674,-0.037582,-0.244933,-0.342194,-0.081976,0.467362,-1.884064,2.612811,-9.637881
1790547741.1625,0.016118,-0.040908,-0.242541,0.018085,-0.039910,-0.242541,0.249093,0.406109,0.576635,1.450471,-0.510309,-8.861658
1790547741.1766,0.006066,-0.049558,-0.241955,0.009671,-0.046663,-0.241955,0.664329,0.679291,0.245174,0.338959,1.832031,-9.133336
1790547741.1914,-0.009303,-0.057807,-0.246184,-0.003611,-0.054464,-0.246184,0.602408,0.903907,0.325308,2.178703,1.794851,-9.521448
1790547741.2055,-0.020394,-0.069351,-0.237953,-0.015359,-0.064885,-0.237953,0.800313,0.756996,0.582706,-0.005993,1.125611,-10.802217
1790547741.2193,-0.032790,-0.079679,-0.227733,-0.027561,-0.075241,-0.227733,0.744463,0.849271,0.826748,0.300631,1.237151,-9.172147
1790547741.2329,-0.041443,-0.083388,-0.217942,-0.037278,-0.080944,-0.217942,0.342582,0.627083,0.851031,-0.235960,2.315371,-8.279490
1790547741.2467,-0.047291,-0.088991,-0.205730,-0.044287,-0.086577,-0.205730,0.377792,0.429177,0.804894,-0.235960,0.865351,-7.503266
1790547741.2606,-0.040368,-0.097099,-0.190718,-0.041543,-0.093942,-0.190718,0.468853,-0.475358,0.835247,-0.695896,-0.250049,-10.685784
1790547741.2745,-0.033360,-0.097619,-0.181838,-0.035815,-0.096516,-0.181838,-0.060513,-0.577346,0.662839,1.450471,-0.361589,-13.557812
1790547741.2884,-0.030153,-0.096039,-0.178636,-0.031852,-0.096182,-0.178636,-0.291200,-0.409795,0.655554,3.443526,-2.146228,-12.121798
1790547741.3024,-0.028130,-0.087610,-0.177485,-0.029246,-0.090182,-0.177485,-0.747718,-0.375799,0.670124,3.366870,-1.068009,-9.133336
1790547741.3163,-0.030756,-0.072519,-0.185678,-0.030303,-0.077818,-0.185678,-1.135029,-0.166966,0.581491,4.938317,0.233291,-7.658511
1790547741.3303,-0.021962,-0.053871,-0.183106,-0.024464,-0.061055,-0.183106,-1.436136,-0.812890,0.319237,2.715294,-0.398769,-8.900469
1790547741.3444,-0.013141,-0.039015,-0.182336,-0.016538,-0.045627,-0.182336,-1.184809,-0.905165,0.268243,4.401726,-0.807749,-9.288581
1790547741.3582,0.002077,-0.025347,-0.186781,-0.003508,-0.031431,-0.186781,-0.946837,-1.279121,0.239103,2.217030,2.017931,-9.055714
1790547741.3720,-0.006996,-0.035497,-0.180016,-0.005950,-0.034277,-0.180016,0.596337,0.549377,0.139544,2.370342,-1.142369,-12.509909
1790547741.3859,-0.006171,-0.048472,-0.171211,-0.006105,-0.044214,-0.171211,0.901087,0.103787,-0.228341,-2.382327,0.753811,-13.130889
1790547741.3997,0.001877,-0.045950,-0.182949,-0.000518,-0.045429,-0.182949,-0.130934,-0.573704,-0.544018,1.105519,1.980751,-11.306763
1790547741.4136,0.000855,-0.051607,-0.188616,0.000443,-0.049754,-0.188616,0.351081,0.043080,-0.410463,1.680439,0.010211,-11.035084
1790547741.4277,0.011828,-0.059440,-0.181583,0.008413,-0.056534,-0.181583,0.517418,-0.570062,-0.569515,-1.615768,0.196111,-6.882287
1790547741.4425,0.024687,-0.066521,-0.202848,0.019805,-0.063525,-0.202848,0.630333,-0.835959,-0.723711,0.377287,2.315371,-6.377742
1790547741.4564,0.027412,-0.073537,-0.221943,0.025130,-0.070533,-0.221943,0.587838,-0.197320,-0.790489,0.990535,1.943571,-8.939280
1790547741.4702,0.036198,-0.076771,-0.237685,0.032878,-0.074900,-0.237685,0.323155,-0.548207,-0.865766,-0.427600,2.203831,-9.366203
1790547741.4844,0.045250,-0.084828,-0.250200,0.041538,-0.081850,-0.250200,0.578125,-0.585845,-0.802630,-0.044320,1.199971,-10.802217
1790547741.4985,0.048613,-0.094168,-0.261922,0.046490,-0.090473,-0.261922,0.785744,-0.156039,-0.483311,-1.079176,2.910251,-9.754315
1790547741.5125,0.028211,-0.092634,-0.270864,0.033695,-0.091986,-0.270864,-0.099366,1.449057,-0.384966,0.952207,1.423051,-15.149070
1790547741.5265,0.027086,-0.081389,-0.257217,0.029069,-0.084568,-0.257217,-0.833922,0.412179,-0.516093,-6.790045,0.456371,-12.587532
1790547741.5410,0.024004,-0.070616,-0.246745,0.025523,-0.074801,-0.246745,-0.894629,0.458317,-0.485739,-3.148887,-1.588528,-8.784035
1790547741.5549,0.018967,-0.058999,-0.241833,0.020934,-0.063740,-0.241833,-0.928625,0.573660,-0.353398,-1.807408,-0.361589,-6.377742
1790547741.5690,0.013491,-0.047656,-0.237632,0.015724,-0.052481,-0.237632,-0.949265,0.572446,-0.298762,-1.730752,-0.993649,-7.503266
1790547741.5828,0.004732,-0.036092,-0.232910,0.008030,-0.041009,-0.232910,-0.972334,0.890551,-0.258695,-2.727279,-0.956469,-7.736133
1790547741.5966,0.015319,-0.038020,-0.226879,0.013132,-0.038917,-0.226879,-0.011948,-0.606486,-0.063218,-4.260399,-2.332128,-17.283686
1790547741.6106,0.015098,-0.042050,-0.225131,0.014508,-0.041110,-0.225131,0.204170,-0.111116,0.508643,1.373815,-0.175689,-12.393476
1790547741.6244,0.011810,-0.046083,-0.217467,0.012620,-0.044591,-0.217467,0.257592,0.124428,0.727189,0.683911,0.828171,-11.462007
1790547741.6383,0.005361,-0.050825,-0.219844,0.007539,-0.048955,-0.219844,0.400861,0.328404,0.422439,1.028863,1.385871,-6.222497
1790547741.6522,-0.006239,-0.057234,-0.226603,-0.002106,-0.054751,-0.226603,0.473709,0.664721,0.338663,2.025391,1.088431,-8.007811
1790547741.6662,-0.015939,-0.067949,-0.225554,-0.011789,-0.063990,-0.225554,0.774816,0.594301,0.449150,1.297159,1.199971,-9.443825
1790547741.6800,-0.030147,-0.077548,-0.220904,-0.024639,-0.073481,-0.220904,0.788172,0.971899,0.631271,0.568927,2.649991,-9.210958
1790547741.6944,-0.041100,-0.084733,-0.212192,-0.036162,-0.081357,-0.212192,0.573269,0.718143,0.776968,0.377287,2.612811,-9.249770
1790547741.7086,-0.049087,-0.093110,-0.200813,-0.045210,-0.089584,-0.200813,0.610907,0.543307,0.800037,0.108991,1.869211,-9.443825
1790547741.7241,-0.041594,-0.101085,-0.183829,-0.042679,-0.097635,-0.183829,0.433642,-0.460789,0.795181,-0.772552,0.233291,-11.656063
1790547741.7387,-0.030266,-0.101910,-0.170688,-0.033990,-0.100628,-0.170688,0.005050,-0.792250,0.749043,0.070663,0.716631,-13.014455
1790547741.7530,-0.024451,-0.097226,-0.168601,-0.027313,-0.098246,-0.168601,-0.491534,-0.617413,0.723546,3.711822,-1.811608,-10.841028
1790547741.7674,-0.023432,-0.089259,-0.168854,-0.024596,-0.091955,-0.168854,-0.701580,-0.333304,0.689550,4.018446,-1.291089,-9.249770
1790547741.7825,-0.015510,-0.075350,-0.171862,-0.018236,-0.080332,-0.171862,-0.960193,-0.747326,0.426081,3.750150,0.419191,-9.676693
1790547741.7964,-0.012081,-0.060036,-0.177632,-0.013928,-0.066125,-0.177632,-1.156884,-0.554278,0.264600,5.129957,0.084571,-9.327392
1790547741.8101,-0.002739,-0.043338,-0.183542,-0.006096,-0.050174,-0.183542,-1.223662,-0.954945,0.158970,4.056774,0.976891,-8.706413
1790547741.8241,-0.002780,-0.037501,-0.178871,-0.003775,-0.041303,-0.178871,-0.520673,-0.124471,0.165041,2.217030,-0.435949,-10.569350
1790547741.8381,-0.017263,-0.042285,-0.181897,-0.013217,-0.041990,-0.181897,0.385077,1.150378,-0.313331,-1.040848,2.352551,-13.829490
1790547741.8521,-0.004325,-0.048098,-0.184812,-0.006993,-0.046266,-0.184812,0.544129,-0.698761,-0.705499,-2.957247,3.988471,-13.053266
1790547741.8661,-0.003754,-0.051175,-0.192240,-0.004726,-0.049702,-0.192240,0.181101,-0.108688,-0.391036,2.408670,0.270471,-11.267951
1790547741.8800,0.002465,-0.058315,-0.193031,0.000308,-0.055731,-0.193031,0.491921,-0.386726,-0.333972,-0.159304,0.530731,-9.016902
1790547741.8940,0.013904,-0.066507,-0.195937,0.009825,-0.063274,-0.195937,0.553842,-0.732757,-0.599869,-0.350944,0.270471,-9.599070
1790547741.9075,0.027127,-0.073103,-0.204828,0.021936,-0.070154,-0.204828,0.552628,-0.817747,-0.879121,-1.117504,1.571771,-8.279490
1790547741.9210,0.034012,-0.079054,-0.227603,0.030389,-0.076384,-0.227603,0.553842,-0.580989,-0.875479,1.450471,1.757671,-6.494175
1790547741.9347,0.038463,-0.082775,-0.246820,0.036041,-0.080858,-0.246820,0.375364,-0.296880,-0.905833,0.415615,2.092291,-8.085434
1790547741.9489,0.048222,-0.090026,-0.259446,0.044568,-0.087276,-0.259446,0.504063,-0.655052,-0.842697,0.223975,0.828171,-10.297672
1790547741.9629,0.037124,-0.098252,-0.268711,0.039357,-0.094959,-0.268711,0.499206,0.764281,-0.809915,2.063719,-0.882109,-15.692427
1790547741.9768,0.030111,-0.089865,-0.279290,0.032885,-0.091393,-0.279290,-0.574096,0.566375,-0.641150,-0.734224,2.315371,-18.836133
1790547741.9908,0.035291,-0.079830,-0.254896,0.034569,-0.083299,-0.254896,-0.850920,0.001799,-0.658148,-4.337055,-0.956469,-7.192776
1790547742.0045,0.033565,-0.069355,-0.240341,0.033867,-0.073538,-0.240341,-1.012401,0.408537,-0.614438,-2.075704,-1.811608,-5.174595
1790547742.0185,0.023411,-0.057919,-0.237650,0.026548,-0.062604,-0.237650,-1.036684,0.854127,-0.409248,-0.849208,-1.774428,-6.804665
1790547742.0324,0.016748,-0.046491,-0.232327,0.019688,-0.051325,-0.232327,-0.980833,0.770351,-0.535519,-3.340527,-1.514168,-8.900469
1790547742.0462,0.022055,-0.040149,-0.227258,0.021345,-0.043502,-0.227258,-0.515817,-0.050409,-0.484525,-4.758662,0.084571,-9.909560
1790547742.0600,0.030230,-0.047924,-0.223103,0.027564,-0.046597,-0.223103,0.434857,-0.471716,-0.099642,-2.995575,-1.662888,-16.119350
1790547742.0739,0.025641,-0.046686,-0.223743,0.026218,-0.046659,-0.223743,-0.045944,0.196062,0.507429,1.028863,1.571771,-8.512357
1790547742.0878,0.028596,-0.046046,-0.206683,0.027883,-0.046230,-0.206683,-0.016804,-0.131756,0.620344,-2.075704,1.348691,-8.201867
1790547742.1017,0.030385,-0.053575,-0.194679,0.029635,-0.051371,-0.194679,0.459139,0.074648,0.421225,-2.458983,-0.250049,-5.523895
1790547742.1156,0.016851,-0.058801,-0.201055,0.020686,-0.056572,-0.201055,0.379006,0.835915,0.348376,1.872079,1.162791,-10.685784
1790547742.1296,0.007667,-0.068353,-0.194511,0.011573,-0.064819,-0.194511,0.697111,0.628297,0.457649,-0.005993,1.385871,-11.267951
1790547742.1432,0.001098,-0.075029,-0.186949,0.004240,-0.071966,-0.186949,0.592695,0.442533,0.592419,0.070663,2.389731,-8.667602
1790547742.1568,-0.008709,-0.077323,-0.179279,-0.004824,-0.075716,-0.179279,0.235737,0.645295,0.717475,0.568927,2.055111,-9.055714
1790547742.1706,-0.014820,-0.083115,-0.169990,-0.011821,-0.080895,-0.169990,0.383863,0.366042,0.768469,0.607255,0.679451,-9.909560
1790547742.1847,-0.026474,-0.089927,-0.165208,-0.022078,-0.087217,-0.165208,0.506491,0.708430,0.732045,1.373815,1.385871,-8.473546
1790547742.1992,-0.014769,-0.093356,-0.149534,-0.016962,-0.091514,-0.149534,0.147105,-0.685405,0.666481,-3.340527,-0.435949,-12.975644
1790547742.2131,-0.002172,-0.086951,-0.143619,-0.006609,-0.088320,-0.143619,-0.411401,-1.015652,0.636128,1.680439,2.575631,-12.975644
1790547742.2270,-0.000140,-0.074550,-0.150590,-0.002081,-0.078681,-0.150590,-0.923768,-0.381870,0.589990,2.983590,0.567911,-8.978091
1790547742.2409,0.001695,-0.064164,-0.167078,0.000562,-0.068519,-0.167078,-0.928625,-0.418294,0.464934,3.213558,-1.625708,-7.386832
1790547742.2549,0.014829,-0.052467,-0.172151,0.010549,-0.057283,-0.172151,-0.853348,-1.095785,0.194180,1.757095,0.605091,-7.619700
1790547742.2690,0.021928,-0.038503,-0.191423,0.018514,-0.044137,-0.191423,-0.969906,-0.893023,0.252459,4.363398,0.976891,-6.300119
1790547742.2827,0.014449,-0.041351,-0.193639,0.015668,-0.042187,-0.193639,0.155604,0.390325,0.276742,3.366870,0.493551,-15.770049
1790547742.2957,0.005011,-0.046827,-0.201585,0.008208,-0.045435,-0.201585,0.446998,0.749711,-0.375252,0.837223,2.241011,-15.498371
1790547742.3087,0.007052,-0.045183,-0.211677,0.007399,-0.045259,-0.211677,0.008693,-0.010342,-0.815986,-0.849208,3.914111,-12.626343
1790547742.3220,0.014685,-0.044258,-0.217360,0.012499,-0.044558,-0.217360,-0.059299,-0.437720,-0.734639,-0.619240,0.976891,-8.163056
1790547742.3359,0.017511,-0.051584,-0.219424,0.016008,-0.049476,-0.219424,0.433642,-0.162110,-0.406820,0.147319,-0.361589,-7.697322
1790547742.3499,0.027943,-0.063255,-0.218719,0.024362,-0.059121,-0.218719,0.793028,-0.565205,-0.663004,-1.730752,0.270471,-9.327392
1790547742.3638,0.039955,-0.070150,-0.224630,0.035278,-0.066841,-0.224630,0.590267,-0.692690,-0.812344,-1.539112,2.203831,-8.357112
1790547742.3773,0.044526,-0.074584,-0.246692,0.041752,-0.072261,-0.246692,0.392362,-0.412223,-0.961683,2.063719,1.906391,-8.784035
1790547742.3908,0.048814,-0.078433,-0.265000,0.046695,-0.076581,-0.265000,0.313442,-0.340589,-0.942257,1.105519,1.274331,-7.969000
1790547742.4047,0.058180,-0.084635,-0.280097,0.054735,-0.082219,-0.280097,0.455497,-0.645338,-0.922831,0.338959,1.274331,-9.754315
1790547742.4186,0.068623,-0.092114,-0.294325,0.064456,-0.089146,-0.294325,0.626691,-0.685405,-0.869408,-0.580912,2.687171,-9.987182
1790547742.4324,0.059537,-0.091917,-0.308299,0.061013,-0.091085,-0.308299,-0.035016,0.612513,-0.723711,1.795423,1.199971,-14.644525
1790547742.4466,0.054022,-0.078889,-0.308768,0.056119,-0.082548,-0.308768,-1.001474,0.527523,-0.548875,-2.420655,-0.361589,-12.898021
1790547742.4607,0.053096,-0.065647,-0.300256,0.054003,-0.070717,-0.300256,-1.050039,0.293193,-0.409248,-3.302199,-0.621849,-9.443825
1790547742.4746,0.051711,-0.054831,-0.281547,0.052399,-0.059597,-0.281547,-0.978405,0.468030,-0.386180,-4.068759,-1.700068,-6.183686
1790547742.4885,0.043604,-0.042922,-0.277336,0.046243,-0.047925,-0.277336,-0.991760,0.758210,-0.191917,-1.654096,-0.659029,-6.261308
1790547742.5025,0.047865,-0.035574,-0.272581,0.047379,-0.039279,-0.272581,-0.619019,-0.052837,-0.364325,-3.877119,-0.324409,-10.220049
1790547742.5164,0.054945,-0.040348,-0.268256,0.052675,-0.040028,-0.268256,0.200527,-0.446219,0.134687,-2.880591,-2.257768,-17.477742
1790547742.5303,0.045071,-0.043561,-0.266571,0.047352,-0.042501,-0.266571,0.150747,0.582159,0.616702,0.722239,-0.398769,-10.724595
1790547742.5444,0.043567,-0.045617,-0.254753,0.044702,-0.044682,-0.254753,0.210240,0.038224,0.749043,-0.504256,2.203831,-10.996273
1790547742.5583,0.046663,-0.051251,-0.241561,0.046075,-0.049280,-0.241561,0.296444,-0.122043,0.467362,-1.730752,-0.584669,-6.261308
1790547742.5722,0.036838,-0.055218,-0.243667,0.039609,-0.053437,-0.243667,0.261234,0.582159,0.429724,1.028863,0.493551,-8.784035
1790547742.5863,0.029009,-0.064247,-0.236522,0.032189,-0.061004,-0.236522,0.638832,0.521452,0.500144,-0.274288,0.976891,-11.229140
1790547742.5999,0.017336,-0.069860,-0.236934,0.021792,-0.067203,-0.236934,0.536844,0.658650,0.767255,1.872079,2.612811,-8.434735
1790547742.6135,0.005975,-0.074340,-0.227824,0.010720,-0.072199,-0.227824,0.409360,0.725428,0.877742,0.645583,2.092291,-8.706413
1790547742.6275,-0.003959,-0.080429,-0.217837,0.000445,-0.077960,-0.217837,0.470067,0.611299,0.875314,0.645583,1.497411,-8.589979
1790547742.6414,-0.010022,-0.087883,-0.204035,-0.006882,-0.084906,-0.204035,0.530774,0.423107,0.818249,-0.350944,0.902531,-8.512357
1790547742.6553,-0.013688,-0.092221,-0.190337,-0.011646,-0.090027,-0.190337,0.451855,0.290765,0.694407,-1.002520,4.062831,-11.229140
1790547742.6692,0.001322,-0.094990,-0.177212,-0.002568,-0.093501,-0.177212,0.096111,-1.078787,0.773326,-1.232488,-0.993649,-16.080539
1790547742.6831,0.007711,-0.085470,-0.173051,0.004628,-0.087880,-0.173051,-0.684582,-0.585845,0.596061,1.795423,1.125611,-11.656063
1790547742.6974,0.006857,-0.074377,-0.182872,0.006188,-0.078428,-0.182872,-0.890987,-0.230102,0.575421,3.865134,-0.993649,-8.551168
1790547742.7119,0.013709,-0.060981,-0.189155,0.011452,-0.066215,-0.189155,-0.996617,-0.720615,0.361732,3.328542,-0.138509,-8.784035
1790547742.7258,0.025681,-0.046515,-0.195992,0.021413,-0.052425,-0.195992,-1.074322,-1.122496,0.230604,2.791950,0.307651,-6.921098
1790547742.7398,0.016590,-0.048498,-0.197674,0.018037,-0.049676,-0.197674,0.090040,0.453460,0.401798,3.596838,0.307651,-13.674245
1790547742.7538,0.013187,-0.051458,-0.202018,0.014642,-0.050924,-0.202018,0.263662,0.342973,-0.432317,-0.964192,2.649991,-13.907112
1790547742.7678,0.019072,-0.052162,-0.202019,0.017743,-0.051791,-0.202019,0.085184,-0.204605,-0.687287,-2.842263,1.980751,-12.354665
1790547742.7816,0.018458,-0.053607,-0.211883,0.018243,-0.053062,-0.211883,0.066971,0.056436,-0.574372,0.875551,0.382011,-9.948371
1790547742.7956,0.021291,-0.059011,-0.217579,0.020377,-0.057226,-0.217579,0.346224,-0.216746,-0.316974,0.683911,0.270471,-8.667602
1790547742.8095,0.034904,-0.067798,-0.219560,0.030546,-0.064627,-0.219560,0.649760,-0.846886,-0.554945,-1.347472,1.274331,-9.793126
1790547742.8235,0.041167,-0.076443,-0.236586,0.037980,-0.072898,-0.236586,0.674043,-0.442577,-0.904618,0.798895,1.534591,-7.852567
1790547742.8371,0.049184,-0.082935,-0.252931,0.045823,-0.079924,-0.252931,0.530774,-0.548207,-1.000536,0.338959,1.757671,-8.822846
1790547742.8509,0.050304,-0.084498,-0.272976,0.048960,-0.083126,-0.272976,0.143462,-0.158467,-0.964111,1.795423,1.311511,-8.046623
1790547742.8648,0.058184,-0.091600,-0.284919,0.055417,-0.089058,-0.284919,0.478566,-0.505712,-0.885192,-0.274288,0.716631,-11.656063
1790547742.8788,0.067859,-0.099229,-0.295198,0.064127,-0.096178,-0.295198,0.525917,-0.635625,-0.792917,-0.580912,0.753811,-10.375294
1790547742.8927,0.056052,-0.101609,-0.308745,0.058474,-0.099980,-0.308745,0.207812,0.814060,-0.607154,1.067191,1.980751,-12.432287
1790547742.9066,0.049801,-0.092186,-0.305611,0.052403,-0.094524,-0.305611,-0.718578,0.685361,-0.618081,-4.260399,0.456371,-12.121798
1790547742.9205,0.049446,-0.081320,-0.300072,0.050333,-0.085281,-0.300072,-0.911627,0.259197,-0.597440,-3.072231,-1.068009,-9.016902
1790547742.9344,0.039972,-0.074405,-0.297540,0.043080,-0.077668,-0.297540,-0.736791,0.838343,-0.546447,-1.155832,-1.885968,-5.950818
1790547742.9483,0.031288,-0.060632,-0.296288,0.034826,-0.065743,-0.296288,-0.967478,0.833487,-0.465099,-1.999048,1.051251,-7.153965
1790547742.9626,0.030565,-0.048407,-0.289440,0.031843,-0.053608,-0.289440,-0.992975,0.282266,-0.235626,-3.033903,-1.179549,-8.279490
1790547742.9765,0.040818,-0.051977,-0.286198,0.038126,-0.052466,-0.286198,0.134963,-0.710902,0.073980,-1.385800,-1.588528,-16.080539
1790547742.9904,0.036214,-0.053910,-0.285996,0.036787,-0.053477,-0.285996,0.098539,0.158424,0.609417,1.872079,0.307651,-11.772497
1790547743.0042,0.037279,-0.055071,-0.274278,0.037131,-0.054593,-0.274278,0.075470,-0.146326,0.775754,-0.350944,0.790991,-10.258860
1790547743.0181,0.032589,-0.060946,-0.275079,0.033952,-0.059040,-0.275079,0.433642,0.198490,0.437009,1.105519,0.865351,-7.697322
1790547743.0320,0.018392,-0.066192,-0.282815,0.023060,-0.064046,-0.282815,0.366865,0.828630,0.321665,2.523654,0.716631,-9.327392
1790547743.0459,0.008311,-0.076823,-0.277386,0.012736,-0.072990,-0.277386,0.746891,0.682933,0.460077,0.262303,0.753811,-11.772497
1790547743.0595,-0.000606,-0.083952,-0.272337,0.003397,-0.080663,-0.272337,0.642475,0.579731,0.628843,0.722239,2.835891,-9.676693
1790547743.0731,-0.009100,-0.085661,-0.264610,-0.005351,-0.084162,-0.264610,0.249093,0.550592,0.766041,0.568927,2.761531,-8.589979
1790547743.0870,-0.016085,-0.091297,-0.253257,-0.012865,-0.089157,-0.253257,0.423929,0.443747,0.870457,0.300631,1.237151,-8.046623
1790547743.1009,-0.023436,-0.097289,-0.240789,-0.020265,-0.094849,-0.240789,0.527131,0.527523,0.792752,-0.350944,2.798711,-9.599070
1790547743.1148,-0.012370,-0.103236,-0.221062,-0.014739,-0.100720,-0.221062,0.279446,-0.703617,0.824320,-2.803935,-1.811608,-14.023546
1790547743.1288,0.000808,-0.095220,-0.213975,-0.003856,-0.096870,-0.213975,-0.560740,-1.042363,0.648269,1.603783,1.646131,-13.286133
1790547743.1428,0.001384,-0.086014,-0.216980,-0.000188,-0.089271,-0.216980,-0.803568,-0.352730,0.633700,4.670021,-1.588528,-9.133336
1790547743.1566,0.004888,-0.076125,-0.215501,0.003365,-0.080069,-0.215501,-0.864276,-0.472930,0.484360,2.523654,-1.216729,-7.774944
1790547743.1704,0.019729,-0.063473,-0.213337,0.014820,-0.068452,-0.213337,-0.971120,-1.214771,0.359303,1.718767,0.084571,-9.715504
1790547743.1844,0.028113,-0.048958,-0.219951,0.024125,-0.054806,-0.219951,-0.967478,-0.897880,0.331378,3.328542,1.683311,-7.115154
1790547743.1987,0.026368,-0.046759,-0.221431,0.025695,-0.049173,-0.221431,-0.230493,0.044294,-0.053505,1.987063,-0.250049,-13.907112
1790547743.2132,0.019554,-0.054385,-0.232232,0.021396,-0.052822,-0.232232,0.568412,0.498383,-0.480883,0.683911,2.612811,-14.411658
1790547743.2272,0.029148,-0.057874,-0.240054,0.026822,-0.056358,-0.240054,0.255163,-0.521496,-0.911903,-1.309144,1.274331,-11.112707
1790547743.2412,0.031064,-0.058515,-0.251872,0.029791,-0.057868,-0.251872,0.068186,-0.219175,-0.428675,1.680439,1.162791,-8.318301
1790547743.2552,0.038697,-0.066371,-0.255487,0.036025,-0.063820,-0.255487,0.529560,-0.554278,-0.295119,0.492271,0.493551,-11.112707
1790547743.2691,0.051271,-0.077936,-0.258344,0.046697,-0.073701,-0.258344,0.786958,-0.784965,-0.672717,-1.424128,0.307651,-11.073895
1790547743.2830,0.060932,-0.086950,-0.275004,0.056661,-0.082976,-0.275004,0.728679,-0.642910,-0.930115,-0.044320,2.129471,-8.279490
1790547743.2967,0.065567,-0.089754,-0.295073,0.062895,-0.087721,-0.295073,0.297658,-0.391583,-0.939829,1.488799,2.724351,-9.754315
1790547743.3102,0.067217,-0.093019,-0.311383,0.065921,-0.091430,-0.311383,0.278232,-0.096546,-0.911903,0.147319,1.720491,-9.288581
1790547743.3242,0.077269,-0.101616,-0.321945,0.073864,-0.098560,-0.321945,0.568412,-0.631983,-0.887620,-1.040848,0.567911,-10.569350
1790547743.3382,0.076610,-0.112098,-0.332092,0.075786,-0.108036,-0.332092,0.767531,0.054007,-0.531877,-0.235960,1.757671,-14.101168
1790547743.3522,0.059752,-0.110198,-0.339746,0.064562,-0.109550,-0.339746,-0.127291,1.262079,-0.460242,-1.347472,1.720491,-16.779140
1790547743.3661,0.055924,-0.097971,-0.334320,0.058516,-0.101444,-0.334320,-0.939552,0.519024,-0.613224,-4.873646,0.047391,-12.548721
1790547743.3801,0.054202,-0.088890,-0.305381,0.055496,-0.092656,-0.305381,-0.950480,0.443747,-0.564659,-3.110559,-2.741108,-5.407462
1790547743.3939,0.046515,-0.079040,-0.300536,0.049209,-0.083125,-0.300536,-0.923768,0.732713,-0.438388,-1.692424,-1.774428,-6.610609
1790547743.4079,0.040163,-0.063584,-0.300928,0.042877,-0.069447,-0.300928,-1.054896,0.635582,-0.393465,-1.922392,1.534591,-7.464455
1790547743.4217,0.034254,-0.053953,-0.297282,0.036841,-0.058601,-0.297282,-0.790213,0.634367,-0.275693,-3.762135,-0.584669,-12.548721
1790547743.4356,0.046524,-0.058166,-0.290333,0.043619,-0.058297,-0.290333,0.183529,-0.781322,0.064267,-3.455511,-1.737248,-16.507462
1790547743.4496,0.041511,-0.059630,-0.287023,0.042143,-0.059230,-0.287023,0.039046,0.203347,0.688336,1.565455,-0.398769,-13.092077
1790547743.4637,0.038983,-0.061400,-0.274727,0.039931,-0.060749,-0.274727,0.279446,0.115929,0.886241,-0.427600,2.612811,-7.386832
1790547743.4777,0.037925,-0.067409,-0.264426,0.038527,-0.065411,-0.264426,0.439713,0.108644,0.472219,-0.849208,0.605091,-6.106063
1790547743.4916,0.024383,-0.071060,-0.270609,0.028626,-0.069366,-0.270609,0.295230,0.778850,0.366588,2.370342,1.274331,-8.822846
1790547743.5055,0.011828,-0.082396,-0.267526,0.016868,-0.078487,-0.267526,0.829453,0.818917,0.479504,0.913879,1.088431,-10.220049
1790547743.5192,0.000015,-0.088566,-0.266201,0.005071,-0.085542,-0.266201,0.664329,0.758210,0.626415,1.028863,3.505131,-7.425644
1790547743.5327,-0.010561,-0.092405,-0.259107,-0.005871,-0.090346,-0.259107,0.414216,0.703573,0.779397,0.645583,2.687171,-8.201867
1790547743.5466,-0.017246,-0.100557,-0.246400,-0.013834,-0.097494,-0.246400,0.536844,0.442533,0.886241,0.108991,0.307651,-8.589979
1790547743.5605,-0.026005,-0.108539,-0.235760,-0.022354,-0.105226,-0.235760,0.601194,0.584588,0.838890,0.415615,1.348691,-8.318301
1790547743.5743,-0.013813,-0.112579,-0.223967,-0.016375,-0.110373,-0.223967,0.319513,-0.956159,0.914166,1.258831,2.464091,-14.799770
1790547743.5883,-0.000641,-0.105120,-0.216611,-0.005361,-0.106696,-0.216611,-0.585023,-1.107927,0.727189,2.945262,0.121751,-12.315854
1790547743.6023,-0.002768,-0.096127,-0.212243,-0.003546,-0.099298,-0.212243,-0.802354,-0.126900,0.673766,4.555037,-1.960328,-9.754315
1790547743.6162,0.001383,-0.084102,-0.207985,-0.000096,-0.088661,-0.207985,-1.001474,-0.512997,0.463720,2.906934,-1.291089,-8.473546
1790547743.6302,0.010527,-0.069272,-0.210728,0.007340,-0.075089,-0.210728,-1.054896,-0.899094,0.314380,2.983590,0.790991,-7.503266
1790547743.6442,0.021619,-0.056037,-0.210938,0.017335,-0.061752,-0.210938,-0.980833,-1.064217,0.286455,2.791950,0.270471,-6.494175
1790547743.6582,0.018140,-0.055127,-0.215995,0.017899,-0.057114,-0.215995,0.074256,0.089218,0.364160,1.795423,2.835891,-8.124245
1790547743.6720,0.007769,-0.060236,-0.223648,0.010808,-0.059300,-0.223648,0.487065,0.850485,-0.289048,-1.232488,3.765391,-12.898021
1790547743.6859,0.013510,-0.059343,-0.232074,0.012700,-0.059330,-0.232074,-0.025303,-0.270168,-0.711570,-1.615768,2.278191,-15.110259
1790547743.7000,0.014094,-0.056456,-0.241691,0.013676,-0.057318,-0.241691,-0.197712,-0.040696,-0.596226,1.105519,1.014071,-9.754315
1790547743.7148,0.022508,-0.062369,-0.241869,0.019858,-0.060853,-0.241869,0.406931,-0.430435,-0.329115,-1.194160,0.679451,-6.261308
1790547743.7287,0.033699,-0.073419,-0.241909,0.029547,-0.069649,-0.241909,0.757818,-0.611342,-0.551303,-2.152360,0.307651,-8.706413
1790547743.7427,0.045247,-0.084860,-0.253617,0.040537,-0.080297,-0.253617,0.875590,-0.703617,-0.854839,-1.079176,1.757671,-9.288581
1790547743.7564,0.054794,-0.090616,-0.271984,0.050517,-0.087520,-0.271984,0.506491,-0.703617,-1.058814,0.837223,2.055111,-8.124245
1790547743.7700,0.056354,-0.092505,-0.287291,0.054603,-0.091009,-0.287291,0.172602,-0.221603,-0.928901,2.523654,1.683311,-9.831937
1790547743.7839,0.063225,-0.097435,-0.303695,0.060638,-0.095508,-0.303695,0.398432,-0.514211,-0.949542,0.913879,1.720491,-9.055714
1790547743.7980,0.053546,-0.105897,-0.313355,0.055674,-0.102780,-0.313355,0.511347,0.678077,-0.869408,1.143847,-0.621849,-14.295224
1790547743.8131,0.045307,-0.099323,-0.324057,0.048417,-0.100360,-0.324057,-0.424756,0.625868,-0.633865,-1.692424,1.757671,-16.662707
1790547743.8274,0.047602,-0.089820,-0.318587,0.047847,-0.092982,-0.318587,-0.821781,0.073434,-0.621723,-2.918919,-1.439808,-7.930189
1790547743.8417,0.043868,-0.078218,-0.313000,0.045062,-0.082647,-0.313000,-1.028185,0.454674,-0.579228,-1.117504,-1.142369,-4.010259
1790547743.8560,0.031494,-0.063730,-0.315107,0.035564,-0.069405,-0.315107,-1.165383,0.920905,-0.459028,-0.159304,-1.216729,-8.124245
1790547743.8712,0.022382,-0.053741,-0.310693,0.026336,-0.058440,-0.310693,-0.813282,0.884481,-0.480883,-4.528694,-1.997508,-10.297672
1790547743.8849,0.028039,-0.059475,-0.308898,0.027528,-0.059165,-0.308898,0.342582,-0.236172,-0.340042,-4.107087,-0.398769,-17.594175
1790547743.8985,0.029109,-0.061196,-0.309694,0.028634,-0.060587,-0.309694,0.227238,-0.126900,0.177182,0.338959,2.055111,-7.697322
1790547743.9126,0.028961,-0.059245,-0.301010,0.028863,-0.059647,-0.301010,-0.138219,0.034581,0.454007,-1.232488,1.051251,-10.375294
1790547743.9265,0.030912,-0.060809,-0.296565,0.030297,-0.060460,-0.296565,0.128893,-0.336946,0.688336,1.718767,1.014071,-8.512357
1790547743.9405,0.035655,-0.067075,-0.286057,0.034047,-0.065090,-0.286057,0.444570,-0.262884,0.447936,-1.807408,0.753811,-8.589979
1790547743.9547,0.024155,-0.070757,-0.285504,0.027123,-0.069057,-0.285504,0.284303,0.668363,0.440651,1.680439,1.162791,-9.210958
1790547743.9690,0.014442,-0.078518,-0.279991,0.018246,-0.075679,-0.279991,0.556271,0.605228,0.536568,0.683911,1.274331,-11.423196
1790547743.9825,0.000934,-0.083833,-0.278254,0.006128,-0.081387,-0.278254,0.573269,0.900265,0.665267,0.760567,2.873071,-7.076343
1790547743.9963,-0.010942,-0.087307,-0.272638,-0.005821,-0.085531,-0.272638,0.341368,0.773994,0.708976,0.837223,2.315371,-8.939280
1790547744.0108,-0.016186,-0.092974,-0.263693,-0.013076,-0.090741,-0.263693,0.440927,0.352686,0.710191,-0.235960,1.794851,-8.939280
1790547744.0249,-0.021282,-0.102294,-0.258743,-0.018821,-0.098828,-0.258743,0.765103,0.272553,0.628843,1.872079,3.876931,-13.751868
1790547744.0389,-0.013392,-0.101938,-0.249409,-0.015020,-0.101005,-0.249409,-0.028946,-0.628340,0.694407,0.990535,1.348691,-12.859210
1790547744.0530,-0.005989,-0.093144,-0.240852,-0.008699,-0.095502,-0.240852,-0.638445,-0.607700,0.609417,1.182175,0.828171,-10.918651
1790547744.0671,-0.003926,-0.086171,-0.230683,-0.005358,-0.088971,-0.230683,-0.644516,-0.394011,0.580277,3.328542,-1.365448,-8.279490
1790547744.0812,0.001716,-0.077973,-0.223957,-0.000406,-0.081272,-0.223957,-0.710079,-0.616199,0.360518,2.753622,-0.956469,-7.891378
1790547744.0952,0.012065,-0.065308,-0.221644,0.008323,-0.070097,-0.221644,-0.939552,-0.922163,0.237889,2.332014,0.344831,-8.163056
1790547744.1094,0.016274,-0.051251,-0.226311,0.013889,-0.056905,-0.226311,-0.958979,-0.539708,0.060625,3.941790,1.423051,-8.900469
1790547744.1235,0.004710,-0.054561,-0.231199,0.007463,-0.055265,-0.231199,0.183529,0.707216,-0.324258,4.363398,0.121751,-15.187882
1790547744.1375,0.002688,-0.061854,-0.241157,0.004120,-0.059877,-0.241157,0.524703,0.352686,-0.932544,-1.730752,0.828171,-10.530539
1790547744.1515,0.021858,-0.064778,-0.261193,0.016536,-0.063308,-0.261193,0.415430,-1.086072,-1.123164,-1.807408,2.352551,-5.174595
1790547744.1655,0.016152,-0.073055,-0.269408,0.016267,-0.070131,-0.269408,0.636404,0.107430,-0.377681,5.244941,1.274331,-7.580888
1790547744.1794,0.024695,-0.081830,-0.277792,0.022167,-0.078320,-0.277792,0.686184,-0.498427,-0.482097,-1.500784,1.980751,-11.772497
1790547744.1934,0.042274,-0.092669,-0.290302,0.036242,-0.088364,-0.290302,0.825810,-1.208700,-0.755279,-0.120976,1.943571,-12.199420
1790547744.2074,0.050837,-0.102361,-0.310206,0.046459,-0.098162,-0.310206,0.769960,-0.588274,-1.073384,0.492271,2.315371,-10.452916
1790547744.2218,0.056600,-0.109213,-0.329109,0.053558,-0.105898,-0.329109,0.587838,-0.419508,-0.870622,0.530599,1.757671,-6.183686
1790547744.2360,0.066430,-0.117032,-0.343526,0.062569,-0.113692,-0.343526,0.555057,-0.635625,-0.879121,-0.504256,0.865351,-8.240679
1790547744.2501,0.060867,-0.129079,-0.358642,0.061378,-0.124463,-0.358642,0.941154,0.376969,-0.717641,0.568927,2.612811,-12.432287
1790547744.2643,0.055759,-0.124245,-0.367225,0.057445,-0.124311,-0.367225,-0.370120,0.557876,-0.654505,-4.643678,0.307651,-13.596623
1790547744.2784,0.059395,-0.113369,-0.366352,0.058810,-0.116651,-0.366352,-0.893415,-0.047980,-0.491810,-4.145415,-1.588528,-11.112707
1790547744.2923,0.063733,-0.103473,-0.345310,0.062256,-0.107426,-0.345310,-1.026971,0.032153,-0.411677,-3.148887,-2.480848,-4.049070
1790547744.3063,0.059699,-0.088195,-0.345940,0.060466,-0.093964,-0.345940,-1.207878,0.406109,-0.295119,-1.500784,-0.807749,-7.503266
1790547744.3203,0.057624,-0.071897,-0.350433,0.058476,-0.078517,-0.350433,-1.257658,0.298050,-0.493024,-1.845736,-0.250049,-8.667602
1790547744.3343,0.046932,-0.058473,-0.354864,0.050396,-0.064486,-0.354864,-1.065823,0.925761,-0.459028,-2.114032,-0.621849,-9.521448
1790547744.3482,0.037834,-0.043722,-0.359890,0.041602,-0.049951,-0.359890,-1.122888,0.924547,-0.478455,-3.685479,0.344831,-9.831937
1790547744.3622,0.045158,-0.045730,-0.358826,0.044091,-0.046996,-0.358826,0.003836,-0.318734,-0.161563,-4.911974,-1.811608,-14.023546
1790547744.3761,0.044952,-0.054089,-0.354683,0.044694,-0.051961,-0.354683,0.558699,0.055222,0.217249,-1.500784,0.382011,-11.966553
1790547744.3900,0.034540,-0.048983,-0.354871,0.037586,-0.049877,-0.354871,-0.056871,0.591872,0.481932,1.220503,4.174371,-5.562707
1790547744.4039,0.034261,-0.047102,-0.349294,0.035258,-0.047935,-0.349294,0.022048,0.033367,0.428510,-1.079176,3.579491,-9.210958
1790547744.4178,0.028244,-0.050981,-0.343454,0.030348,-0.050067,-0.343454,0.289159,0.289551,0.490431,1.335487,1.125611,-9.094525
1790547744.4318,0.012417,-0.057607,-0.338872,0.017796,-0.055345,-0.338872,0.519846,0.930618,0.515928,2.638638,1.757671,-9.443825
1790547744.4453,0.004011,-0.066604,-0.333407,0.008146,-0.063226,-0.333407,0.694683,0.638010,0.496502,-0.772552,1.497411,-9.560259
1790547744.4590,-0.001944,-0.069153,-0.327932,0.001083,-0.067375,-0.327932,0.303729,0.401252,0.530498,0.070663,3.170511,-10.181238
1790547744.4736,-0.006238,-0.072949,-0.318800,-0.004042,-0.071277,-0.318800,0.277018,0.234915,0.667696,0.300631,1.497411,-9.754315
1790547744.4878,-0.013787,-0.077781,-0.310492,-0.010864,-0.075830,-0.310492,0.397218,0.385468,0.626415,1.757095,1.794851,-8.357112
1790547744.5020,-0.009524,-0.078981,-0.305799,-0.009926,-0.078036,-0.305799,0.278232,-0.333304,0.528069,0.223975,5.550031,-11.462007
1790547744.5160,0.002692,-0.075513,-0.293459,-0.001093,-0.076270,-0.293459,-0.304556,-1.020508,0.654340,2.332014,0.382011,-13.984735
1790547744.5300,0.004230,-0.066046,-0.283592,0.002633,-0.069113,-0.283592,-0.687011,-0.268954,0.548710,2.140375,0.976891,-10.375294
1790547744.5439,0.008317,-0.060180,-0.271794,0.006612,-0.062860,-0.271794,-0.587451,-0.546993,0.386015,2.983590,-1.328269,-7.619700
1790547744.5578,0.010337,-0.049270,-0.268196,0.009219,-0.053347,-0.268196,-0.799926,-0.400082,0.131045,2.868606,0.567911,-6.416553
1790547744.5718,0.015846,-0.037519,-0.265539,0.013858,-0.042267,-0.265539,-0.865490,-0.562777,0.009631,3.405198,0.976891,-11.656063
1790547744.5856,0.005862,-0.036791,-0.268151,0.008261,-0.038434,-0.268151,-0.104223,0.618584,-0.323044,4.056774,0.456371,-15.032637
1790547744.5996,0.015891,-0.039273,-0.283027,0.013602,-0.039021,-0.283027,0.207812,-0.447433,-0.913117,-2.573967,1.423051,-9.560259
1790547744.6138,0.018786,-0.042747,-0.302217,0.017231,-0.041629,-0.302217,0.324370,0.137783,-0.812344,-3.148887,1.757671,-6.959909
1790547744.6282,0.015859,-0.050594,-0.310219,0.016271,-0.047905,-0.310219,0.504063,0.242199,-0.673931,0.722239,0.270471,-9.249770
1790547744.6423,0.029872,-0.058681,-0.318956,0.025791,-0.055448,-0.318956,0.521061,-0.844458,-0.783204,-1.194160,0.121751,-9.870749
1790547744.6563,0.038768,-0.066919,-0.329793,0.034875,-0.063478,-0.329793,0.582982,-0.584631,-0.846340,0.300631,0.828171,-8.551168
1790547744.6700,0.044282,-0.074715,-0.343194,0.041460,-0.071344,-0.343194,0.609693,-0.345445,-0.899762,0.147319,1.460231,-8.318301
1790547744.6837,0.053569,-0.080266,-0.357896,0.049936,-0.077589,-0.357896,0.432428,-0.577346,-0.996893,-0.465928,1.237151,-7.697322
1790547744.6977,0.063791,-0.089047,-0.370508,0.059634,-0.085610,-0.370508,0.601194,-0.644124,-0.924045,-0.619240,0.790991,-9.831937
1790547744.7121,0.066652,-0.098523,-0.382546,0.064546,-0.094649,-0.382546,0.767531,-0.149968,-0.563444,-0.734224,3.319231,-11.656063
1790547744.7264,0.043813,-0.092723,-0.392686,0.050033,-0.093301,-0.392686,-0.401687,1.564400,-0.655719,1.565455,1.608951,-14.217602
1790547744.7409,0.047042,-0.082752,-0.405510,0.047939,-0.085917,-0.405510,-0.755003,0.064935,-0.639935,-5.103614,-0.361589,-10.724595
1790547744.7549,0.043459,-0.075602,-0.414137,0.044803,-0.078696,-0.414137,-0.683368,0.451032,-0.644792,-1.922392,-1.402628,-7.425644
1790547744.7689,0.034431,-0.065171,-0.419714,0.037542,-0.069229,-0.419714,-0.904342,0.788563,-0.403178,-1.194160,-1.068009,-6.494175
1790547744.7830,0.025115,-0.055700,-0.424953,0.028843,-0.059758,-0.424953,-0.813282,0.877196,-0.320616,-2.190688,-0.993649,-6.921098
1790547744.7971,0.014266,-0.046279,-0.430306,0.018639,-0.050323,-0.430306,-0.674869,0.935475,-0.295119,-1.922392,0.939711,-9.366203
1790547744.8111,0.022550,-0.050948,-0.428157,0.021377,-0.050761,-0.428157,0.331654,-0.448647,0.083693,-4.222071,1.720491,-15.925294
1790547744.8250,0.022841,-0.050097,-0.419340,0.022402,-0.050296,-0.419340,-0.086010,-0.112330,0.644627,0.453943,0.939711,-12.936833
1790547744.8393,0.016891,-0.052598,-0.409493,0.018544,-0.051908,-0.409493,0.168959,0.330832,0.734473,0.223975,1.051251,-10.064805
1790547744.8534,0.014604,-0.059984,-0.402011,0.015786,-0.057561,-0.402011,0.621834,0.493527,0.456435,-2.152360,0.865351,-2.574245
1790547744.8674,0.003202,-0.070417,-0.395887,0.006977,-0.066560,-0.395887,0.745677,0.642866,0.485574,1.948735,0.790991,-7.969000
1790547744.8814,-0.011585,-0.078754,-0.385561,-0.006016,-0.075096,-0.385561,0.632762,0.897836,0.732045,2.063719,1.757671,-9.909560
1790547744.8956,-0.025619,-0.087577,-0.373150,-0.019738,-0.083833,-0.373150,0.708038,0.968256,0.842532,-0.274288,2.464091,-8.434735
1790547744.9094,-0.031615,-0.092550,-0.359027,-0.028052,-0.089935,-0.359027,0.428786,0.381826,0.939663,0.377287,2.464091,-9.366203
1790547744.9230,-0.033930,-0.099035,-0.348686,-0.032166,-0.096305,-0.348686,0.415430,0.189991,0.874100,-0.619240,0.456371,-9.637881
1790547744.9370,-0.035994,-0.105321,-0.338652,-0.034846,-0.102616,-0.338652,0.410574,0.132927,0.747829,0.147319,0.716631,-10.802217
1790547744.9511,-0.029521,-0.109953,-0.327236,-0.031119,-0.107752,-0.327236,0.277018,-0.526352,0.766041,1.258831,0.530731,-13.092077
1790547744.9650,-0.026186,-0.107068,-0.317006,-0.027666,-0.107273,-0.317006,-0.297271,-0.362443,0.704120,2.332014,-0.398769,-11.966553
1790547744.9794,-0.022651,-0.098054,-0.305975,-0.024156,-0.100820,-0.305975,-0.776857,-0.475358,0.744187,3.788478,-1.439808,-9.715504
1790547744.9935,-0.022291,-0.086064,-0.297023,-0.022850,-0.090491,-0.297023,-0.995403,-0.309021,0.614273,4.363398,-1.142369,-8.861658
1790547745.0074,-0.014651,-0.073054,-0.289764,-0.017111,-0.078285,-0.289764,-1.034255,-0.741256,0.440651,2.830278,-0.435949,-9.288581
1790547745.0214,-0.013583,-0.058495,-0.286405,-0.014642,-0.064432,-0.286405,-1.062181,-0.363657,0.284027,4.095102,0.642271,-7.813756
1790547745.0354,-0.008569,-0.043446,-0.283377,-0.010391,-0.049742,-0.283377,-1.082821,-0.651409,0.236675,4.248414,1.014071,-8.046623
1790547745.0493,-0.017671,-0.038550,-0.283154,-0.015487,-0.041908,-0.283154,-0.389546,0.523880,0.003560,4.018446,0.790991,-15.032637
1790547745.0633,-0.009971,-0.040457,-0.293550,-0.011626,-0.040892,-0.293550,0.185957,-0.239815,-0.712784,-5.218598,2.241011,-14.139979
1790547745.0772,-0.013262,-0.044653,-0.308205,-0.012771,-0.043525,-0.308205,0.478566,0.278624,-0.711570,0.837223,2.724351,-7.153965
1790547745.0912,-0.016812,-0.047550,-0.313701,-0.015600,-0.046343,-0.313701,0.249093,0.102573,-0.415319,2.906934,1.162791,-7.231588
1790547745.1054,-0.007686,-0.047715,-0.317641,-0.010060,-0.047303,-0.317641,-0.019233,-0.588274,-0.465099,0.262303,0.344831,-9.210958
1790547745.1197,-0.007546,-0.054049,-0.322573,-0.008300,-0.052025,-0.322573,0.362008,0.003014,-0.636293,1.297159,-0.659029,-9.948371
1790547745.1334,0.003837,-0.060429,-0.334701,0.000196,-0.057908,-0.334701,0.547772,-0.786179,-0.798988,0.722239,1.943571,-9.637881
1790547745.1470,0.017390,-0.063943,-0.348048,0.012232,-0.062132,-0.348048,0.335297,-0.931876,-0.893691,0.338959,1.608951,-7.891378
1790547745.1610,0.019195,-0.067882,-0.363213,0.017106,-0.066157,-0.363213,0.404503,-0.156039,-0.820843,1.450471,2.278191,-7.697322
1790547745.1748,0.030506,-0.071832,-0.382138,0.026486,-0.070129,-0.382138,0.490707,-0.726686,-0.814772,-0.389272,4.100011,-9.172147
1790547745.1887,0.011307,-0.072154,-0.392026,0.015861,-0.071547,-0.392026,0.071828,1.351925,-0.615653,2.791950,2.835891,-17.012007
1790547745.2026,0.008480,-0.062945,-0.403039,0.010694,-0.065526,-0.403039,-0.643302,0.459531,-0.459028,-6.253454,1.980751,-17.749420
1790547745.2168,0.008308,-0.053200,-0.405397,0.009024,-0.056898,-0.405397,-0.773215,0.240985,-0.166420,-2.765607,-0.398769,-7.736133
1790547745.2312,0.003314,-0.045569,-0.407583,0.005027,-0.048968,-0.407583,-0.569239,0.565161,-0.002511,-1.117504,0.121751,-3.039979
1790547745.2453,-0.005778,-0.034838,-0.413878,-0.002537,-0.039077,-0.413878,-0.463609,0.812846,-0.160349,-0.964192,2.724351,-3.622147
1790547745.2593,-0.010184,-0.033262,-0.416534,-0.007890,-0.035006,-0.416534,-0.076297,0.374541,-0.008582,-0.695896,2.241011,-12.044175
1790547745.2733,0.004219,-0.037203,-0.414616,0.000587,-0.036544,-0.414616,0.187172,-0.947660,0.133473,-2.267343,-0.324409,-14.799770
1790547745.2873,0.005353,-0.036073,-0.406459,0.003923,-0.036214,-0.406459,-0.146718,-0.083191,0.693193,-1.347472,0.456371,-11.229140
1790547745.3013,0.003434,-0.039081,-0.392765,0.003581,-0.038221,-0.392765,0.057258,0.050365,0.953019,-0.312616,-1.105189,-10.258860
1790547745.3151,0.002985,-0.043506,-0.383055,0.003164,-0.041920,-0.383055,0.137392,0.046723,0.687122,-0.887536,-1.030829,-6.338930
1790547745.3292,-0.007204,-0.051043,-0.373840,-0.004094,-0.048306,-0.373840,0.477351,0.594301,0.670124,1.143847,0.382011,-9.094525
1790547745.3433,-0.015403,-0.061901,-0.364762,-0.012010,-0.057823,-0.364762,0.723822,0.559091,0.734473,-0.389272,0.567911,-9.909560
1790547745.3568,-0.028590,-0.070734,-0.352867,-0.023616,-0.066861,-0.352867,0.646117,0.875982,0.943306,0.798895,1.423051,-9.948371
1790547745.3704,-0.037420,-0.076300,-0.340615,-0.033279,-0.073468,-0.340615,0.419073,0.639224,0.960304,-0.580912,2.017931,-10.646972
1790547745.3840,-0.041921,-0.080260,-0.328745,-0.039329,-0.078223,-0.328745,0.283089,0.290765,0.895954,0.147319,1.497411,-9.366203
1790547745.3979,-0.042964,-0.086557,-0.317309,-0.041873,-0.084056,-0.317309,0.480994,0.055222,0.793966,-0.005993,2.241011,-10.414105
1790547745.4118,-0.037401,-0.092020,-0.307574,-0.038743,-0.089631,-0.307574,0.199313,-0.378227,0.750257,-0.734224,-1.848788,-10.996273
1790547745.4258,-0.031934,-0.089323,-0.295682,-0.033977,-0.089415,-0.295682,-0.342194,-0.545779,0.719904,2.983590,-1.365448,-13.014455
1790547745.4396,-0.027486,-0.083843,-0.284181,-0.029433,-0.085515,-0.284181,-0.561954,-0.511783,0.623986,3.481854,-1.737248,-11.656063
1790547745.4536,-0.024327,-0.071601,-0.274932,-0.025859,-0.075776,-0.274932,-1.002688,-0.472930,0.386015,3.558510,-0.807749,-8.201867
1790547745.4676,-0.017832,-0.055577,-0.268817,-0.020240,-0.061637,-0.268817,-1.223662,-0.697546,0.218463,3.060246,-0.064149,-7.348021
1790547745.4819,-0.006944,-0.039879,-0.262477,-0.010933,-0.046407,-0.262477,-1.212734,-0.942803,0.146829,2.217030,-0.547489,-6.804665
1790547745.4959,-0.009696,-0.042469,-0.256448,-0.010067,-0.043650,-0.256448,0.047545,0.130498,0.212392,1.795423,-1.700068,-17.012007
1790547745.5100,-0.013462,-0.048123,-0.262055,-0.012444,-0.046781,-0.262055,0.512562,0.457103,-0.375252,-2.343999,3.096151,-11.073895
1790547745.5239,-0.005122,-0.049605,-0.271216,-0.007319,-0.048758,-0.271216,0.245450,-0.389154,-0.695786,-2.075704,3.170511,-10.025993
1790547745.5379,-0.006184,-0.050350,-0.276602,-0.006524,-0.049873,-0.276602,0.011121,-0.022483,-0.416533,2.025391,0.121751,-7.231588
1790547745.5518,-0.000242,-0.055958,-0.276954,-0.002127,-0.054133,-0.276954,0.332869,-0.319948,-0.233198,-1.194160,-0.212869,-10.646972
1790547745.5657,0.011861,-0.067445,-0.280621,0.007665,-0.063451,-0.280621,0.779673,-0.793464,-0.439602,-0.427600,0.047391,-8.978091
1790547745.5796,0.023318,-0.075707,-0.290739,0.018622,-0.072030,-0.290739,0.701968,-0.716973,-0.737067,-0.504256,1.869211,-7.115154
1790547745.5932,0.029700,-0.079958,-0.303054,0.026377,-0.077580,-0.303054,0.432428,-0.498427,-0.802630,1.412143,2.612811,-9.094525
1790547745.6069,0.034406,-0.084742,-0.313193,0.031997,-0.082594,-0.313193,0.352295,-0.349088,-0.752851,0.798895,0.753811,-8.551168
1790547745.6209,0.042253,-0.092741,-0.322757,0.039176,-0.089697,-0.322757,0.575697,-0.555492,-0.705499,0.492271,0.790991,-9.055714
1790547745.6348,0.045473,-0.101627,-0.329437,0.043584,-0.098048,-0.329437,0.676471,-0.182750,-0.432317,-0.657568,1.608951,-11.811308
1790547745.6488,0.026008,-0.095768,-0.335221,0.031281,-0.096452,-0.335221,-0.377405,1.400491,-0.268408,0.338959,2.241011,-15.808861
1790547745.6628,0.031457,-0.083445,-0.335108,0.031404,-0.087347,-0.335108,-0.972334,-0.135399,-0.211343,-4.911974,-1.068009,-11.190329
1790547745.6768,0.032329,-0.075578,-0.333865,0.032052,-0.079109,-0.333865,-0.729506,0.177850,-0.129996,-3.148887,-1.625708,-7.386832
