t,imu_roll,imu_pitch,imu_yaw,lpf_roll,lpf_pitch,lpf_yaw,gyro_x,gyro_y,gyro_z,acc_x,acc_y,acc_z
1790547619.2128,0.008620,-0.023451,-0.002628,0.006034,-0.016416,-0.002628,-0.010919,-0.010193,-0.002532,-0.005993,1.237151,-9.948371
1790547619.2280,-0.007015,-0.016920,-0.010839,-0.003100,-0.016769,-0.010839,0.018221,0.008019,0.002324,0.300631,1.385871,-9.831937
1790547619.2417,-0.002313,-0.018856,-0.008428,-0.002549,-0.018230,-0.008428,0.015792,0.011662,0.002324,-0.005993,1.311511,-10.220049
1790547619.2555,-0.007227,-0.019295,-0.010100,-0.005823,-0.018976,-0.010100,-0.004848,-0.006550,0.003539,0.300631,1.311511,-10.103616
1790547619.2695,-0.003420,-0.021403,-0.007346,-0.004141,-0.020675,-0.007346,-0.040058,-0.011407,-0.003746,-0.044320,1.237151,-10.452916
1790547619.2834,-0.006458,-0.020004,-0.009452,-0.005763,-0.020205,-0.009452,-0.053414,-0.008979,-0.018316,0.300631,1.348691,-10.064805
1790547619.2976,-0.004754,-0.019476,-0.008602,-0.005057,-0.019695,-0.008602,-0.046129,0.026232,-0.011031,-0.005993,1.348691,-10.336483
1790547619.3122,-0.003743,-0.016187,-0.008078,-0.004137,-0.017239,-0.008078,-0.067983,0.074797,0.032678,-0.044320,1.497411,-9.909560
1790547619.3268,-0.002526,-0.011182,-0.006802,-0.003009,-0.012999,-0.006802,-0.112907,-0.011407,0.109169,-0.005993,1.646131,-9.831937
1790547619.3411,-0.000870,-0.003444,-0.004052,-0.001512,-0.006311,-0.004052,-0.140832,-0.113395,0.223298,0.032335,1.869211,-9.288581
1790547619.3554,-0.001136,-0.002692,0.002003,-0.001249,-0.003777,0.002003,-0.093480,-0.115823,0.371424,0.185647,1.348691,-9.443825
1790547619.3694,-0.006444,-0.003448,0.010311,-0.004885,-0.003547,0.010311,-0.047343,0.089367,0.504979,0.415615,1.162791,-8.784035
1790547619.3835,-0.013879,-0.010740,0.022440,-0.011181,-0.008582,0.022440,0.051002,0.224137,0.603325,0.530599,0.567911,-9.172147
1790547619.3979,-0.006943,-0.007261,0.030495,-0.008214,-0.007657,0.030495,0.040075,0.097866,0.540189,-1.117504,2.017931,-10.064805
1790547619.4118,-0.001889,-0.011347,0.034342,-0.003787,-0.010240,0.034342,0.014578,-0.045403,0.382351,-0.619240,0.828171,-9.676693
1790547619.4259,-0.002535,-0.018791,0.030529,-0.002910,-0.016225,0.030529,0.044932,-0.021120,0.239082,0.185647,0.344831,-11.539630
1790547619.4401,-0.004753,-0.025023,0.029324,-0.004200,-0.022383,0.029324,0.188201,0.118506,0.179589,0.147319,0.679451,-9.870749
1790547619.4542,-0.005534,-0.031563,0.030937,-0.005134,-0.028809,0.030937,0.279261,0.089367,0.177161,-0.005993,0.753811,-10.064805
1790547619.4679,-0.009375,-0.031305,0.032964,-0.008102,-0.030556,0.032964,0.149348,0.253276,0.055747,0.185647,1.348691,-8.357112
1790547619.4816,-0.008582,-0.031070,0.040393,-0.008438,-0.030916,0.040393,0.105639,0.139147,0.041177,-0.312616,1.311511,-8.667602
1790547619.4956,-0.012697,-0.028854,0.041548,-0.011419,-0.029473,0.041548,0.074071,0.102722,0.067888,0.645583,1.683311,-8.939280
1790547619.5096,-0.015231,-0.026574,0.042277,-0.014087,-0.027444,0.042277,-0.019418,-0.012621,0.105527,0.798895,1.757671,-10.491728
1790547619.5237,-0.014283,-0.019043,0.046835,-0.014224,-0.021563,0.046835,-0.161472,-0.198385,0.194159,0.568927,2.575631,-10.220049
1790547619.5379,-0.007794,-0.004782,0.052527,-0.009723,-0.009816,0.052527,-0.471079,-0.561413,0.233011,0.415615,3.653851,-10.996273
1790547619.5521,-0.007237,0.005475,0.066351,-0.007983,0.000888,0.066351,-0.535428,-0.477637,0.100670,1.795423,2.538451,-11.306763
1790547619.5667,-0.013950,0.000155,0.078384,-0.012160,0.000375,0.078384,0.150562,0.169500,-0.160371,2.063719,1.125611,-15.304315
1790547619.5808,-0.013249,0.009258,0.042799,-0.012922,0.006593,0.042799,0.055859,-0.102468,-0.603532,0.722239,3.691031,-8.551168
1790547619.5951,-0.012391,0.009458,0.034316,-0.012551,0.008599,0.034316,0.019435,-0.002908,-0.917995,0.492271,1.571771,-9.366203
1790547619.6092,0.002629,0.008423,-0.008826,-0.001925,0.008476,-0.008826,0.179702,-0.467924,-1.016341,-1.270816,1.497411,-7.697322
1790547619.6232,0.005099,0.005402,-0.011564,0.002992,0.006324,-0.011564,0.216126,-0.181387,-0.876714,0.453943,1.274331,-8.124245
1790547619.6372,0.012774,-0.003128,-0.026544,0.009839,-0.000293,-0.026544,0.296259,-0.220239,-0.859716,-0.964192,0.196111,-11.112707
1790547619.6515,0.014377,-0.003768,-0.036894,0.013015,-0.002726,-0.036894,0.076499,-0.051474,-1.001771,0.300631,1.720491,-10.452916
1790547619.6655,0.013435,-0.004392,-0.053170,0.013309,-0.003892,-0.053170,0.057073,0.213209,-1.249456,0.108991,1.720491,-10.996273
1790547619.6795,0.013489,-0.001699,-0.075757,0.013435,-0.002357,-0.075757,-0.072840,0.232636,-1.271311,-0.235960,1.757671,-8.434735
1790547619.6932,0.008595,0.006215,-0.086764,0.010047,0.003643,-0.086764,-0.224608,0.389260,-1.125614,0.415615,2.166651,-6.532986
1790547619.7069,0.006149,0.000844,-0.090429,0.007318,0.001684,-0.090429,0.180916,0.260561,-0.900997,0.262303,0.530731,-9.909560
1790547619.7209,0.005744,-0.000631,-0.103448,0.006217,0.000064,-0.103448,0.159061,0.159787,-0.728589,-0.082648,1.794851,-10.142427
1790547619.7353,0.005468,0.000617,-0.109233,0.005693,0.000451,-0.109233,0.044932,0.026232,-0.633886,0.453943,2.166651,-9.754315
1790547619.7494,0.001577,0.010206,-0.137969,0.002812,0.007279,-0.137969,-0.151759,0.451181,-0.671524,-0.197632,3.765391,-8.124245
1790547619.7636,0.000043,0.011381,-0.171056,0.000874,0.010151,-0.171056,0.001223,0.434183,-0.664240,-1.155832,2.389731,-11.617252
1790547619.7779,-0.005981,0.016000,-0.186966,-0.003925,0.014245,-0.186966,-0.036416,0.613876,-0.592605,-0.350944,3.393591,-10.220049
1790547619.7919,0.003392,0.015874,-0.227623,0.001197,0.015385,-0.227623,-0.135975,-0.251807,-0.387415,-2.458983,1.199971,-13.790679
1790547619.8062,0.009349,0.012428,-0.231151,0.006903,0.013315,-0.231151,0.048574,-0.392647,0.043605,-0.274288,0.716631,-13.713056
1790547619.8208,-0.000693,0.004336,-0.204720,0.001586,0.007030,-0.204720,0.295045,0.428113,0.863151,0.683911,-0.026969,-8.667602
1790547619.8353,-0.012638,-0.008688,-0.175946,-0.008371,-0.003973,-0.175946,0.608294,0.553169,0.836440,0.798895,-0.250049,-7.270399
1790547619.8496,-0.013053,-0.021549,-0.168217,-0.011648,-0.016276,-0.168217,0.586439,0.082082,0.808515,-0.810880,-0.547489,-10.142427
1790547619.8639,-0.012113,-0.032370,-0.165101,-0.011973,-0.027542,-0.165101,0.551229,0.128219,0.653105,-1.577440,-0.026969,-10.258860
1790547619.8781,-0.016644,-0.037755,-0.160035,-0.015243,-0.034691,-0.160035,0.250122,0.335838,0.721097,-0.427600,0.456371,-11.073895
1790547619.8922,-0.021481,-0.047181,-0.153397,-0.019609,-0.043434,-0.153397,0.542730,0.358906,0.813371,-0.350944,0.344831,-10.064805
1790547619.9062,-0.032832,-0.054720,-0.136423,-0.028865,-0.051334,-0.136423,0.574298,0.616305,0.868008,0.837223,1.014071,-7.425644
1790547619.9198,-0.040176,-0.060008,-0.120110,-0.036783,-0.057406,-0.120110,0.531803,0.587165,0.707741,-0.197632,1.534591,-7.580888
1790547619.9335,-0.043417,-0.064949,-0.112115,-0.041427,-0.062686,-0.112115,0.394605,0.306698,0.583899,-0.312616,1.385871,-11.035084
1790547619.9475,-0.046856,-0.067655,-0.096656,-0.045227,-0.066164,-0.096656,0.313257,0.176785,0.447915,0.875551,2.092291,-11.656063
1790547619.9616,-0.041680,-0.071813,-0.095520,-0.042744,-0.070118,-0.095520,0.118994,-0.387791,0.504979,0.453943,-0.324409,-13.324944
1790547619.9756,-0.038221,-0.066704,-0.073958,-0.039578,-0.067728,-0.073958,-0.553640,-0.635476,0.438201,3.060246,-0.435949,-10.064805
1790547619.9895,-0.039604,-0.065308,-0.052973,-0.039597,-0.066034,-0.052973,-0.477149,-0.333155,0.466127,3.405198,-1.848788,-9.831937
1790547620.0035,-0.035505,-0.056766,-0.042341,-0.036732,-0.059546,-0.042341,-0.841392,-0.761747,0.366567,3.175230,-0.584669,-8.395923
1790547620.0175,-0.028135,-0.047026,-0.034014,-0.030714,-0.050782,-0.034014,-0.927596,-0.945082,0.274292,3.136902,-0.621849,-9.288581
1790547620.0317,-0.023251,-0.031935,-0.037458,-0.025490,-0.037589,-0.037458,-1.205635,-0.860092,0.124953,3.826806,-0.026969,-8.589979
1790547620.0459,-0.013169,-0.013661,-0.039631,-0.016865,-0.020840,-0.039631,-1.385328,-1.145416,0.095813,2.945262,0.493551,-8.279490
1790547620.0602,-0.011999,-0.000187,-0.031416,-0.013459,-0.006383,-0.031416,-1.087863,-0.319799,-0.074166,2.868606,0.493551,-13.014455
1790547620.0743,-0.024119,-0.013176,-0.015170,-0.020921,-0.011138,-0.015170,0.716352,0.865204,-0.499116,1.872079,-0.287229,-19.185434
1790547620.0883,-0.008996,-0.016483,-0.054589,-0.012574,-0.014880,-0.054589,0.480809,-0.913514,-0.920424,-0.350944,2.984611,-9.948371
1790547620.1022,-0.007325,-0.010947,-0.119801,-0.008899,-0.012127,-0.119801,-0.067983,-0.500706,-0.580464,2.370342,2.129471,-5.679140
1790547620.1162,-0.008001,-0.021483,-0.095995,-0.008271,-0.018676,-0.095995,0.573084,0.048086,-0.463906,0.492271,0.047391,-6.765853
1790547620.1302,0.010550,-0.030350,-0.117532,0.004904,-0.026848,-0.117532,0.825625,-0.963294,-0.783225,-2.343999,2.575631,-9.443825
1790547620.1440,0.020371,-0.033724,-0.161060,0.015731,-0.031662,-0.161060,0.495378,-0.709539,-0.930137,0.683911,2.798711,-8.939280
1790547620.1577,0.022807,-0.037923,-0.181506,0.020684,-0.036045,-0.181506,0.433457,-0.299159,-0.951991,1.603783,2.017931,-8.939280
1790547620.1712,0.028064,-0.039870,-0.217078,0.025850,-0.038722,-0.217078,0.331469,-0.347724,-1.019983,0.338959,2.092291,-7.891378
1790547620.1852,0.040763,-0.046337,-0.238268,0.036289,-0.044053,-0.238268,0.525732,-0.601480,-0.954419,-1.692424,1.348691,-7.736133
1790547620.1992,0.035765,-0.051210,-0.269852,0.035922,-0.049063,-0.269852,0.656859,0.481535,-0.620530,-0.695896,3.542311,-9.133336
1790547620.2130,0.013218,-0.042477,-0.275028,0.020029,-0.044453,-0.275028,-0.631345,1.617972,-0.496688,0.798895,1.720491,-14.023546
1790547620.2269,0.015031,-0.027732,-0.236461,0.016531,-0.032748,-0.236461,-1.228703,0.343123,-0.528256,-5.180270,0.047391,-12.315854
1790547620.2408,0.008981,-0.018637,-0.196815,0.011246,-0.022870,-0.196815,-0.984661,0.775357,-0.524613,-1.845736,-1.068009,-6.998721
1790547620.2546,0.001326,-0.001005,-0.218441,0.004302,-0.007564,-0.218441,-1.023513,1.058252,-0.452979,-2.190688,2.017931,-4.902916
1790547620.2686,-0.008434,0.007845,-0.220472,-0.004614,0.003222,-0.220472,-0.764901,1.042468,-0.437195,-1.654096,0.196111,-6.998721
1790547620.2825,-0.007880,0.007531,-0.226341,-0.006900,0.006238,-0.226341,0.002437,0.192569,-0.280571,-2.114032,1.757671,-13.092077
1790547620.2964,-0.006696,0.004502,-0.226220,-0.006757,0.005023,-0.226220,0.247693,0.014090,0.223298,-1.270816,2.092291,-11.151518
1790547620.3105,-0.011229,0.006595,-0.214729,-0.009887,0.006123,-0.214729,-0.201539,0.177999,0.694385,0.530599,1.125611,-9.676693
1790547620.3251,-0.015197,-0.001446,-0.193820,-0.013604,0.000825,-0.193820,0.388534,0.032302,0.728381,1.412143,0.010211,-9.366203
1790547620.3430,-0.023583,-0.016705,-0.181558,-0.020590,-0.011446,-0.181558,0.764918,0.345551,0.426060,0.530599,0.158931,-4.631238
1790547620.3574,-0.043329,-0.028774,-0.175388,-0.036507,-0.023576,-0.175388,0.836552,1.202735,0.502551,1.910407,1.571771,-11.500819
1790547620.3717,-0.053254,-0.037489,-0.171747,-0.048230,-0.033315,-0.171747,0.687213,0.702509,0.659175,-0.197632,2.501271,-11.229140
1790547620.3855,-0.061870,-0.043443,-0.165622,-0.057778,-0.040405,-0.165622,0.511162,0.561668,0.806087,0.492271,2.352551,-9.987182
1790547620.3992,-0.065412,-0.049395,-0.158852,-0.063122,-0.046698,-0.158852,0.490522,0.245991,0.855866,-0.005993,2.203831,-10.142427
1790547620.4133,-0.057730,-0.052857,-0.146730,-0.059348,-0.051009,-0.146730,0.163918,-0.613621,0.764806,0.683911,0.902531,-12.626343
1790547620.4272,-0.048505,-0.052239,-0.133654,-0.051758,-0.051870,-0.133654,-0.173614,-0.743535,0.580256,0.952207,0.084571,-12.626343
1790547620.4415,-0.043809,-0.055384,-0.102962,-0.046194,-0.054330,-0.102962,-0.037630,-0.620906,0.712598,2.638638,-1.253909,-8.939280
1790547620.4555,-0.037673,-0.052575,-0.077001,-0.040229,-0.053101,-0.077001,-0.445582,-0.813955,0.757521,2.753622,-0.919289,-7.309210
1790547620.4693,-0.037958,-0.044614,-0.062502,-0.038639,-0.047160,-0.062502,-0.761259,-0.385363,0.672531,3.903462,-0.621849,-9.210958
1790547620.4833,-0.024960,-0.031917,-0.045697,-0.029063,-0.036490,-0.045697,-1.061152,-1.090779,0.481911,1.527127,-0.138509,-11.073895
1790547620.4972,-0.015843,-0.014413,-0.053301,-0.019809,-0.021036,-0.053301,-1.307623,-1.024001,0.190516,3.635166,0.642271,-8.900469
1790547620.5112,-0.001095,0.003050,-0.058180,-0.006709,-0.004176,-0.058180,-1.288196,-1.455022,0.186874,3.060246,0.790991,-7.348021
1790547620.5251,0.002156,0.008467,-0.037617,-0.000503,0.004674,-0.037617,-0.569424,-0.438785,0.143165,2.332014,-0.212869,-11.267951
1790547620.5391,-0.008291,-0.000818,-0.041405,-0.005954,0.000830,-0.041405,0.698140,1.033969,-0.395914,-3.072231,2.538451,-13.635434
1790547620.5530,0.005159,-0.006803,-0.059859,0.001825,-0.004513,-0.059859,0.526946,-0.574769,-1.098902,-4.375383,3.876931,-15.964105
1790547620.5673,0.007000,-0.009476,-0.101517,0.005447,-0.007987,-0.101517,0.358180,-0.279732,-0.749229,2.370342,2.464091,-7.736133
1790547620.5816,0.015552,-0.016796,-0.101871,0.012521,-0.014154,-0.101871,0.491736,-0.437571,-0.466334,-1.079176,0.976891,-8.512357
1790547620.5956,0.029485,-0.029243,-0.102032,0.024396,-0.024716,-0.102032,0.834124,-0.711967,-0.819650,-2.535639,0.902531,-10.996273
1790547620.6093,0.046598,-0.040517,-0.134293,0.039937,-0.035777,-0.134293,1.022316,-1.054355,-0.893712,-1.232488,2.761531,-7.736133
1790547620.6230,0.054484,-0.045003,-0.173962,0.050120,-0.042235,-0.173962,0.639861,-0.537130,-0.941064,0.147319,3.133331,-6.067252
1790547620.6369,0.057044,-0.051182,-0.197319,0.054967,-0.048498,-0.197319,0.584011,-0.197171,-0.993272,0.607255,2.241011,-7.153965
1790547620.6509,0.045483,-0.062273,-0.184552,0.048328,-0.058140,-0.184552,0.673857,0.680654,-0.926494,3.021918,0.382011,-13.014455
1790547620.6648,0.028312,-0.056142,-0.196511,0.034317,-0.056741,-0.196511,-0.502646,1.394570,-0.900997,-1.999048,1.014071,-17.788231
1790547620.6788,0.030961,-0.042715,-0.194714,0.031968,-0.046923,-0.194714,-1.076936,0.224137,-0.796581,-6.981685,-0.101329,-15.537182
1790547620.6927,0.029840,-0.031585,-0.170221,0.030478,-0.036187,-0.170221,-1.115788,0.475464,-0.579250,-3.187215,-1.848788,-7.076343
1790547620.7067,0.019945,-0.012787,-0.178373,0.023105,-0.019807,-0.178373,-1.397469,0.935624,-0.573179,-1.040848,0.530731,-5.601518
1790547620.7206,0.008384,0.003136,-0.187370,0.012800,-0.003747,-0.187370,-1.225061,1.104390,-0.732231,-1.692424,0.567911,-8.978091
1790547620.7345,-0.006141,0.016911,-0.202762,-0.000459,0.010714,-0.202762,-0.927596,1.286511,-0.671524,-1.232488,2.129471,-9.055714
1790547620.7491,0.002294,0.019349,-0.211030,0.001468,0.016759,-0.211030,-0.165115,-0.339225,-0.554967,-2.650623,2.315371,-13.790679
1790547620.7630,0.008845,0.018807,-0.213634,0.006632,0.018192,-0.213634,0.137207,-0.301587,0.135880,-2.420655,2.873071,-9.599070
1790547620.7772,0.001773,0.018212,-0.205628,0.003231,0.018206,-0.205628,-0.042486,0.218066,0.540189,2.446998,0.605091,-9.754315
1790547620.7912,0.009571,0.008652,-0.198120,0.007669,0.011518,-0.198120,0.524518,-0.382934,0.355640,-2.190688,-0.287229,-7.231588
1790547620.8051,-0.001780,0.000224,-0.198484,0.001055,0.003612,-0.198484,0.744278,0.768072,0.273078,0.223975,2.278191,-6.959909
1790547620.8193,-0.015894,-0.009927,-0.197236,-0.010810,-0.005866,-0.197236,0.796486,0.868846,0.337428,1.258831,2.315371,-9.249770
1790547620.8350,-0.032066,-0.019763,-0.191988,-0.025689,-0.015594,-0.191988,0.698140,0.945337,0.604539,0.453943,2.278191,-8.784035
1790547620.8504,-0.043470,-0.024473,-0.188024,-0.038136,-0.021809,-0.188024,0.444385,0.712222,0.690743,-0.197632,3.096151,-8.434735
1790547620.8647,-0.045372,-0.029202,-0.180196,-0.043201,-0.026984,-0.180196,0.356966,0.105151,0.768448,-0.312616,2.092291,-10.142427
1790547620.8793,-0.051931,-0.033400,-0.172194,-0.049312,-0.031475,-0.172194,0.254978,0.405044,0.678602,0.147319,1.088431,-9.055714
1790547620.8943,-0.043027,-0.035404,-0.163829,-0.044913,-0.034225,-0.163829,0.179702,-0.637904,0.599682,0.108991,2.761531,-12.082986
1790547620.9083,-0.026360,-0.030311,-0.151637,-0.031926,-0.031485,-0.151637,-0.398230,-1.294755,0.634893,0.952207,1.571771,-13.674245
1790547620.9221,-0.019412,-0.020284,-0.127502,-0.023166,-0.023644,-0.127502,-0.865675,-0.880733,0.710169,4.440053,-0.212869,-11.190329
1790547620.9361,-0.012689,-0.010577,-0.108068,-0.015832,-0.014497,-0.108068,-0.871746,-0.858878,0.603325,3.596838,-0.696209,-8.667602
1790547620.9501,0.001597,0.004513,-0.102872,-0.003632,-0.001190,-0.102872,-1.055081,-1.350606,0.362925,2.791950,1.348691,-7.309210
1790547620.9642,0.015854,0.020794,-0.098864,0.010008,0.014199,-0.098864,-1.149784,-1.436810,0.285220,3.328542,1.199971,-6.532986
1790547620.9781,0.012699,0.024929,-0.097077,0.011891,0.021710,-0.097077,-0.259818,-0.057544,0.301003,2.791950,1.980751,-8.939280
1790547620.9921,0.005846,0.018164,-0.129948,0.007660,0.019228,-0.129948,0.653217,0.772929,-0.391058,-3.033903,4.174371,-10.646972
1790547621.0060,0.016188,0.019416,-0.153954,0.013630,0.019360,-0.153954,-0.025488,-0.391433,-1.032125,-2.650623,2.649991,-10.336483
1790547621.0200,0.017927,0.019187,-0.151214,0.016638,0.019239,-0.151214,-0.016989,-0.181387,-0.805080,1.527127,0.939711,-6.338930
1790547621.0338,0.024878,0.010960,-0.150344,0.022406,0.013443,-0.150344,0.479595,-0.287017,-0.490617,-1.500784,0.158931,-7.425644
1790547621.0478,0.032520,-0.004243,-0.159465,0.029486,0.001063,-0.159465,1.042957,-0.356223,-0.740730,-1.462456,1.162791,-10.918651
1790547621.0618,0.049323,-0.019049,-0.173376,0.043372,-0.013015,-0.173376,1.030815,-0.983935,-0.968989,-1.884064,1.423051,-11.112707
1790547621.0759,0.056077,-0.023295,-0.196455,0.052265,-0.020211,-0.196455,0.431029,-0.454569,-1.129256,1.028863,3.207691,-8.318301
1790547621.0897,0.057878,-0.029767,-0.204793,0.056195,-0.026900,-0.204793,0.429815,-0.120680,-0.989630,0.952207,1.385871,-10.142427
1790547621.1038,0.065269,-0.038382,-0.222766,0.062547,-0.034937,-0.222766,0.594938,-0.379292,-1.007842,-1.002520,1.571771,-9.987182
1790547621.1179,0.061805,-0.044567,-0.234112,0.062028,-0.041678,-0.234112,0.428601,0.282416,-0.769870,0.147319,2.017931,-13.247322
1790547621.1318,0.042390,-0.038514,-0.243648,0.048281,-0.039463,-0.243648,-0.474721,1.486844,-0.486975,-1.270816,1.720491,-17.555364
1790547621.1457,0.041384,-0.023890,-0.259653,0.043453,-0.028562,-0.259653,-1.096362,0.536171,-0.517328,-6.023486,0.679451,-8.861658
1790547621.1596,0.035661,-0.013410,-0.249448,0.037998,-0.017955,-0.249448,-1.063580,0.785070,-0.459050,-2.650623,-1.662888,-5.213406
1790547621.1735,0.018887,0.002024,-0.256547,0.024621,-0.003969,-0.256547,-1.194707,1.321721,-0.371631,-0.312616,0.196111,-3.932637
1790547621.1875,0.004687,0.016473,-0.265186,0.010667,0.010341,-0.265186,-0.981018,1.071608,-0.415340,0.300631,2.017931,-8.124245
1790547621.2014,-0.004156,0.028339,-0.274187,0.000291,0.022939,-0.274187,-0.871746,0.832422,-0.340064,-2.420655,2.166651,-14.722147
1790547621.2153,0.002299,0.024201,-0.273849,0.001697,0.023822,-0.273849,0.169988,-0.402361,-0.108162,-1.309144,-0.026969,-20.931938
1790547621.2293,0.001467,0.028972,-0.265026,0.001536,0.027427,-0.265026,-0.355735,-0.115823,0.531690,1.258831,1.757671,-10.685784
1790547621.2431,-0.001633,0.024793,-0.254011,-0.000682,0.025584,-0.254011,0.237980,0.065084,0.729596,0.453943,0.828171,-8.784035
1790547621.2569,-0.005774,0.016354,-0.250093,-0.004246,0.019123,-0.250093,0.602223,0.379547,0.375066,-1.347472,1.199971,-7.386832
1790547621.2709,-0.016845,0.006168,-0.245635,-0.013066,0.010055,-0.245635,0.683570,0.674583,0.389636,1.335487,1.162791,-11.694875
1790547621.2848,-0.028087,-0.005942,-0.239799,-0.023581,-0.001143,-0.239799,0.922756,0.736505,0.577828,0.300631,2.464091,-10.375294
1790547621.2984,-0.041375,-0.015565,-0.230553,-0.036037,-0.011238,-0.230553,0.785558,0.820280,0.831584,1.143847,2.761531,-9.521448
1790547621.3119,-0.052127,-0.022149,-0.221048,-0.047300,-0.018876,-0.221048,0.548801,0.695224,0.902004,0.492271,2.724351,-9.948371
1790547621.3256,-0.053950,-0.029932,-0.211041,-0.051955,-0.026615,-0.211041,0.518447,0.086939,0.842511,-0.159304,1.051251,-8.512357
1790547621.3401,-0.044587,-0.033510,-0.197908,-0.046797,-0.031442,-0.197908,0.295045,-0.766603,0.814586,0.990535,3.096151,-11.500819
1790547621.3542,-0.033941,-0.033118,-0.187155,-0.037798,-0.032615,-0.187155,-0.126262,-0.806670,0.716240,-0.197632,0.344831,-11.229140
1790547621.3681,-0.033630,-0.032539,-0.165668,-0.034880,-0.032562,-0.165668,-0.244034,-0.325870,0.824299,3.673494,-1.439808,-10.608161
1790547621.3821,-0.029000,-0.030826,-0.148549,-0.030764,-0.031347,-0.148549,-0.335095,-0.596623,0.702884,2.715294,-1.402628,-9.016902
1790547621.3960,-0.016585,-0.017244,-0.139403,-0.020838,-0.021475,-0.139403,-1.023513,-1.123561,0.559616,2.485326,0.902531,-9.987182
1790547621.4100,-0.004564,-0.001537,-0.130655,-0.009447,-0.007519,-0.130655,-1.214134,-1.161199,0.443058,3.366870,0.270471,-9.521448
1790547621.4239,0.005268,0.014480,-0.127692,0.000853,0.007881,-0.127692,-1.228703,-1.061640,0.251224,4.478381,0.344831,-9.249770
1790547621.4379,0.018599,0.028823,-0.128645,0.013276,0.022540,-0.128645,-1.034441,-1.200052,0.093385,2.638638,1.460231,-8.745224
1790547621.4518,0.007949,0.022355,-0.117735,0.009547,0.022411,-0.117735,0.319328,0.808139,-0.222292,0.262303,-0.287229,-15.149070
1790547621.4657,0.012018,0.016408,-0.127284,0.011277,0.018209,-0.127284,0.434671,-0.017478,-0.848789,-2.880591,2.649991,-14.372847
1790547621.4796,0.017548,0.014267,-0.188599,0.015667,0.015450,-0.188599,0.380035,-0.667044,-0.784440,3.405198,2.501271,-4.553616
1790547621.4935,0.017748,0.008595,-0.193668,0.017123,0.010651,-0.193668,0.394605,0.001949,-0.456621,0.530599,1.088431,-7.309210
1790547621.5075,0.027642,-0.001358,-0.193659,0.024486,0.002245,-0.193659,0.684785,-0.444856,-0.664240,-2.957247,1.348691,-10.724595
1790547621.5214,0.042178,-0.013497,-0.213868,0.036871,-0.008775,-0.213868,0.938540,-0.897731,-0.894927,-0.657568,2.241011,-8.551168
1790547621.5350,0.049362,-0.018480,-0.244282,0.045615,-0.015569,-0.244282,0.540302,-0.423001,-0.979916,-0.044320,2.798711,-6.338930
1790547621.5485,0.052290,-0.021033,-0.271149,0.050287,-0.019394,-0.271149,0.383677,-0.107324,-0.917995,-0.197632,3.170511,-6.571797
1790547621.5626,0.060344,-0.029429,-0.284498,0.057327,-0.026418,-0.284498,0.552443,-0.431500,-0.953205,-0.849208,1.088431,-9.172147
1790547621.5767,0.050530,-0.035368,-0.305532,0.052569,-0.032683,-0.305532,0.594938,0.789927,-0.654526,-0.542584,4.248731,-9.599070
1790547621.5915,0.028455,-0.031801,-0.304910,0.035689,-0.032066,-0.304910,-0.305955,1.489273,-0.575607,1.910407,1.385871,-21.125994
1790547621.6055,0.030164,-0.019111,-0.287120,0.031822,-0.022997,-0.287120,-1.069651,0.208353,-0.635100,-5.333582,-1.030829,-12.238231
1790547621.6195,0.023467,-0.007983,-0.264546,0.025974,-0.012487,-0.264546,-1.057509,0.754717,-0.541611,-2.420655,-1.737248,-7.270399
1790547621.6334,0.013126,0.009372,-0.278806,0.016981,0.002814,-0.278806,-1.244487,1.121388,-0.523399,-1.615768,0.567911,-3.350469
1790547621.6478,-0.000178,0.021851,-0.283849,0.004970,0.016140,-0.283849,-1.007729,1.291368,-0.540397,-2.612295,-0.361589,-6.300119
1790547621.6619,-0.002597,0.028002,-0.293830,-0.000327,0.024443,-0.293830,-0.384875,0.430541,-0.461478,-2.190688,2.055111,-8.201867
1790547621.6761,0.001618,0.021193,-0.293181,0.001034,0.022168,-0.293181,0.494164,-0.188672,0.128595,-2.765607,2.687171,-13.596623
1790547621.6904,-0.001443,0.024601,-0.285577,-0.000700,0.023871,-0.285577,-0.219751,0.107579,0.536547,0.338959,2.129471,-10.064805
1790547621.7044,-0.001734,0.019037,-0.274193,-0.001424,0.020487,-0.274193,0.346039,-0.161960,0.694385,1.105519,1.088431,-10.957462
1790547621.7184,-0.015038,0.007696,-0.260163,-0.010954,0.011534,-0.260163,0.835338,0.530101,0.364139,3.290214,1.014071,-4.670049
1790547621.7326,-0.031685,0.001531,-0.258696,-0.025465,0.004532,-0.258696,0.545158,0.931982,0.430917,2.791950,2.798711,-7.852567
1790547621.7467,-0.045352,-0.009412,-0.253291,-0.039386,-0.005229,-0.253291,0.800128,0.823923,0.585113,1.603783,2.278191,-10.414105
1790547621.7606,-0.058408,-0.017843,-0.253653,-0.052701,-0.014059,-0.253653,0.721209,0.836064,0.696814,0.798895,2.873071,-7.891378
1790547621.7744,-0.063296,-0.022743,-0.252924,-0.060118,-0.020138,-0.252924,0.435886,0.307913,0.775733,-0.005993,3.170511,-9.715504
1790547621.7885,-0.064212,-0.028363,-0.246063,-0.062984,-0.025895,-0.246063,0.382463,0.008019,0.792731,0.108991,1.832031,-10.064805
1790547621.8027,-0.051924,-0.032340,-0.233740,-0.055242,-0.030407,-0.233740,0.186986,-0.918371,0.756307,-0.044320,0.828171,-13.130889
1790547621.8169,-0.043723,-0.030793,-0.213891,-0.047178,-0.030677,-0.213891,-0.246462,-0.724108,0.662818,1.603783,-0.287229,-11.578441
1790547621.8310,-0.037132,-0.026164,-0.178864,-0.040146,-0.027518,-0.178864,-0.482006,-0.833381,0.812157,4.095102,-0.435949,-8.512357
1790547621.8452,-0.034060,-0.019903,-0.153971,-0.035886,-0.022188,-0.153971,-0.600992,-0.568698,0.732024,3.750150,-0.584669,-7.969000
1790547621.8594,-0.020058,-0.009010,-0.139547,-0.024806,-0.012963,-0.139547,-0.840178,-1.125989,0.491624,1.028863,0.567911,-8.395923
1790547621.8734,-0.009946,0.005021,-0.132498,-0.014404,-0.000374,-0.132498,-1.050224,-0.970579,0.305860,3.366870,0.902531,-10.181238
1790547621.8877,0.004168,0.023200,-0.130378,-0.001403,0.016128,-0.130378,-1.300338,-1.253474,0.161377,3.366870,1.162791,-9.016902
1790547621.9017,-0.001691,0.033960,-0.143906,-0.001605,0.028610,-0.143906,-0.716335,0.091795,0.225727,4.401726,2.166651,-8.512357
1790547621.9157,-0.009442,0.028865,-0.161312,-0.007090,0.028788,-0.161312,0.393391,0.878559,-0.656955,-3.148887,2.166651,-10.646972
1790547621.9297,0.000446,0.023206,-0.181454,-0.001815,0.024880,-0.181454,0.435886,-0.328298,-1.135327,-2.650623,1.794851,-9.094525
1790547621.9439,-0.000811,0.022777,-0.210209,-0.001112,0.023408,-0.210209,0.224625,-0.029619,-0.807508,2.485326,2.538451,-4.941727
1790547621.9580,0.002978,0.015019,-0.205187,0.001751,0.017536,-0.205187,0.462597,-0.134035,-0.477262,-0.734224,0.344831,-8.628791
1790547621.9720,0.019518,0.001607,-0.213432,0.014188,0.006385,-0.213432,0.911829,-0.878304,-0.893712,-3.570495,1.088431,-12.471098
1790547621.9862,0.036288,-0.012641,-0.241560,0.029658,-0.006933,-0.241560,1.076953,-0.855236,-1.091618,-2.803935,2.389731,-8.551168
1790547622.0000,0.042969,-0.019543,-0.271648,0.038976,-0.015760,-0.271648,0.652003,-0.353795,-1.123185,-0.044320,3.356411,-7.930189
1790547622.0137,0.046667,-0.022391,-0.297882,0.044360,-0.020402,-0.297882,0.350896,-0.159532,-1.113472,0.108991,2.687171,-6.377742
1790547622.0279,0.052982,-0.029491,-0.314081,0.050395,-0.026764,-0.314081,0.489308,-0.324656,-0.995700,-0.427600,1.534591,-9.366203
1790547622.0418,0.040082,-0.039632,-0.311103,0.043176,-0.035772,-0.311103,0.618007,0.933196,-0.880357,1.642111,0.270471,-14.605714
1790547622.0558,0.034726,-0.028191,-0.327677,0.037261,-0.030465,-0.327677,-0.840178,0.672155,-0.633886,-5.908502,1.757671,-15.770049
1790547622.0700,0.029624,-0.017796,-0.316567,0.031915,-0.021597,-0.316567,-0.934881,0.679440,-0.497902,-4.796990,-1.848788,-10.297672
1790547622.0842,0.021226,-0.003175,-0.323739,0.024433,-0.008702,-0.323739,-1.126715,0.967192,-0.455407,-2.535639,-0.064149,-4.514804
1790547622.0986,0.005055,0.016124,-0.341919,0.010868,0.008677,-0.341919,-1.174067,1.295010,-0.567108,-0.427600,1.646131,-3.544525
1790547622.1129,-0.007133,0.029210,-0.359391,-0.001733,0.023050,-0.359391,-0.886315,1.099533,-0.613246,-1.462456,1.683311,-7.774944
1790547622.1268,-0.008309,0.031672,-0.370432,-0.006336,0.029085,-0.370432,-0.135975,0.262989,-0.380130,-1.692424,2.687171,-11.229140
1790547622.1407,-0.004798,0.024401,-0.365820,-0.005259,0.025806,-0.365820,0.440742,-0.277304,0.197801,-0.235960,1.088431,-20.505015
1790547622.1547,-0.010177,0.023654,-0.349970,-0.008702,0.024300,-0.349970,-0.032773,0.196211,0.603325,1.872079,0.642271,-12.354665
1790547622.1687,-0.012566,0.016329,-0.335420,-0.011407,0.018720,-0.335420,0.437100,0.001949,0.693171,0.875551,0.456371,-8.939280
1790547622.1827,-0.023251,-0.000864,-0.330280,-0.019698,0.005011,-0.330280,1.093951,0.840921,0.387208,-1.194160,-0.361589,-6.843476
1790547622.1966,-0.039757,-0.011440,-0.319161,-0.033739,-0.006505,-0.319161,0.831696,0.969620,0.486767,2.791950,2.649991,-9.172147
1790547622.2104,-0.055845,-0.023835,-0.311219,-0.049214,-0.018636,-0.311219,0.906973,1.047325,0.690743,1.143847,1.794851,-9.482637
1790547622.2240,-0.067965,-0.033044,-0.306206,-0.062339,-0.028721,-0.306206,0.767346,0.833636,0.768448,0.300631,3.133331,-9.327392
1790547622.2377,-0.074801,-0.042942,-0.298118,-0.071062,-0.038676,-0.298118,0.726065,0.451181,0.923858,0.070663,2.315371,-10.763406
1790547622.2516,-0.067224,-0.048035,-0.286755,-0.068376,-0.045227,-0.286755,0.276833,-0.588124,0.933571,-0.159304,1.051251,-12.432287
1790547622.2657,-0.056945,-0.048365,-0.273713,-0.060374,-0.047424,-0.273713,-0.069198,-0.817597,0.783018,0.760567,0.567911,-11.384385
1790547622.2797,-0.053529,-0.052472,-0.242794,-0.055583,-0.050958,-0.242794,0.035219,-0.477637,0.853438,3.328542,-2.666748,-11.190329
1790547622.2935,-0.044590,-0.050634,-0.220564,-0.047888,-0.050731,-0.220564,-0.308384,-0.864949,0.899575,2.600310,-0.956469,-10.220049
1790547622.3075,-0.043803,-0.044724,-0.200449,-0.045028,-0.046527,-0.200449,-0.598564,-0.402361,0.749022,4.516709,-1.142369,-8.589979
1790547622.3215,-0.032673,-0.032175,-0.184716,-0.036379,-0.036480,-0.184716,-1.030798,-0.962080,0.581470,2.332014,-0.510309,-12.238231
1790547622.3356,-0.024447,-0.013672,-0.179468,-0.028026,-0.020514,-0.179468,-1.396255,-0.912300,0.506193,4.708349,0.233291,-9.754315
1790547622.3501,-0.015281,0.009644,-0.176629,-0.019104,0.000596,-0.176629,-1.675508,-0.949939,0.273078,4.516709,0.307651,-8.667602
1790547622.3643,-0.001521,0.032434,-0.174137,-0.006796,0.022882,-0.174137,-1.651225,-1.275329,0.202658,3.098574,0.716631,-6.804665
1790547622.3782,-0.015252,0.037835,-0.164917,-0.012715,0.033349,-0.164917,-0.503860,0.901628,-0.042599,2.600310,0.196111,-12.936833
1790547622.3921,-0.003145,0.027353,-0.182255,-0.006016,0.029152,-0.182255,0.849908,-0.580840,-0.578035,-6.100142,5.847470,-18.525644
1790547622.4062,-0.010316,0.027985,-0.219232,-0.009026,0.028335,-0.219232,0.148134,0.447539,-0.556181,3.405198,5.066691,-10.530539
1790547622.4202,-0.011056,0.025462,-0.227836,-0.010447,0.026324,-0.227836,0.203984,0.153716,-0.452979,-0.120976,2.017931,-10.103616
1790547622.4342,-0.000264,0.023107,-0.226281,-0.003319,0.024072,-0.226281,0.125065,-0.586910,-0.523399,-1.884064,1.237151,-11.888930
1790547622.4476,0.009244,0.009531,-0.219641,0.005475,0.013894,-0.219641,0.889975,-0.420573,-0.807508,-2.114032,-0.101329,-8.589979
1790547622.4612,0.018024,0.001291,-0.249552,0.014259,0.005072,-0.249552,0.777059,-0.514062,-0.868215,-0.120976,2.687171,-6.300119
1790547622.4748,0.023144,-0.002469,-0.276745,0.020478,-0.000207,-0.276745,0.414031,-0.210526,-0.965347,-0.465928,3.096151,-8.124245
1790547622.4887,0.030497,-0.009370,-0.298320,0.027491,-0.006621,-0.298320,0.575512,-0.358652,-0.931351,-0.849208,2.724351,-9.405014
1790547622.5026,0.035459,-0.014124,-0.323391,0.033068,-0.011873,-0.323391,0.501449,-0.168031,-0.848789,-1.232488,3.505131,-8.007811
1790547622.5165,0.021113,-0.010576,-0.341002,0.024700,-0.010965,-0.341002,-0.228250,1.239159,-0.694593,-3.187215,3.542311,-17.089630
1790547622.5304,0.016061,0.002700,-0.343005,0.018652,-0.001399,-0.343005,-0.944594,0.703723,-0.473619,-6.828373,2.724351,-14.256413
1790547622.5444,0.011973,0.015147,-0.334790,0.013977,0.010183,-0.334790,-0.933667,0.684297,-0.409270,-5.870174,0.902531,-9.637881
1790547622.5584,0.004801,0.026702,-0.346965,0.007553,0.021746,-0.346965,-0.699337,0.782642,-0.462692,-1.730752,2.203831,-5.407462
1790547622.5724,0.001804,0.034984,-0.334036,0.003529,0.031012,-0.334036,-0.573067,0.772929,-0.559823,-2.765607,0.567911,-2.613056
1790547622.5864,-0.002174,0.039884,-0.342028,-0.000463,0.037223,-0.342028,-0.165115,0.516745,-0.508829,-0.887536,2.017931,-3.816203
1790547622.6007,-0.002085,0.030397,-0.335486,-0.001598,0.032445,-0.335486,0.665358,-0.089112,0.182018,1.488799,3.244871,-17.206063
1790547622.6148,-0.007038,0.026504,-0.323514,-0.005406,0.028286,-0.323514,0.239194,0.184070,0.696814,1.258831,1.832031,-14.256413
1790547622.6289,-0.011711,0.020026,-0.300801,-0.009819,0.022504,-0.300801,0.412817,0.032302,0.931143,2.063719,0.939711,-8.395923
1790547622.6428,-0.011030,0.013166,-0.303968,-0.010667,0.015967,-0.303968,0.423744,0.023803,0.600897,-1.960720,0.530731,-7.580888
1790547622.6567,-0.027609,0.000303,-0.292430,-0.022527,0.005003,-0.292430,0.842623,1.010901,0.752664,0.568927,0.196111,-3.932637
1790547622.6706,-0.046114,-0.015133,-0.278534,-0.039038,-0.009092,-0.278534,1.074524,1.146885,0.861937,1.872079,1.237151,-10.452916
1790547622.6843,-0.057636,-0.026460,-0.266333,-0.052056,-0.021250,-0.266333,0.863264,0.748646,1.097481,-0.005993,2.910251,-10.414105
1790547622.6979,-0.067751,-0.036922,-0.255571,-0.063043,-0.032220,-0.255571,0.711496,0.694010,1.256533,-0.810880,1.720491,-10.879840
1790547622.7117,-0.058987,-0.042300,-0.243555,-0.060204,-0.039276,-0.243555,0.297473,-0.659759,1.278388,-1.500784,1.423051,-12.277042
1790547622.7257,-0.050731,-0.037212,-0.228398,-0.053573,-0.037831,-0.228398,-0.478363,-0.724108,1.006420,0.990535,0.456371,-11.850119
1790547622.7396,-0.050613,-0.039304,-0.205244,-0.051501,-0.038862,-0.205244,-0.108050,-0.262734,0.976066,3.443526,-2.741108,-11.617252
1790547622.7538,-0.045043,-0.037862,-0.178430,-0.046981,-0.038162,-0.178430,-0.365448,-0.733821,1.022204,4.440053,-2.592388,-9.870749
1790547622.7676,-0.043724,-0.027368,-0.159664,-0.044701,-0.030606,-0.159664,-0.914240,-0.426643,0.923858,4.670021,-0.733389,-10.802217
1790547622.7818,-0.037640,-0.009376,-0.144386,-0.039758,-0.015745,-0.144386,-1.403540,-0.741106,0.758735,3.136902,-0.138509,-7.813756
1790547622.7958,-0.027911,0.009719,-0.129070,-0.031465,0.002080,-0.129070,-1.529811,-1.036143,0.718668,3.443526,-0.584669,-8.163056
1790547622.8097,-0.017599,0.029049,-0.118531,-0.021759,0.020958,-0.118531,-1.522526,-1.079852,0.541404,3.328542,-0.175689,-7.736133
1790547622.8236,-0.007577,0.048503,-0.109382,-0.011831,0.040239,-0.109382,-1.515241,-1.057997,0.490410,3.098574,0.158931,-7.697322
1790547622.8377,-0.019073,0.048926,-0.095750,-0.016901,0.046320,-0.095750,-0.196683,0.726792,0.228155,2.561982,-1.253909,-20.427392
1790547622.8522,-0.010675,0.034407,-0.100164,-0.012543,0.037981,-0.100164,1.036886,-0.348938,-0.313352,-4.643678,3.876931,-15.692427
1790547622.8664,-0.016437,0.032959,-0.142127,-0.015269,0.034466,-0.142127,0.373964,0.320054,-0.222292,2.600310,6.144910,-8.939280
1790547622.8805,-0.015130,0.027195,-0.133111,-0.015172,0.029376,-0.133111,0.348467,0.128219,-0.120304,-2.114032,0.530731,-6.765853
1790547622.8944,0.005760,0.018250,-0.132449,-0.000520,0.021588,-0.132449,0.661716,-1.241333,-0.344920,-3.953775,2.166651,-10.569350
1790547622.9081,0.020204,0.001286,-0.137853,0.013987,0.007377,-0.137853,1.175298,-0.833381,-0.887642,-1.692424,0.679451,-10.957462
1790547622.9234,0.027612,-0.005633,-0.172657,0.023524,-0.001730,-0.172657,0.747920,-0.452140,-0.790510,0.760567,4.100011,-4.864105
1790547622.9381,0.035359,-0.013199,-0.192377,0.031809,-0.009758,-0.192377,0.644718,-0.369579,-0.870644,-0.734224,2.984611,-7.270399
1790547622.9525,0.051018,-0.024587,-0.210316,0.045255,-0.020138,-0.210316,0.894831,-0.896516,-0.919209,-1.692424,3.207691,-8.978091
1790547622.9670,0.045636,-0.030061,-0.228283,0.045522,-0.027084,-0.228283,0.489308,0.522816,-0.826935,-1.577440,4.917971,-12.665154
1790547622.9828,0.028657,-0.014073,-0.241773,0.033716,-0.017976,-0.241773,-0.993160,1.167525,-0.576821,-0.619240,3.319231,-15.692427
1790547622.9971,0.027193,-0.001017,-0.246472,0.029150,-0.006105,-0.246472,-0.990731,0.432969,-0.516114,-5.870174,0.344831,-12.160609
1790547623.0108,0.028293,0.005735,-0.236244,0.028550,0.002183,-0.236244,-0.634988,0.380761,-0.449336,-5.371910,-0.770569,-6.532986
1790547623.0248,0.022755,0.020211,-0.246185,0.024493,0.014802,-0.246185,-0.940952,0.730434,-0.545254,-2.727279,2.129471,-5.873196
1790547623.0387,0.018878,0.033650,-0.263371,0.020563,0.027996,-0.263371,-0.979804,0.737719,-0.839076,-4.030431,1.311511,-7.076343
1790547623.0527,0.005946,0.044466,-0.285678,0.010331,0.039525,-0.285678,-0.851105,1.225804,-0.891284,-1.424128,0.605091,-7.813756
1790547623.0667,0.003945,0.046470,-0.305590,0.005860,0.044386,-0.305590,-0.307169,0.386832,-0.716448,-3.110559,-1.439808,-20.310959
1790547623.0806,0.007495,0.038522,-0.309082,0.007005,0.040281,-0.309082,0.457740,-0.323441,-0.001318,1.872079,0.084571,-19.069001
1790547623.0949,-0.000664,0.039460,-0.294417,0.001636,0.039707,-0.294417,-0.081339,0.304270,0.251224,5.168285,1.980751,-12.626343
1790547623.1093,-0.002836,0.031825,-0.288718,-0.001494,0.034190,-0.288718,0.557300,0.289700,0.141951,-1.845736,1.571771,-6.727042
1790547623.1235,-0.009844,0.020063,-0.285133,-0.007339,0.024301,-0.285133,0.820769,0.362549,0.169876,1.373815,1.088431,-6.921098
1790547623.1372,-0.022752,0.006004,-0.281036,-0.018128,0.011493,-0.281036,0.984678,0.803282,0.455199,1.565455,1.051251,-10.336483
1790547623.1508,-0.039498,-0.008108,-0.270341,-0.033087,-0.002228,-0.270341,1.032029,1.059466,0.819442,1.412143,1.720491,-9.793126
1790547623.1645,-0.054017,-0.018074,-0.255682,-0.047738,-0.013320,-0.255682,0.741849,1.044897,0.999135,-1.117504,2.129471,-9.172147
1790547623.1786,-0.061528,-0.022073,-0.234657,-0.057391,-0.019447,-0.234657,0.375178,0.522816,0.960283,-0.849208,2.761531,-7.192776
1790547623.1925,-0.063192,-0.029299,-0.214447,-0.061451,-0.026343,-0.214447,0.570655,0.009234,0.962711,0.683911,3.876931,-12.238231
1790547623.2065,-0.050210,-0.031335,-0.198723,-0.053583,-0.029838,-0.198723,0.046146,-1.072567,1.064699,1.143847,1.237151,-15.304315
1790547623.2205,-0.046182,-0.022530,-0.180033,-0.048402,-0.024722,-0.180033,-0.735762,-0.546844,1.104765,2.561982,0.567911,-10.220049
1790547623.2344,-0.044228,-0.011826,-0.160965,-0.045480,-0.015695,-0.160965,-0.950665,-0.521347,1.085339,3.826806,-0.659029,-8.318301
1790547623.2483,-0.032767,0.003688,-0.144993,-0.036581,-0.002127,-0.144993,-1.238416,-1.127203,0.849796,2.830278,0.084571,-8.551168
1790547623.2622,-0.019985,0.019366,-0.131408,-0.024964,0.012918,-0.131408,-1.283340,-1.269258,0.671317,2.791950,-0.287229,-6.882287
1790547623.2760,-0.004422,0.039663,-0.118807,-0.010584,0.031640,-0.118807,-1.459390,-1.441666,0.637321,2.063719,1.385871,-6.222497
1790547623.2900,-0.011425,0.040703,-0.113306,-0.011173,0.037984,-0.113306,-0.180899,0.337052,0.259723,3.021918,0.270471,-13.635434
1790547623.3038,-0.017813,0.037902,-0.116261,-0.015821,0.037927,-0.116261,0.160275,0.510674,-0.234433,0.453943,1.571771,-14.295224
1790547623.3178,-0.004168,0.041519,-0.123423,-0.007664,0.040442,-0.123423,-0.139618,-0.945082,-0.361918,0.415615,3.467951,-8.706413
1790547623.3318,-0.007489,0.039210,-0.124718,-0.007541,0.039580,-0.124718,0.104425,0.177999,-0.241718,1.987063,0.865351,-10.220049
1790547623.3457,0.000626,0.028368,-0.125937,-0.001824,0.031732,-0.125937,0.715138,-0.439999,-0.347348,-1.194160,0.642271,-8.900469
1790547623.3602,0.014902,0.015345,-0.137217,0.009884,0.020261,-0.137217,0.955538,-0.756890,-0.749229,-1.615768,2.129471,-7.891378
1790547623.3741,0.020686,0.004121,-0.149751,0.017445,0.008963,-0.149751,0.785558,-0.358652,-0.983559,1.067191,1.014071,-7.697322
1790547623.3878,0.026605,-0.000954,-0.165081,0.023857,0.002021,-0.165081,0.432243,-0.355009,-0.965347,0.683911,2.166651,-7.736133
1790547623.4018,0.034580,-0.007118,-0.177991,0.031363,-0.004376,-0.177991,0.432243,-0.430286,-0.960490,-0.312616,1.385871,-8.473546
1790547623.4158,0.046776,-0.016188,-0.191681,0.042152,-0.012645,-0.191681,0.628934,-0.674328,-1.000557,-1.577440,1.683311,-10.841028
1790547623.4297,0.051079,-0.020661,-0.211301,0.048401,-0.018256,-0.211301,0.524518,-0.266377,-0.894927,0.798895,5.215411,-9.016902
1790547623.4437,0.036178,-0.019420,-0.225331,0.039845,-0.019071,-0.225331,-0.129905,1.183309,-0.880357,-0.312616,2.092291,-16.662707
1790547623.4575,0.027367,-0.008623,-0.240393,0.031110,-0.011757,-0.240393,-0.865675,0.975691,-0.741945,-5.985158,0.419191,-14.372847
1790547623.4715,0.022780,0.002671,-0.249237,0.025279,-0.001657,-0.249237,-0.994374,0.684297,-0.591391,-3.608823,-1.216729,-7.348021
1790547623.4854,0.016786,0.012252,-0.253959,0.019334,0.008079,-0.253959,-0.870531,0.584737,-0.234433,-1.117504,-0.807749,-5.756762
1790547623.4992,0.003479,0.031092,-0.258403,0.008236,0.024188,-0.258403,-1.385328,1.151741,-0.208936,-0.657568,0.456371,-3.001168
1790547623.5131,-0.017104,0.048001,-0.265136,-0.009502,0.040857,-0.265136,-1.181352,1.483202,-0.235647,0.760567,1.348691,-5.407462
1790547623.5270,-0.018925,0.046319,-0.267235,-0.016098,0.044681,-0.267235,-0.001206,0.254490,-0.037742,-3.072231,-0.175689,-19.573546
1790547623.5409,-0.019916,0.040930,-0.261867,-0.018771,0.042055,-0.261867,0.352110,-0.091540,0.481911,2.102047,2.315371,-14.993826
1790547623.5548,-0.022893,0.037041,-0.252842,-0.021656,0.038546,-0.252842,0.228267,0.131862,0.672531,-0.465928,1.571771,-11.578441
1790547623.5688,-0.026913,0.031793,-0.247925,-0.025336,0.033818,-0.247925,0.347253,0.113650,0.495266,1.143847,1.051251,-6.494175
1790547623.5828,-0.031171,0.019338,-0.243001,-0.029421,0.023682,-0.243001,0.828053,0.226565,0.453985,0.300631,0.642271,-7.153965
1790547623.5964,-0.042355,0.006140,-0.238557,-0.038475,0.011403,-0.238557,0.932470,0.662442,0.571757,1.412143,1.014071,-8.085434
1790547623.6104,-0.054862,-0.002339,-0.227761,-0.049946,0.001783,-0.227761,0.687213,0.877345,0.638535,-0.389272,2.426911,-7.192776
1790547623.6241,-0.058778,-0.009031,-0.213957,-0.056129,-0.005787,-0.213957,0.537873,0.254490,0.800016,-0.619240,2.798711,-9.055714
1790547623.6382,-0.063919,-0.014796,-0.202506,-0.061582,-0.012093,-0.202506,0.404318,0.261775,0.776947,0.645583,1.943571,-9.133336
1790547623.6520,-0.060700,-0.024219,-0.187090,-0.060964,-0.020581,-0.187090,0.786773,-0.294302,0.774519,-0.005993,3.170511,-7.697322
1790547623.6660,-0.043918,-0.028296,-0.177739,-0.049032,-0.025982,-0.177739,0.100782,-1.212193,0.869222,-1.769080,-1.253909,-13.441378
1790547623.6799,-0.040418,-0.022654,-0.170195,-0.043002,-0.023652,-0.170195,-0.537856,-0.483708,0.678602,3.673494,-0.473129,-12.626343
1790547623.6939,-0.034429,-0.014510,-0.163432,-0.037001,-0.017252,-0.163432,-0.774614,-0.662187,0.623965,2.868606,-1.402628,-9.948371
1790547623.7078,-0.024555,-0.001654,-0.158691,-0.028289,-0.006334,-0.158691,-1.061152,-0.983935,0.389636,2.868606,-0.473129,-7.153965
1790547623.7218,-0.012790,0.012432,-0.155382,-0.017440,0.006803,-0.155382,-1.083006,-1.100492,0.273078,2.446998,0.344831,-6.610609
1790547623.7357,0.001277,0.026445,-0.152112,-0.004338,0.020552,-0.152112,-1.044154,-1.247404,0.241510,2.140375,0.828171,-6.882287
1790547623.7497,-0.002596,0.028482,-0.154849,-0.003119,0.026103,-0.154849,-0.177256,0.283630,-0.177369,1.143847,2.501271,-20.233336
1790547623.7638,-0.006490,0.021891,-0.159633,-0.005479,0.023155,-0.159633,0.490522,0.524030,-0.664240,-2.803935,2.835891,-14.450469
1790547623.7777,-0.001984,0.021884,-0.171785,-0.003032,0.022266,-0.171785,-0.007276,-0.093969,-1.077048,-0.849208,1.832031,-13.014455
1790547623.7918,0.003836,0.022005,-0.180677,0.001776,0.022083,-0.180677,0.109281,-0.243308,-0.681238,-0.465928,1.794851,-4.747672
1790547623.8057,0.010778,0.013105,-0.181552,0.008077,0.015798,-0.181552,0.584011,-0.313728,-0.485761,-1.385800,0.530731,-7.580888
1790547623.8197,0.018080,-0.003903,-0.187323,0.015079,0.002007,-0.187323,1.164371,-0.304015,-0.784440,-1.500784,0.493551,-8.318301
1790547623.8333,0.038202,-0.015454,-0.190876,0.031265,-0.010216,-0.190876,0.981035,-1.150272,-0.948349,-3.263871,3.207691,-7.852567
1790547623.8470,0.047091,-0.020619,-0.204279,0.042343,-0.017498,-0.204279,0.499021,-0.550486,-1.073405,0.185647,3.356411,-8.279490
1790547623.8615,0.050708,-0.026697,-0.217415,0.048199,-0.023937,-0.217415,0.445599,-0.152247,-0.947135,-0.082648,2.203831,-9.249770
1790547623.8755,0.054418,-0.036661,-0.227881,0.052552,-0.032844,-0.227881,0.789201,-0.148605,-0.806294,-1.040848,3.765391,-11.966553
1790547623.8895,0.034663,-0.037334,-0.242017,0.040030,-0.035987,-0.242017,-0.063127,1.519626,-0.772298,-0.772552,-0.212869,-17.244875
1790547623.9035,0.032751,-0.027171,-0.253907,0.034935,-0.029816,-0.253907,-0.786756,0.425684,-0.709163,-5.563550,0.642271,-14.450469
1790547623.9178,0.028258,-0.013971,-0.270227,0.030261,-0.018725,-0.270227,-1.134000,0.696438,-0.573179,-3.838791,-1.514168,-6.144874
1790547623.9317,0.024383,-0.003114,-0.283216,0.026147,-0.007797,-0.283216,-1.036869,0.621161,-0.471191,-3.110559,-1.923148,-5.717951
1790547623.9455,0.009969,0.011548,-0.289670,0.014822,0.005744,-0.289670,-1.087863,1.206378,-0.449336,-0.925864,0.902531,-7.037532
1790547623.9595,-0.002545,0.025108,-0.293758,0.002665,0.019299,-0.293758,-1.046582,1.222161,-0.485761,-3.685479,0.196111,-9.288581
1790547623.9735,-0.001985,0.029574,-0.288130,-0.000590,0.026492,-0.288130,-0.242820,0.079654,-0.306068,-1.117504,3.467951,-11.539630
1790547623.9874,0.004748,0.023938,-0.299999,0.003147,0.024704,-0.299999,0.220982,-0.515276,0.318001,-0.964192,-1.662888,-15.110259
1790547624.0012,-0.000018,0.021705,-0.306367,0.000931,0.022605,-0.306367,0.086213,0.114864,0.571757,2.600310,0.753811,-11.927742
1790547624.0152,0.004475,0.019563,-0.290806,0.003412,0.020476,-0.290806,0.061930,-0.254235,0.597254,-1.999048,0.084571,-6.959909
1790547624.0292,-0.000957,0.008430,-0.288575,0.000354,0.012043,-0.288575,0.740635,0.379547,0.376280,-0.542584,0.530731,-7.774944
1790547624.0430,-0.016407,-0.003507,-0.290177,-0.011379,0.001158,-0.290177,0.875405,0.912555,0.511050,2.255358,1.608951,-8.822846
1790547624.0566,-0.028602,-0.015551,-0.275742,-0.023435,-0.010538,-0.275742,0.930041,0.781428,0.776947,0.645583,2.575631,-10.724595
1790547624.0703,-0.039808,-0.019307,-0.249010,-0.034896,-0.016676,-0.249010,0.389748,0.730434,0.888648,0.147319,3.207691,-8.628791
1790547624.0839,-0.041114,-0.023150,-0.228206,-0.039249,-0.021208,-0.228206,0.273190,0.040801,1.029489,-0.772552,1.980751,-10.802217
1790547624.0980,-0.045249,-0.026397,-0.212088,-0.043449,-0.024840,-0.212088,0.217340,0.164644,0.967567,0.607255,1.534591,-8.589979
1790547624.1123,-0.044589,-0.030770,-0.201931,-0.044247,-0.028991,-0.201931,0.248908,-0.134035,0.776947,0.492271,1.199971,-12.471098
1790547624.1264,-0.032252,-0.032133,-0.191156,-0.035850,-0.031190,-0.191156,0.069215,-0.963294,0.628822,0.683911,1.832031,-14.334035
1790547624.1404,-0.020241,-0.021412,-0.188602,-0.024924,-0.024345,-0.188602,-0.818323,-1.059211,0.589969,2.906934,1.199971,-13.092077
1790547624.1544,-0.018222,-0.009799,-0.205142,-0.020232,-0.014163,-0.205142,-0.985875,-0.524989,0.555973,4.823333,-0.993649,-8.163056
1790547624.1684,-0.005014,0.005454,-0.203767,-0.009579,-0.000431,-0.203767,-1.106075,-1.135702,0.298575,1.642111,1.051251,-6.959909
1790547624.1824,0.008144,0.017025,-0.202616,0.002827,0.011788,-0.202616,-0.834107,-1.139345,0.251224,1.603783,1.014071,-6.455364
1790547624.1963,0.020082,0.030690,-0.200427,0.014906,0.025019,-0.200427,-0.951879,-1.121133,0.053318,4.631693,2.687171,-11.267951
1790547624.2103,0.012185,0.028191,-0.212206,0.013001,0.027239,-0.212206,0.032790,0.530101,-0.541611,4.401726,-1.142369,-19.185434
1790547624.2243,0.008213,0.026977,-0.223340,0.009650,0.027056,-0.223340,0.128708,0.534957,-1.055193,-1.079176,2.873071,-11.190329
1790547624.2382,0.019404,0.030627,-0.230683,0.016478,0.029556,-0.230683,-0.302313,-0.510419,-1.137755,-1.500784,1.051251,-8.395923
1790547624.2522,0.018120,0.026222,-0.242807,0.017627,0.027222,-0.242807,0.373964,0.144003,-0.727375,0.760567,1.832031,-6.144874
1790547624.2661,0.020073,0.012804,-0.249767,0.019339,0.017129,-0.249767,0.866906,0.054157,-0.766227,-0.849208,0.121751,-7.309210
1790547624.2801,0.032574,0.003032,-0.258414,0.028604,0.007261,-0.258414,0.749134,-0.682827,-1.086761,-1.079176,2.761531,-10.103616
1790547624.2936,0.039723,-0.002399,-0.275355,0.036388,0.000499,-0.275355,0.432243,-0.403575,-1.253098,0.607255,2.501271,-9.637881
1790547624.3073,0.042427,-0.004667,-0.291229,0.040615,-0.003117,-0.291229,0.234338,-0.068472,-1.238529,0.415615,2.873071,-8.551168
1790547624.3214,0.047866,-0.007403,-0.300115,0.045691,-0.006117,-0.300115,0.168774,-0.090326,-1.155967,-2.612295,1.646131,-9.715504
1790547624.3353,0.052226,-0.014827,-0.312841,0.050266,-0.012214,-0.312841,0.499021,-0.141320,-1.035767,-0.964192,1.608951,-10.375294
1790547624.3496,0.046556,-0.022674,-0.318257,0.047669,-0.019536,-0.318257,0.619221,0.515531,-0.608389,-1.155832,3.467951,-11.617252
1790547624.3641,0.028864,-0.013684,-0.322664,0.034505,-0.015440,-0.322664,-0.636202,1.488059,-0.568322,-5.486894,2.278191,-15.692427
1790547624.3782,0.029257,-0.000382,-0.326325,0.030831,-0.004899,-0.326325,-1.030798,0.286058,-0.479690,-5.640206,0.047391,-12.121798
1790547624.3922,0.028746,0.011984,-0.330226,0.029372,0.006919,-0.330226,-1.005301,0.562882,-0.488189,-4.183743,-0.473129,-3.699769
1790547624.4062,0.016608,0.030861,-0.316560,0.020437,0.023679,-0.316560,-1.153426,1.006044,-0.276928,-0.427600,1.534591,-2.807112
1790547624.4202,0.008013,0.043212,-0.307556,0.011740,0.037352,-0.307556,-0.705408,0.715864,-0.247789,-0.235960,1.608951,-3.078790
1790547624.4342,0.014157,0.027086,-0.324880,0.013432,0.030165,-0.324880,1.001676,-0.347724,0.140737,-3.762135,-0.956469,-17.089630
1790547624.4482,0.014206,0.020040,-0.317595,0.013974,0.023077,-0.317595,0.454098,-0.157104,0.936000,-0.427600,1.348691,-16.119350
1790547624.4619,0.007206,0.017120,-0.314269,0.009236,0.018907,-0.314269,0.126279,0.321268,1.041630,0.300631,0.419191,-12.742777
1790547624.4758,0.004975,0.006140,-0.314581,0.006253,0.009970,-0.314581,0.666573,0.089367,0.806087,-0.734224,-0.250049,-7.464455
1790547624.4898,-0.007702,-0.007469,-0.324894,-0.003515,-0.002237,-0.324894,0.838981,0.691581,0.647034,0.760567,-0.212869,-3.466902
1790547624.5037,-0.026486,-0.023997,-0.322524,-0.019595,-0.017469,-0.322524,1.136445,1.163883,0.807301,1.718767,0.716631,-9.754315
1790547624.5173,-0.039924,-0.035577,-0.298962,-0.033825,-0.030145,-0.298962,0.896045,0.917412,1.068341,-0.312616,2.501271,-10.336483
1790547624.5308,-0.051332,-0.044377,-0.273611,-0.046080,-0.040107,-0.273611,0.678714,0.827565,1.075626,-1.040848,2.464091,-10.957462
1790547624.5445,-0.054039,-0.052317,-0.250754,-0.051651,-0.048654,-0.250754,0.575512,0.176785,1.081697,-0.849208,1.980751,-10.957462
1790547624.5585,-0.045340,-0.054152,-0.239770,-0.047233,-0.052503,-0.239770,0.035219,-0.674328,0.936000,-0.197632,0.456371,-12.898021
1790547624.5724,-0.039292,-0.051472,-0.241060,-0.041674,-0.051781,-0.241060,-0.322953,-0.595409,0.715026,2.255358,-0.510309,-12.082986
1790547624.5864,-0.037243,-0.052361,-0.252487,-0.038572,-0.052187,-0.252487,-0.162687,-0.407217,0.681030,4.363398,-2.703928,-11.578441
1790547624.6004,-0.027794,-0.043209,-0.247212,-0.031028,-0.045902,-0.247212,-0.707836,-0.959652,0.638535,3.060246,0.456371,-7.309210
1790547624.6147,-0.024855,-0.028572,-0.240919,-0.026707,-0.033771,-0.240919,-1.153426,-0.560199,0.602111,4.938317,-0.770569,-8.512357
1790547624.6288,-0.014024,-0.009422,-0.238086,-0.017829,-0.016727,-0.238086,-1.481245,-1.028858,0.528048,2.025391,-0.287229,-5.989630
1790547624.6428,0.003159,0.009225,-0.233957,-0.003138,0.001439,-0.233957,-1.432679,-1.484161,0.457628,2.332014,-0.026969,-7.852567
1790547624.6568,0.015890,0.026355,-0.224658,0.010182,0.018881,-0.224658,-1.319764,-1.257117,0.498909,3.558510,-0.026969,-8.201867
1790547624.6708,0.013679,0.031306,-0.226356,0.012630,0.027579,-0.226356,-0.424941,0.082082,0.080030,1.258831,0.828171,-13.130889
1790547624.6846,0.006108,0.023451,-0.234727,0.008065,0.024689,-0.234727,0.604651,0.601735,-0.392272,0.645583,3.951291,-16.391028
1790547624.6985,0.016743,0.014017,-0.229167,0.014139,0.017219,-0.229167,0.736993,-0.540773,-0.660597,-1.769080,2.278191,-8.434735
1790547624.7125,0.016019,0.018412,-0.220209,0.015455,0.018054,-0.220209,-0.091052,0.124577,-0.293926,-0.197632,2.724351,-4.437182
1790547624.7264,0.021902,0.008003,-0.204070,0.019968,0.011019,-0.204070,0.769775,-0.169245,-0.229577,-3.915447,1.980751,-9.909560
1790547624.7404,0.040061,-0.008457,-0.193532,0.034033,-0.002615,-0.193532,1.206866,-0.935369,-0.756514,-4.835318,1.980751,-9.327392
1790547624.7542,0.052998,-0.021108,-0.200719,0.047308,-0.015560,-0.200719,1.005318,-0.892874,-0.775941,0.377287,2.873071,-8.745224
1790547624.7679,0.055325,-0.023320,-0.209041,0.052920,-0.020992,-0.209041,0.336326,-0.166817,-0.790510,0.760567,3.170511,-6.144874
1790547624.7820,0.059430,-0.030694,-0.220188,0.057477,-0.027784,-0.220188,0.468667,-0.194742,-0.786868,-0.580912,0.976891,-10.569350
1790547624.7959,0.070118,-0.037990,-0.226367,0.066326,-0.034928,-0.226367,0.568227,-0.618478,-0.784440,-1.730752,2.538451,-9.909560
1790547624.8099,0.055968,-0.045048,-0.234086,0.059075,-0.042012,-0.234086,0.516019,1.029113,-0.482118,0.223975,2.649991,-14.528091
1790547624.8239,0.035581,-0.037007,-0.239911,0.042629,-0.038508,-0.239911,-0.523287,1.614329,-0.456621,-3.455511,4.285911,-17.555364
1790547624.8379,0.029895,-0.020206,-0.251769,0.033715,-0.025697,-0.251769,-1.239631,0.730434,-0.547682,-6.675061,1.199971,-13.635434
1790547624.8521,0.025365,-0.006489,-0.273955,0.027870,-0.012251,-0.273955,-1.098790,0.780214,-0.578035,-4.222071,-0.584669,-4.902916
1790547624.8667,0.016787,0.008342,-0.281675,0.020112,0.002164,-0.281675,-1.079364,0.896771,-0.442052,-1.807408,0.196111,-4.010259
1790547624.8813,0.000241,0.024842,-0.272530,0.006202,0.018039,-0.272530,-0.957950,1.224590,-0.392272,-0.005993,2.835891,-5.679140
1790547624.8955,-0.001243,0.023231,-0.287483,0.000991,0.021673,-0.287483,0.015792,0.272702,-0.307282,-3.685479,0.270471,-20.155714
1790547624.9095,0.007259,0.019611,-0.288119,0.005379,0.020229,-0.288119,0.188201,-0.619692,0.293719,-1.385800,1.199971,-18.448022
1790547624.9236,0.000685,0.019807,-0.287497,0.002093,0.019934,-0.287497,-0.076482,0.299414,0.662818,1.258831,0.939711,-12.160609
1790547624.9375,0.004382,0.013140,-0.278589,0.003696,0.015178,-0.278589,0.440742,-0.187457,0.496480,-2.190688,0.790991,-7.930189
1790547624.9516,-0.005672,0.000126,-0.284065,-0.002862,0.004642,-0.284065,0.838981,0.629660,0.422418,0.223975,0.084571,-4.087881
1790547624.9656,-0.018104,-0.014117,-0.275123,-0.013531,-0.008489,-0.275123,1.055098,0.738933,0.558402,1.412143,1.906391,-8.939280
1790547624.9792,-0.034626,-0.022787,-0.257719,-0.028298,-0.018498,-0.257719,0.702997,1.080107,0.820656,0.837223,2.278191,-8.434735
1790547624.9928,-0.046893,-0.028167,-0.232800,-0.041314,-0.025266,-0.232800,0.484451,0.820280,0.963925,0.032335,2.687171,-8.201867
1790547625.0079,-0.048576,-0.034581,-0.211007,-0.046397,-0.031787,-0.211007,0.437100,0.037159,0.980923,-0.159304,2.092291,-9.249770
1790547625.0225,-0.048451,-0.036858,-0.187820,-0.047835,-0.035336,-0.187820,0.218554,-0.086684,0.847367,0.223975,2.835891,-9.521448
1790547625.0368,-0.034973,-0.039741,-0.182801,-0.038832,-0.038420,-0.182801,0.089855,-0.965723,0.821870,-1.002520,0.121751,-12.626343
1790547625.0515,-0.032192,-0.034823,-0.186223,-0.034184,-0.035902,-0.186223,-0.474721,-0.454569,0.762377,3.558510,-0.621849,-9.948371
1790547625.0666,-0.026459,-0.025675,-0.188702,-0.028776,-0.028743,-0.188702,-0.774614,-0.616050,0.803658,2.715294,-1.142369,-9.676693
1790547625.0804,-0.017491,-0.011618,-0.184826,-0.020877,-0.016755,-0.184826,-1.089077,-0.889232,0.593612,2.523654,0.419191,-8.706413
1790547625.0942,-0.007690,0.005776,-0.181993,-0.011646,-0.000983,-0.181993,-1.325835,-0.992434,0.394492,3.328542,0.567911,-8.706413
1790547625.1087,0.005207,0.025307,-0.176267,0.000151,0.017420,-0.176267,-1.379257,-1.207337,0.259723,3.941790,0.939711,-7.930189
1790547625.1228,0.014421,0.041542,-0.171840,0.010140,0.034305,-0.171840,-1.091505,-0.855236,0.076387,2.370342,2.352551,-7.774944
1790547625.1368,-0.001144,0.027791,-0.180193,0.002241,0.029745,-0.180193,0.875405,1.151741,-0.252645,0.798895,0.047391,-16.313406
1790547625.1508,0.010391,0.020908,-0.187768,0.007946,0.023559,-0.187768,0.492950,-0.517704,-1.061264,-3.570495,2.501271,-15.459560
1790547625.1649,0.009654,0.022431,-0.190364,0.009142,0.022769,-0.190364,0.117780,-0.073328,-0.941064,3.251886,3.542311,-4.980539
1790547625.1790,0.007387,0.018699,-0.197765,0.007914,0.019920,-0.197765,0.292617,0.093009,-0.457835,1.603783,1.385871,-6.261308
1790547625.1929,0.015833,0.008789,-0.205414,0.013457,0.012128,-0.205414,0.675072,-0.344082,-0.769870,-2.803935,1.199971,-11.423196
1790547625.2065,0.031057,-0.004096,-0.214408,0.025777,0.000771,-0.214408,1.000462,-0.851593,-0.992058,-2.037376,2.166651,-8.395923
1790547625.2201,0.037300,-0.011003,-0.225895,0.033843,-0.007471,-0.225895,0.610722,-0.418144,-1.049123,0.990535,2.464091,-6.688231
1790547625.2338,0.044556,-0.014369,-0.238939,0.041342,-0.012300,-0.238939,0.287760,-0.358652,-1.068549,-0.695896,1.980751,-7.580888
1790547625.2477,0.049233,-0.018819,-0.253088,0.046866,-0.016863,-0.253088,0.321756,-0.185029,-1.084333,-0.504256,1.832031,-8.861658
1790547625.2617,0.050670,-0.023493,-0.265437,0.049529,-0.021504,-0.265437,0.369108,0.051729,-0.927708,-1.002520,2.426911,-9.521448
1790547625.2755,0.037978,-0.019642,-0.280754,0.041443,-0.020201,-0.280754,-0.303527,1.117745,-0.911925,-2.880591,3.021791,-19.418301
1790547625.2896,0.029628,-0.006440,-0.296295,0.033172,-0.010568,-0.296295,-0.974948,0.911341,-0.709163,-5.486894,1.497411,-13.402567
1790547625.3035,0.024182,0.006723,-0.312573,0.026879,0.001535,-0.312573,-1.090291,0.740147,-0.574393,-3.723807,-0.621849,-7.774944
1790547625.3175,0.014892,0.016597,-0.323839,0.018488,0.012078,-0.323839,-0.756402,0.861561,-0.516114,-0.964192,0.493551,-5.252217
1790547625.3315,-0.003486,0.027490,-0.325994,0.003106,0.022867,-0.325994,-0.653200,1.552408,-0.558609,-1.079176,1.943571,-4.941727
1790547625.3456,0.007134,0.020155,-0.331757,0.005926,0.020969,-0.331757,0.543944,-0.534702,-0.561037,-2.420655,2.241011,-10.763406
1790547625.3605,0.004302,0.019958,-0.319410,0.004789,0.020261,-0.319410,0.092283,0.084510,0.365353,0.913879,3.356411,-10.724595
1790547625.3748,0.001774,0.015858,-0.312922,0.002679,0.017179,-0.312922,0.233124,0.082082,0.801230,-0.619240,0.902531,-10.724595
1790547625.3889,-0.002882,0.004132,-0.312852,-0.001214,0.008046,-0.312852,0.632577,0.057799,0.938428,1.642111,-1.253909,-7.503266
1790547625.4030,-0.017977,-0.010540,-0.302549,-0.012948,-0.004965,-0.302549,1.079381,0.888272,0.594826,1.833751,1.906391,-8.784035
1790547625.4170,-0.037668,-0.023615,-0.293140,-0.030252,-0.018020,-0.293140,0.908187,1.186951,0.763592,2.485326,1.162791,-9.560259
1790547625.4309,-0.053351,-0.034514,-0.278394,-0.046421,-0.029566,-0.278394,0.834124,0.989046,0.836440,1.297159,2.501271,-9.443825
1790547625.4446,-0.061870,-0.043541,-0.263540,-0.057235,-0.039348,-0.263540,0.658074,0.576238,1.017347,-0.274288,1.980751,-9.948371
1790547625.4582,-0.066110,-0.050744,-0.242164,-0.063448,-0.047325,-0.242164,0.586439,0.208353,1.120549,0.492271,2.947431,-8.978091
1790547625.4721,-0.055223,-0.052982,-0.227830,-0.057691,-0.051285,-0.227830,0.065572,-0.845522,1.104765,-0.235960,0.865351,-11.694875
1790547625.4860,-0.051016,-0.052616,-0.214802,-0.053018,-0.052217,-0.214802,-0.163901,-0.501920,0.995493,2.830278,-0.361589,-12.548721
1790547625.4998,-0.048363,-0.055512,-0.205914,-0.049759,-0.054523,-0.205914,-0.025488,-0.409645,0.997921,2.906934,-2.332128,-11.229140
1790547625.5138,-0.041405,-0.052574,-0.192425,-0.043912,-0.053158,-0.192425,-0.332666,-0.752034,0.934786,2.715294,-0.212869,-8.357112
1790547625.5278,-0.033550,-0.043448,-0.180435,-0.036658,-0.046361,-0.180435,-0.772186,-0.788458,0.836440,2.906934,-0.324409,-10.569350
1790547625.5420,-0.025062,-0.027546,-0.168836,-0.028541,-0.033190,-0.168836,-1.262699,-0.888017,0.751450,3.711822,-0.844929,-9.443825
1790547625.5564,-0.012707,-0.006619,-0.161028,-0.017457,-0.014590,-0.161028,-1.517669,-1.089565,0.464913,2.676966,0.530731,-8.900469
1790547625.5706,0.000140,0.015108,-0.154517,-0.005139,0.006198,-0.154517,-1.608730,-1.202480,0.310717,3.558510,0.307651,-8.240679
1790547625.5847,0.014166,0.037504,-0.148916,0.008374,0.028112,-0.148916,-1.637869,-1.231620,0.243939,1.833751,0.642271,-6.222497
1790547625.5990,-0.009914,0.028775,-0.151842,-0.004428,0.028576,-0.151842,0.535445,1.637398,-0.048669,2.561982,0.902531,-17.128441
1790547625.6133,0.011868,0.013535,-0.155758,0.006979,0.018047,-0.155758,1.073310,-1.204909,-0.907068,-5.410238,2.910251,-16.662707
1790547625.6277,0.010575,0.011953,-0.162545,0.009496,0.013781,-0.162545,0.134778,0.375904,-0.688522,-2.535639,1.757671,-8.240679
1790547625.6419,0.015499,0.006757,-0.165836,0.013698,0.008865,-0.165836,0.380035,-0.149819,-0.449336,-1.999048,1.608951,-8.667602
1790547625.6558,0.029567,-0.002850,-0.171181,0.024806,0.000665,-0.171181,0.692069,-0.749605,-0.718876,-3.033903,1.683311,-10.103616
1790547625.6695,0.044144,-0.016830,-0.179316,0.038343,-0.011582,-0.179316,1.072096,-0.744749,-0.893712,-3.072231,2.017931,-7.658511
1790547625.6834,0.053096,-0.023739,-0.191659,0.048670,-0.020092,-0.191659,0.710282,-0.498278,-0.972632,-0.542584,3.505131,-5.679140
1790547625.6978,0.058381,-0.026129,-0.204415,0.055467,-0.024318,-0.204415,0.333898,-0.240880,-0.968989,-0.427600,3.096151,-5.795574
1790547625.7118,0.061475,-0.030601,-0.218425,0.059673,-0.028716,-0.218425,0.378821,-0.023548,-0.951991,-1.845736,2.873071,-9.172147
1790547625.7257,0.045188,-0.033090,-0.233126,0.049533,-0.031778,-0.233126,0.145706,1.286511,-0.945920,-0.465928,2.241011,-15.343126
1790547625.7397,0.033726,-0.020605,-0.249418,0.038468,-0.023957,-0.249418,-0.882673,1.052182,-0.786868,-4.796990,3.765391,-19.185434
1790547625.7541,0.028571,-0.007597,-0.269193,0.031540,-0.012505,-0.269193,-1.033226,0.626018,-0.491831,-3.647151,-0.659029,-9.754315
1790547625.7683,0.022033,0.004070,-0.287222,0.024885,-0.000903,-0.287222,-0.998016,0.757145,-0.406841,-2.880591,-0.993649,-6.649420
1790547625.7828,0.008404,0.020188,-0.280364,0.013348,0.013861,-0.280364,-0.942166,1.342362,-0.562252,-1.769080,1.423051,-2.613056
1790547625.7969,-0.000682,0.028159,-0.296751,0.003527,0.023870,-0.296751,-0.525715,1.040040,-0.886428,-2.765607,1.720491,-6.882287
1790547625.8110,0.007898,0.023531,-0.306946,0.006587,0.023632,-0.306946,0.333898,-0.372007,-0.648456,-2.650623,2.203831,-11.966553
1790547625.8253,0.007388,0.023988,-0.300519,0.007148,0.023882,-0.300519,0.013364,0.063870,0.213585,-1.424128,3.170511,-12.626343
1790547625.8392,0.003581,0.019558,-0.294425,0.004651,0.020855,-0.294425,0.256192,0.015304,0.744165,2.906934,0.902531,-12.936833
1790547625.8531,-0.004507,0.007211,-0.284920,-0.001760,0.011305,-0.284920,0.821983,0.249634,0.880149,3.060246,0.530731,-8.978091
1790547625.8675,-0.013059,-0.005304,-0.267128,-0.009669,-0.000321,-0.267128,0.993177,0.453610,0.427274,0.683911,1.534591,-4.126693
1790547625.8821,-0.031827,-0.023291,-0.256762,-0.025180,-0.016400,-0.256762,1.237219,1.139600,0.664032,1.527127,1.497411,-9.599070
1790547625.8964,-0.051770,-0.037773,-0.243510,-0.043793,-0.031361,-0.243510,1.006532,1.304723,0.957854,0.338959,1.608951,-9.676693
1790547625.9102,-0.066665,-0.050782,-0.227859,-0.059804,-0.044956,-0.227859,0.930041,1.021828,1.114479,-0.235960,2.352551,-12.315854
1790547625.9240,-0.060879,-0.059480,-0.217246,-0.060556,-0.055123,-0.217246,0.519661,-0.424215,1.210396,-1.462456,0.753811,-12.820399
1790547625.9380,-0.054963,-0.055678,-0.202011,-0.056641,-0.055511,-0.202011,-0.336309,-0.522561,1.010062,0.798895,1.162791,-11.539630
1790547625.9519,-0.049376,-0.057971,-0.205085,-0.051556,-0.057233,-0.205085,-0.115335,-0.540773,0.994279,1.527127,-3.001368,-11.306763
1790547625.9660,-0.045154,-0.064122,-0.198845,-0.047074,-0.062056,-0.198845,0.193057,-0.558985,1.031917,4.133430,-2.927008,-12.044175
1790547625.9799,-0.039388,-0.057891,-0.184519,-0.041694,-0.059140,-0.184519,-0.573067,-0.702254,0.973638,3.711822,-0.398769,-9.366203
1790547625.9939,-0.028980,-0.046117,-0.174263,-0.032794,-0.050024,-0.174263,-1.017443,-0.969365,0.909289,2.255358,-1.068009,-8.939280
1790547626.0078,-0.018620,-0.028335,-0.162441,-0.022872,-0.034841,-0.162441,-1.426608,-1.020359,0.880149,2.983590,-0.770569,-9.482637
1790547626.0218,-0.004372,-0.004226,-0.150298,-0.009922,-0.013410,-0.150298,-1.796922,-1.336036,0.673745,3.213558,0.270471,-8.085434
1790547626.0357,0.007355,0.019246,-0.138142,0.002172,0.009449,-0.138142,-1.821205,-1.185482,0.589969,3.021918,-0.510309,-7.192776
1790547626.0496,0.017583,0.038501,-0.130994,0.012960,0.029786,-0.130994,-1.433893,-1.028858,0.441844,2.791950,0.790991,-8.395923
1790547626.0635,-0.002807,0.027590,-0.136185,0.001923,0.028249,-0.136185,0.780702,1.280440,0.020537,5.781533,2.501271,-15.187882
1790547626.0774,0.025211,0.026926,-0.123496,0.018224,0.027323,-0.123496,0.248908,-1.591006,-0.718876,-7.863229,6.962870,-10.608161
1790547626.0914,0.020668,0.030261,-0.130452,0.019935,0.029380,-0.130452,-0.027917,0.231422,-0.208936,1.872079,4.583351,-7.503266
1790547626.1053,0.021480,0.022154,-0.130694,0.021016,0.024321,-0.130694,0.524518,0.216852,-0.234433,-4.643678,0.828171,-10.918651
1790547626.1193,0.042903,0.010484,-0.132457,0.036337,0.014635,-0.132457,0.855979,-1.366389,-0.412912,-2.842263,2.389731,-11.733686
1790547626.1334,0.048947,-0.000934,-0.140876,0.045164,0.003737,-0.140876,0.847480,-0.364722,-0.678809,0.147319,2.129471,-8.357112
1790547626.1470,0.057746,-0.005861,-0.149028,0.053972,-0.002982,-0.149028,0.535445,-0.579625,-0.772298,0.108991,3.021791,-5.795574
1790547626.1611,0.060678,-0.012609,-0.161103,0.058666,-0.009721,-0.161103,0.522090,-0.058758,-0.833005,-0.772552,1.980751,-6.843476
1790547626.1751,0.065869,-0.019255,-0.174352,0.063708,-0.016394,-0.174352,0.525732,-0.160746,-0.846361,-1.960720,2.501271,-8.318301
1790547626.1891,0.049127,-0.021602,-0.186425,0.053502,-0.020040,-0.186425,0.126279,1.270727,-0.779583,0.223975,2.315371,-16.546273
1790547626.2033,0.032543,-0.007763,-0.202552,0.038831,-0.011446,-0.202552,-0.951879,1.446778,-0.653312,-6.100142,4.360271,-18.059910
1790547626.2179,0.028406,0.004772,-0.219052,0.031534,-0.000094,-0.219052,-0.920311,0.747432,-0.514900,-7.786573,0.344831,-8.628791
1790547626.2319,0.021872,0.018250,-0.232189,0.024771,0.012747,-0.232189,-1.033226,0.868846,-0.511258,-3.187215,0.307651,-5.252217
1790547626.2460,0.015519,0.033618,-0.237771,0.018295,0.027356,-0.237771,-1.039297,0.799640,-0.575607,-1.730752,1.125611,-3.816203
1790547626.2601,0.004569,0.045758,-0.245601,0.008687,0.040237,-0.245601,-0.786756,1.071608,-0.675167,-1.999048,2.389731,-7.309210
1790547626.2742,0.008298,0.045921,-0.261710,0.008415,0.044216,-0.261710,-0.094695,-0.036904,-0.386201,-3.992103,1.014071,-15.304315
1790547626.2882,0.016683,0.043312,-0.269298,0.014203,0.043583,-0.269298,0.097140,-0.549272,0.046034,-2.114032,0.939711,-16.817952
1790547626.3022,0.013744,0.045256,-0.265655,0.013882,0.044754,-0.265655,-0.182113,0.060228,0.566901,0.798895,1.571771,-12.975644
1790547626.3165,0.018792,0.039941,-0.269664,0.017319,0.041385,-0.269664,0.219768,-0.338011,0.518335,-1.347472,-0.398769,-6.144874
1790547626.3306,0.006027,0.030212,-0.268323,0.009415,0.033564,-0.268323,0.666573,0.792355,0.413919,0.338959,0.493551,-3.622147
1790547626.3445,-0.006917,0.015183,-0.266428,-0.002018,0.020697,-0.266428,1.047813,0.839707,0.474626,0.453943,1.237151,-9.948371
1790547626.3582,-0.023627,0.003898,-0.255864,-0.017144,0.008938,-0.255864,0.831696,1.059466,0.762377,1.258831,1.943571,-10.491728
1790547626.3721,-0.038919,-0.002479,-0.236965,-0.032386,0.000946,-0.236965,0.509948,0.950194,0.883792,0.913879,2.538451,-9.327392
1790547626.3865,-0.042502,-0.010201,-0.218658,-0.039468,-0.006857,-0.218658,0.528160,0.136718,1.006420,-0.044320,1.980751,-9.521448
1790547626.4005,-0.042110,-0.013417,-0.192660,-0.041317,-0.011449,-0.192660,0.302330,-0.115823,0.944499,-0.197632,2.464091,-7.503266
1790547626.4145,-0.030652,-0.014576,-0.181398,-0.033852,-0.013638,-0.181398,0.007293,-0.898945,0.946927,-0.695896,1.237151,-13.363756
1790547626.4286,-0.025386,-0.007373,-0.164868,-0.027926,-0.009252,-0.164868,-0.583994,-0.670686,0.872864,3.750150,0.790991,-11.462007
1790547626.4428,-0.020682,0.000106,-0.152196,-0.022855,-0.002702,-0.152196,-0.677483,-0.664615,0.902004,3.941790,-0.733389,-10.530539
1790547626.4569,-0.016892,0.010032,-0.140247,-0.018681,0.006212,-0.140247,-0.854748,-0.614835,0.676173,3.903462,-0.659029,-8.822846
1790547626.4708,-0.003580,0.025143,-0.130424,-0.008110,0.019464,-0.130424,-1.125501,-1.196410,0.406634,2.332014,0.976891,-8.279490
1790547626.4849,0.007110,0.041285,-0.115318,0.002544,0.034739,-0.115318,-1.192279,-1.130846,0.269436,4.325070,0.828171,-7.503266
1790547626.4991,0.006002,0.042169,-0.116118,0.004965,0.039940,-0.116118,-0.191826,0.014090,0.103098,1.143847,-0.398769,-15.226693
1790547626.5131,0.001761,0.033701,-0.117994,0.002722,0.035573,-0.117994,0.705425,0.613876,-0.568322,-4.030431,4.174371,-11.345574
1790547626.5271,0.015543,0.024700,-0.128375,0.011696,0.027961,-0.128375,0.647146,-0.633048,-1.012698,-4.145415,2.315371,-12.665154
1790547626.5410,0.013173,0.021487,-0.134153,0.012730,0.023429,-0.134153,0.279261,0.022589,-0.721304,4.440053,2.426911,-8.745224
1790547626.5551,0.018779,0.017575,-0.140669,0.016964,0.019331,-0.140669,0.242837,-0.314942,-0.457835,-0.274288,1.088431,-9.366203
1790547626.5691,0.034989,0.006003,-0.150330,0.029582,0.010002,-0.150330,0.780702,-0.891660,-0.818436,-3.148887,1.088431,-11.190329
1790547626.5831,0.046827,-0.005588,-0.153607,0.041653,-0.000911,-0.153607,0.994391,-0.721680,-0.956848,-0.120976,3.058971,-5.989630
1790547626.5968,0.055264,-0.011408,-0.162670,0.051181,-0.008259,-0.162670,0.529374,-0.487351,-1.147468,-0.044320,3.058971,-7.619700
1790547626.6104,0.059697,-0.015048,-0.172116,0.057142,-0.013011,-0.172116,0.276833,-0.262734,-0.949563,0.492271,2.203831,-9.715504
1790547626.6244,0.066175,-0.024200,-0.185509,0.063465,-0.020844,-0.185509,0.608294,-0.283375,-0.865787,-1.845736,1.274331,-10.336483
1790547626.6392,0.057405,-0.033090,-0.196330,0.059223,-0.029416,-0.196330,0.568227,0.675798,-0.684880,-0.657568,2.055111,-15.381938
1790547626.6532,0.044563,-0.024186,-0.203254,0.048961,-0.025755,-0.203254,-0.562139,1.004830,-0.588963,-0.619240,3.058971,-10.064805
1790547626.6673,0.040174,-0.013948,-0.226773,0.042810,-0.017490,-0.226773,-0.925168,0.551955,-0.524613,-2.957247,-1.588528,-9.094525
1790547626.6816,0.031680,-0.001822,-0.248142,0.035019,-0.006522,-0.248142,-1.038083,0.918626,-0.561037,-2.382327,-0.844929,-5.135783
1790547626.6956,0.020878,0.014449,-0.254324,0.025120,0.008158,-0.254324,-1.198350,1.081321,-0.364346,-2.688951,0.716631,-6.028441
1790547626.7095,0.006415,0.026346,-0.271409,0.012027,0.020889,-0.271409,-1.022299,1.343576,-0.359490,-2.688951,-0.733389,-6.727042
1790547626.7237,0.000138,0.043261,-0.262896,0.003705,0.036549,-0.262896,-1.086649,0.681868,-0.349777,-2.190688,2.873071,-7.580888
1790547626.7379,0.008890,0.039452,-0.268535,0.007334,0.038581,-0.268535,0.180916,-0.629405,0.083672,-0.389272,1.014071,-17.904665
1790547626.7520,0.008457,0.038615,-0.260452,0.008120,0.038605,-0.260452,0.054645,-0.195956,0.627608,1.872079,1.906391,-10.530539
1790547626.7667,0.005934,0.033079,-0.253348,0.006590,0.034737,-0.253348,0.330255,-0.102468,0.802444,2.370342,1.125611,-10.763406
1790547626.7806,0.000695,0.024000,-0.246023,0.002463,0.027221,-0.246023,0.656859,0.241135,0.580256,0.338959,0.902531,-4.941727
1790547626.7945,-0.013606,0.014390,-0.236915,-0.008785,0.018239,-0.236915,0.713924,0.809353,0.639749,2.063719,1.906391,-8.900469
1790547626.8086,-0.024839,0.001961,-0.223228,-0.020023,0.006845,-0.223228,0.906973,0.613876,0.844939,1.335487,2.352551,-10.258860
1790547626.8228,-0.041037,-0.005397,-0.203754,-0.034733,-0.001725,-0.203754,0.605865,0.953836,0.883792,1.488799,3.170511,-9.016902
1790547626.8366,-0.047105,-0.011247,-0.181712,-0.043394,-0.008390,-0.181712,0.511162,0.303056,0.999135,0.530599,3.728211,-10.064805
1790547626.8507,-0.052759,-0.016236,-0.164355,-0.049949,-0.013882,-0.164355,0.361823,0.267846,1.010062,0.492271,1.869211,-7.930189
1790547626.8646,-0.053608,-0.020807,-0.149357,-0.052510,-0.018729,-0.149357,0.347253,-0.006550,0.841297,-0.120976,2.687171,-10.841028
1790547626.8791,-0.038834,-0.024902,-0.145192,-0.042937,-0.023050,-0.145192,0.125065,-1.060426,0.847367,-1.155832,-0.621849,-13.130889
1790547626.8936,-0.030718,-0.016225,-0.134508,-0.034384,-0.018272,-0.134508,-0.704194,-0.821240,0.789089,3.366870,0.121751,-10.879840
1790547626.9077,-0.024176,-0.007206,-0.128577,-0.027239,-0.010526,-0.128577,-0.819537,-0.731393,0.789089,3.251886,-1.291089,-11.112707
1790547626.9221,-0.014536,0.005374,-0.121747,-0.018347,0.000604,-0.121747,-1.007729,-0.968151,0.540189,3.750150,-0.510309,-9.521448
1790547626.9363,-0.005673,0.021240,-0.113302,-0.009475,0.015049,-0.113302,-1.167996,-0.954795,0.396921,3.826806,0.716631,-7.891378
1790547626.9505,0.001941,0.037842,-0.105777,-0.001484,0.031004,-0.105777,-1.144927,-0.840666,0.291290,3.060246,1.646131,-6.765853
1790547626.9645,-0.013080,0.040872,-0.107514,-0.009601,0.037912,-0.107514,-0.270745,0.967192,0.047248,3.366870,1.571771,-16.623896
1790547626.9787,0.000836,0.041064,-0.111215,-0.002295,0.040119,-0.111215,0.055859,-0.681613,-0.588963,-4.183743,3.579491,-11.500819
1790547626.9930,0.003241,0.040377,-0.121186,0.001580,0.040300,-0.121186,0.178487,0.055371,-0.800223,-1.040848,3.467951,-8.124245
1790547627.0069,-0.003161,0.032392,-0.130255,-0.001738,0.034764,-0.130255,0.542730,0.458466,-0.614460,1.642111,0.976891,-7.619700
1790547627.0209,0.005702,0.028881,-0.139684,0.003470,0.030646,-0.139684,0.174845,-0.413288,-0.751658,-1.155832,0.344831,-7.658511
1790547627.0351,0.016813,0.020495,-0.151293,0.012810,0.023540,-0.151293,0.558514,-0.594195,-0.931351,-0.772552,1.274331,-10.608161
1790547627.0489,0.019524,0.011104,-0.166337,0.017510,0.014835,-0.166337,0.727280,-0.032047,-1.149896,0.223975,2.092291,-7.930189
1790547627.0627,0.028839,0.006546,-0.181092,0.025440,0.009033,-0.181092,0.410389,-0.463068,-1.227601,-0.427600,2.352551,-7.076343
1790547627.0768,0.032580,0.003007,-0.195324,0.030438,0.004815,-0.195324,0.307186,-0.114609,-1.115900,0.032335,2.241011,-7.619700
1790547627.0917,0.039327,-0.002748,-0.210363,0.036661,-0.000479,-0.210363,0.382463,-0.236023,-1.017555,-1.500784,1.943571,-9.948371
1790547627.1071,0.049879,-0.009111,-0.224148,0.045913,-0.006521,-0.224148,0.427387,-0.456997,-0.932565,-2.420655,2.389731,-10.414105
1790547627.1215,0.030613,-0.009180,-0.234193,0.035203,-0.008383,-0.234193,0.035219,1.422495,-0.625387,0.223975,3.616671,-14.955014
1790547627.1363,0.024158,0.001202,-0.249011,0.027471,-0.001674,-0.249011,-0.728477,0.741361,-0.591391,-5.946830,1.832031,-14.334035
1790547627.1516,0.020173,0.012446,-0.259786,0.022362,0.008210,-0.259786,-0.739404,0.589593,-0.410484,-4.950302,1.571771,-9.133336
1790547627.1655,0.007153,0.022865,-0.265962,0.011716,0.018469,-0.265962,-0.727263,1.149313,-0.213793,-0.964192,0.753811,-3.466902
1790547627.1795,0.005841,0.035421,-0.242612,0.007603,0.030335,-0.242612,-0.524501,0.284844,-0.210150,-1.002520,2.761531,-2.496623
1790547627.1942,0.008603,0.027406,-0.242624,0.008303,0.028284,-0.242624,0.508734,-0.210526,0.251224,-0.695896,1.794851,-15.343126
1790547627.2082,0.004943,0.023755,-0.239810,0.005951,0.025114,-0.239810,0.160275,0.120935,0.768448,0.223975,0.196111,-12.587532
1790547627.2217,-0.001361,0.018142,-0.233124,0.000832,0.020233,-0.233124,0.303544,0.259347,1.035559,0.875551,0.047391,-13.519000
1790547627.2349,-0.005051,0.005604,-0.240118,-0.003286,0.009993,-0.240118,0.712710,0.222923,0.761163,-0.619240,-1.328269,-6.959909
1790547627.2490,-0.024739,-0.004207,-0.215088,-0.018303,0.000053,-0.215088,0.734564,0.956264,0.651890,3.175230,0.976891,-4.087881
1790547627.2631,-0.040530,-0.017176,-0.202106,-0.033862,-0.012007,-0.202106,0.922756,0.946551,0.878935,1.373815,1.608951,-8.822846
1790547627.2769,-0.054429,-0.029119,-0.186317,-0.048259,-0.023986,-0.186317,0.886332,0.905270,1.092624,0.147319,2.203831,-9.094525
1790547627.2906,-0.063622,-0.037572,-0.170794,-0.059013,-0.033496,-0.170794,0.628934,0.617519,1.110836,-0.504256,2.501271,-9.987182
1790547627.3044,-0.070119,-0.047370,-0.154278,-0.066787,-0.043208,-0.154278,0.666573,0.386832,1.205539,0.070663,1.683311,-9.715504
1790547627.3185,-0.060423,-0.053853,-0.143627,-0.062333,-0.050659,-0.143627,0.302330,-0.744749,1.116907,-0.389272,-0.250049,-12.781588
1790547627.3324,-0.054801,-0.053488,-0.129660,-0.057060,-0.052640,-0.129660,-0.157830,-0.606336,0.965139,2.830278,-0.175689,-11.694875
1790547627.3465,-0.051194,-0.054381,-0.118488,-0.052954,-0.053859,-0.118488,-0.179685,-0.517704,1.045273,3.903462,-2.555208,-11.578441
1790547627.3605,-0.050137,-0.050070,-0.102333,-0.050982,-0.051207,-0.102333,-0.495361,-0.478852,1.001563,5.513237,-1.328269,-8.395923
1790547627.3744,-0.044212,-0.040145,-0.091633,-0.046243,-0.043463,-0.091633,-0.880245,-0.623334,0.753878,2.178703,-0.882109,-8.939280
1790547627.3887,-0.040922,-0.021445,-0.082032,-0.042518,-0.028050,-0.082032,-1.425394,-0.515276,0.642177,4.018446,-0.287229,-9.521448
1790547627.4035,-0.025877,-0.000174,-0.072374,-0.030870,-0.008537,-0.072374,-1.543166,-1.253474,0.501337,3.060246,0.158931,-10.025993
1790547627.4175,-0.017797,0.022142,-0.066537,-0.021719,0.012938,-0.066537,-1.675508,-0.948725,0.382351,4.478381,0.270471,-7.503266
1790547627.4316,-0.005014,0.047307,-0.059711,-0.010025,0.036996,-0.059711,-1.834560,-1.278971,0.428488,3.520182,0.939711,-6.882287
1790547627.4459,-0.004771,0.053396,-0.045889,-0.006347,0.048476,-0.045889,-0.630131,-0.195956,0.177161,3.903462,-2.183408,-14.993826
1790547627.4598,0.011498,0.042403,-0.044434,0.006145,0.044225,-0.044434,0.879047,-0.803028,-0.281785,-8.169853,4.694891,-12.160609
1790547627.4740,0.003130,0.034943,-0.052352,0.004034,0.037727,-0.052352,0.541516,0.718293,-0.442052,-0.657568,2.649991,-12.277042
1790547627.4881,0.006393,0.036327,-0.061259,0.005685,0.036747,-0.061259,-0.058270,-0.260306,-0.370417,1.105519,1.794851,-7.037532
1790547627.5020,0.011224,0.036962,-0.061764,0.009562,0.036898,-0.061764,-0.063127,-0.161960,-0.329136,-1.309144,0.976891,-6.067252
1790547627.5157,0.024224,0.024162,-0.063445,0.019826,0.027983,-0.063445,0.917900,-0.710753,-0.527041,-1.654096,0.902531,-5.912007
1790547627.5294,0.033072,0.015145,-0.073190,0.029098,0.018997,-0.073190,0.751562,-0.487351,-0.648456,-0.964192,2.649991,-7.658511
1790547627.5434,0.036517,0.007266,-0.086611,0.034291,0.010785,-0.086611,0.676286,-0.169245,-0.680023,0.147319,2.835891,-7.270399
1790547627.5575,0.043779,0.000707,-0.098937,0.040933,0.003730,-0.098937,0.516019,-0.370793,-0.794153,-0.887536,3.133331,-10.957462
1790547627.5717,0.041719,-0.008645,-0.111959,0.041483,-0.004932,-0.111959,0.755205,0.197426,-0.669096,0.492271,3.691031,-10.452916
1790547627.5856,0.018751,-0.001011,-0.131053,0.025570,-0.002187,-0.131053,-0.297456,1.685964,-0.669096,1.527127,7.037230,-10.025993
1790547627.5996,0.016249,0.011590,-0.143526,0.019045,0.007457,-0.143526,-0.882673,0.486391,-0.479690,-6.521750,3.207691,-15.575993
1790547627.6134,0.013491,0.019468,-0.149305,0.015157,0.015865,-0.149305,-0.665341,0.514317,-0.258716,-4.720334,-0.026969,-9.715504
1790547627.6274,0.012183,0.026896,-0.152157,0.013075,0.023587,-0.152157,-0.568210,0.462109,-0.156728,-4.758662,0.753811,-7.115154
1790547627.6415,0.006358,0.042086,-0.151675,0.008373,0.036536,-0.151675,-0.948236,0.810567,-0.232005,-3.110559,1.943571,-4.049070
1790547627.6556,0.002186,0.048356,-0.166811,0.004042,0.044810,-0.166811,-0.593707,0.587165,-0.206508,-2.305671,-0.361589,-5.407462
1790547627.6696,0.012250,0.043127,-0.172535,0.009787,0.043632,-0.172535,0.245265,-0.600266,0.010823,-3.532167,-0.287229,-15.343126
1790547627.6836,0.005364,0.036492,-0.168730,0.006691,0.038634,-0.168730,0.350896,0.232636,0.627608,3.060246,-0.287229,-12.432287
1790547627.6976,0.000122,0.029287,-0.160386,0.002093,0.032091,-0.160386,0.513591,0.303056,0.639749,-0.695896,2.166651,-11.888930
1790547627.7116,-0.006685,0.016062,-0.157174,-0.004052,0.020871,-0.157174,0.857193,0.361335,0.594826,0.453943,0.344831,-8.279490
1790547627.7256,-0.022363,0.003430,-0.145927,-0.016870,0.008663,-0.145927,0.911829,0.873703,0.717454,1.948735,1.311511,-6.959909
1790547627.7393,-0.038012,-0.007363,-0.132150,-0.031670,-0.002555,-0.132150,0.807413,0.976905,0.982137,0.990535,1.980751,-9.094525
1790547627.7530,-0.047653,-0.017822,-0.115047,-0.042858,-0.013242,-0.115047,0.773417,0.604163,1.071984,-0.197632,2.538451,-10.763406
1790547627.7671,-0.057169,-0.024466,-0.094257,-0.052875,-0.021099,-0.094257,0.488094,0.510674,1.206753,0.952207,2.687171,-10.142427
1790547627.7811,-0.057432,-0.035217,-0.070352,-0.056065,-0.030982,-0.070352,0.798914,-0.097611,1.251677,0.070663,3.058971,-9.870749
1790547627.7952,-0.043066,-0.037703,-0.051001,-0.046966,-0.035687,-0.051001,0.139635,-1.105349,1.181256,-0.542584,2.241011,-12.703965
1790547627.8092,-0.035913,-0.029992,-0.034689,-0.039229,-0.031700,-0.034689,-0.656842,-0.775102,0.967567,3.711822,0.196111,-12.471098
1790547627.8233,-0.033147,-0.026117,-0.020193,-0.034972,-0.027792,-0.020193,-0.519644,-0.533488,1.016133,4.861661,-2.852648,-11.578441
1790547627.8372,-0.021722,-0.011624,-0.007290,-0.025697,-0.016474,-0.007290,-1.194707,-1.133274,0.752664,3.443526,-0.659029,-9.094525
1790547627.8512,-0.014198,0.005492,0.004969,-0.017647,-0.001098,0.004969,-1.313693,-0.866163,0.679816,2.715294,0.158931,-6.571797
1790547627.8652,-0.000093,0.020828,0.016853,-0.005360,0.014250,0.016853,-1.199564,-1.297183,0.613038,2.868606,0.121751,-9.560259
1790547627.8790,0.015975,0.035710,0.027184,0.009574,0.029272,0.027184,-1.029584,-1.492660,0.605753,2.638638,2.055111,-7.658511
1790547627.8933,0.000628,0.031061,0.032443,0.003312,0.030525,0.032443,0.220982,0.934410,0.353212,2.293686,0.084571,-15.149070
1790547627.9077,0.009498,0.023268,0.028371,0.007642,0.025445,0.028371,0.542730,-0.353795,-0.612031,-4.528694,2.761531,-15.770049
1790547627.9218,0.008754,0.021949,0.018272,0.008421,0.022997,0.018272,0.018221,0.051729,-0.706735,1.987063,0.456371,-9.599070
1790547627.9358,0.015846,0.020582,0.010709,0.013618,0.021307,0.010709,0.252550,-0.458211,-0.331565,-0.044320,2.649991,-5.795574
1790547627.9497,0.022727,0.011346,0.009077,0.019994,0.014334,0.009077,0.625292,-0.342868,-0.357062,-1.615768,0.902531,-8.978091
1790547627.9636,0.038209,-0.007417,0.003064,0.032745,-0.000892,0.003064,1.325852,-0.854021,-0.761371,-2.842263,1.274331,-9.715504
1790547627.9773,0.051504,-0.021596,-0.008408,0.045876,-0.015384,-0.008408,1.115805,-0.947510,-0.835434,0.798895,2.835891,-9.210958
1790547627.9909,0.060683,-0.025605,-0.022958,0.056241,-0.022539,-0.022958,0.489308,-0.640332,-0.951991,0.607255,3.802571,-6.727042
1790547628.0049,0.064260,-0.030761,-0.034327,0.061854,-0.028294,-0.034327,0.324184,-0.192314,-0.871858,0.108991,1.237151,-9.909560
1790547628.0188,0.053016,-0.036545,-0.049481,0.055667,-0.034070,-0.049481,0.461382,0.933196,-0.823292,-1.232488,3.691031,-13.363756
1790547628.0328,0.037228,-0.031065,-0.060086,0.042760,-0.031966,-0.060086,-0.465008,1.196665,-0.729803,0.223975,0.716631,-12.781588
1790547628.0467,0.034704,-0.020015,-0.066984,0.037120,-0.023601,-0.066984,-0.983447,0.424470,-0.694593,-2.957247,-1.625708,-10.220049
1790547628.0605,0.028868,-0.011956,-0.068682,0.031344,-0.015449,-0.068682,-0.902099,0.701295,-0.483332,-2.688951,-2.927008,-6.494175
1790547628.0744,0.020862,0.003791,-0.073562,0.024006,-0.001981,-0.073562,-1.238416,0.883416,-0.477262,-3.072231,-0.138509,-7.348021
1790547628.0883,0.005834,0.017635,-0.082183,0.011286,0.011750,-0.082183,-1.166782,1.438279,-0.496688,-2.842263,-0.844929,-6.106063
1790547628.1022,-0.006965,0.030182,-0.087781,-0.001490,0.024652,-0.087781,-0.928810,1.250087,-0.558609,-2.650623,0.828171,-7.270399
1790547628.1162,-0.004296,0.030541,-0.094695,-0.003454,0.028775,-0.094695,-0.116549,-0.047831,-0.352205,-2.382327,0.456371,-19.185434
1790547628.1301,-0.001068,0.029349,-0.088608,-0.001784,0.029177,-0.088608,0.064358,-0.272447,0.370210,-0.580912,2.203831,-14.450469
1790547628.1440,-0.005011,0.026219,-0.086995,-0.004043,0.027106,-0.086995,0.139635,0.049300,0.778161,2.025391,0.605091,-12.005364
1790547628.1584,-0.007686,0.019682,-0.080297,-0.006593,0.021909,-0.080297,0.499021,-0.079399,0.749022,1.757095,1.832031,-6.804665
1790547628.1724,-0.022033,0.011899,-0.076637,-0.017401,0.014902,-0.076637,0.681142,0.737719,0.566901,2.600310,2.724351,-6.300119
1790547628.1863,-0.035384,0.001975,-0.072002,-0.029989,0.005853,-0.072002,0.740635,0.775357,0.604539,1.910407,2.055111,-8.939280
1790547628.2000,-0.048174,-0.008091,-0.060430,-0.042719,-0.003908,-0.060430,0.798914,0.907699,0.707741,-0.427600,2.538451,-8.667602
1790547628.2136,-0.061881,-0.014237,-0.047692,-0.056132,-0.011138,-0.047692,0.499021,0.907699,0.882577,0.453943,2.873071,-9.715504
1790547628.2275,-0.067164,-0.020312,-0.033564,-0.063855,-0.017560,-0.033564,0.407960,0.300628,0.945713,0.032335,2.129471,-11.151518
1790547628.2414,-0.052930,-0.026366,-0.019279,-0.056208,-0.023724,-0.019279,0.288974,-1.087137,0.962711,-0.734224,0.047391,-13.286133
1790547628.2554,-0.044283,-0.021045,-0.006473,-0.047861,-0.021849,-0.006473,-0.432226,-0.786030,0.882577,1.757095,1.757671,-13.053266
1790547628.2693,-0.042996,-0.017458,0.001737,-0.044455,-0.018775,0.001737,-0.400658,-0.395076,0.936000,4.325070,-0.398769,-12.121798
1790547628.2833,-0.034663,-0.008257,0.010345,-0.037601,-0.011413,0.010345,-0.746689,-0.943868,0.817014,3.903462,0.530731,-8.745224
1790547628.2973,-0.026379,0.003410,0.017219,-0.029746,-0.001037,0.017219,-0.921525,-0.919585,0.600897,3.635166,0.344831,-8.163056
1790547628.3113,-0.016107,0.017688,0.022075,-0.020198,0.012070,0.022075,-1.078150,-0.998504,0.381137,2.868606,0.642271,-7.852567
1790547628.3254,-0.001966,0.033281,0.024502,-0.007435,0.026918,0.024502,-1.086649,-1.278971,0.279149,2.600310,1.646131,-6.882287
1790547628.3392,-0.007513,0.037431,0.026432,-0.007490,0.034277,0.026432,-0.282887,0.197426,0.419989,2.983590,2.835891,-12.703965
1790547628.3532,-0.011537,0.034407,0.019129,-0.010323,0.034368,0.019129,0.186986,0.334624,-0.528256,2.102047,2.203831,-18.292777
1790547628.3672,0.001358,0.032612,0.015693,-0.002146,0.033139,0.015693,0.078928,-0.601480,-1.062478,-2.880591,1.088431,-13.014455
1790547628.3816,0.009582,0.030500,0.001791,0.006064,0.031291,0.001791,0.241623,-0.472781,-0.734660,0.262303,1.980751,-5.601518
1790547628.3959,0.009445,0.020923,-0.003689,0.008430,0.024034,-0.003689,0.631362,-0.004122,-0.404413,1.258831,0.939711,-8.861658
1790547628.4105,0.023459,0.007057,-0.008049,0.018951,0.012150,-0.008049,0.921542,-0.709539,-0.848789,-2.497311,1.311511,-10.841028
1790547628.4245,0.034451,-0.002835,-0.021152,0.029801,0.001660,-0.021152,0.736993,-0.609979,-0.972632,-0.772552,2.092291,-8.939280
1790547628.4382,0.036367,-0.008602,-0.042022,0.034397,-0.005523,-0.042022,0.501449,-0.151033,-1.086761,1.718767,2.241011,-6.610609
1790547628.4520,0.044299,-0.010144,-0.059010,0.041329,-0.008758,-0.059010,0.183344,-0.362294,-1.091618,-1.155832,2.389731,-7.464455
1790547628.4660,0.051053,-0.014887,-0.072745,0.048136,-0.013048,-0.072745,0.350896,-0.295516,-0.950777,-1.309144,1.943571,-8.900469
1790547628.4798,0.056664,-0.022359,-0.086760,0.054106,-0.019565,-0.086760,0.621649,-0.210526,-0.874286,-2.037376,3.505131,-10.336483
1790547628.4938,0.039988,-0.019286,-0.099520,0.044223,-0.019370,-0.099520,-0.177256,1.234303,-0.639957,0.683911,3.467951,-13.324944
1790547628.5077,0.027254,-0.009193,-0.104582,0.032345,-0.012246,-0.104582,-0.756402,1.122602,-0.367989,-4.873646,1.943571,-17.710609
1790547628.5215,0.022712,0.003051,-0.093262,0.025602,-0.001538,-0.093262,-0.988303,0.720721,-0.230791,-6.100142,-0.361589,-8.473546
1790547628.5355,0.013040,0.011968,-0.092334,0.016809,0.007916,-0.092334,-0.791612,0.948980,-0.087522,-1.922392,-0.510309,-4.592427
1790547628.5495,-0.002384,0.026849,-0.094363,0.003374,0.021169,-0.094363,-0.913026,1.166311,-0.126375,-0.197632,2.538451,-5.562707
1790547628.5635,-0.010608,0.034312,-0.098427,-0.006414,0.030369,-0.098427,-0.594921,0.731648,-0.122732,-1.769080,0.790991,-10.569350
1790547628.5775,-0.003833,0.028988,-0.097161,-0.004607,0.029402,-0.097161,0.245265,-0.446070,0.141951,-1.769080,-0.659029,-16.973196
1790547628.5914,-0.001470,0.029828,-0.087116,-0.002411,0.029700,-0.087116,-0.094695,-0.255449,0.691957,-0.695896,1.534591,-11.229140
1790547628.6054,-0.006023,0.027051,-0.077183,-0.004940,0.027846,-0.077183,0.082570,0.185284,0.920216,-0.197632,0.010211,-9.210958
1790547628.6193,-0.002940,0.018353,-0.068529,-0.003540,0.021201,-0.068529,0.428601,-0.185029,0.609396,-1.922392,-1.253909,-8.085434
1790547628.6331,-0.020101,0.003422,-0.070197,-0.015132,0.008756,-0.070197,0.988320,0.887058,0.678602,1.833751,0.010211,-3.738581
1790547628.6472,-0.036851,-0.009383,-0.061107,-0.030336,-0.003942,-0.061107,0.923971,1.103176,0.739309,0.300631,1.906391,-9.599070
1790547628.6614,-0.045432,-0.018985,-0.045149,-0.040903,-0.014472,-0.045149,0.710282,0.583523,0.827941,-1.002520,2.724351,-10.763406
1790547628.6750,-0.053611,-0.024675,-0.032436,-0.049799,-0.021614,-0.032436,0.411603,0.482749,0.920216,0.760567,2.203831,-11.229140
1790547628.6891,-0.048389,-0.030809,-0.017494,-0.048812,-0.028051,-0.017494,0.369108,-0.493421,1.011277,0.568927,1.348691,-12.354665
1790547628.7030,-0.043267,-0.029819,-0.008351,-0.044931,-0.029289,-0.008351,-0.138404,-0.545629,0.775733,2.178703,0.939711,-11.578441
1790547628.7170,-0.044012,-0.030034,-0.003594,-0.044287,-0.029811,-0.003594,-0.177256,-0.248165,0.715026,4.670021,-1.774428,-10.724595
1790547628.7310,-0.034538,-0.022499,0.003875,-0.037463,-0.024692,0.003875,-0.676269,-0.940226,0.723525,2.906934,-0.398769,-8.978091
1790547628.7448,-0.029376,-0.011619,0.010909,-0.031802,-0.015541,0.010909,-0.942166,-0.686470,0.648248,3.903462,-0.844929,-9.133336
1790547628.7589,-0.018699,0.003598,0.017029,-0.022630,-0.002144,0.017029,-1.215348,-1.007003,0.446700,2.753622,-0.473129,-8.395923
1790547628.7730,-0.005497,0.017189,0.022871,-0.010637,0.011389,0.022871,-1.118216,-1.185482,0.267007,2.485326,-0.621849,-7.309210
1790547628.7868,0.006399,0.031642,0.022057,0.001288,0.025566,0.022057,-1.080578,-1.152700,0.304646,3.405198,1.014071,-8.784035
1790547628.8008,0.002676,0.035435,0.019910,0.002260,0.032475,0.019910,-0.307169,0.153716,0.095813,2.830278,2.092291,-17.089630
1790547628.8148,0.000547,0.035363,0.030111,0.001061,0.034496,0.030111,0.021863,0.460894,-0.533112,-3.608823,2.389731,-10.763406
1790547628.8288,0.012280,0.031081,0.026921,0.008914,0.032106,0.026921,0.297473,-0.537130,-1.026054,-2.688951,2.278191,-13.208511
1790547628.8427,0.020304,0.028786,0.017553,0.016887,0.029782,0.017553,0.268334,-0.467924,-0.580464,-0.235960,2.055111,-5.562707
1790547628.8567,0.020593,0.016222,0.020273,0.019481,0.020290,0.020273,0.802556,0.067512,-0.262359,-0.619240,0.121751,-8.007811
1790547628.8707,0.037168,0.005218,0.023301,0.031862,0.009740,0.023301,0.774631,-0.922013,-0.718876,-2.880591,1.571771,-9.715504
1790547628.8847,0.040411,-0.003696,0.012395,0.037847,0.000334,0.012395,0.602223,-0.056330,-0.955634,-0.810880,1.311511,-9.405014
1790547628.8985,0.047183,-0.008645,-0.000006,0.044382,-0.005951,-0.000006,0.416459,-0.267591,-1.078262,-1.309144,2.538451,-8.124245
1790547628.9126,0.051046,-0.011601,-0.016120,0.049047,-0.009906,-0.016120,0.327827,-0.175316,-0.853646,-0.120976,2.464091,-5.989630
1790547628.9267,0.056042,-0.019057,-0.020745,0.053944,-0.016312,-0.020745,0.496593,-0.174102,-0.664240,-1.922392,1.199971,-9.366203
1790547628.9406,0.056600,-0.027663,-0.023962,0.055803,-0.024258,-0.023962,0.749134,0.099080,-0.326708,-2.573967,4.434631,-11.345574
1790547628.9545,0.037216,-0.019958,-0.035628,0.042792,-0.021248,-0.035628,-0.559711,1.400640,-0.471191,1.182175,2.575631,-15.614805
1790547628.9686,0.032624,-0.006901,-0.036538,0.035674,-0.011205,-0.036538,-1.028370,0.554383,-0.426268,-3.762135,-0.138509,-12.160609
1790547628.9826,0.026160,0.001647,-0.036727,0.029014,-0.002209,-0.036727,-0.783113,0.799640,-0.332779,-3.838791,-1.142369,-7.037532
1790547628.9966,0.021705,0.011772,-0.039066,0.023898,0.007578,-0.039066,-0.900885,0.686725,-0.216221,-3.570495,-1.068009,-5.252217
1790547629.0105,0.013052,0.021583,-0.040652,0.016306,0.017381,-0.040652,-0.819537,0.887058,-0.252645,-1.922392,-0.138509,-5.174595
1790547629.0246,0.005550,0.031868,-0.037366,0.008776,0.027522,-0.037366,-0.722406,0.860347,-0.403199,-3.493839,1.534591,-8.046623
1790547629.0384,0.014966,0.031616,-0.040692,0.013109,0.030388,-0.040692,-0.109264,-0.544415,-0.040170,-4.567022,-0.584669,-18.758511
1790547629.0524,0.014678,0.030171,-0.044451,0.014207,0.030236,-0.044451,0.063144,-0.198385,0.587541,1.987063,1.385871,-12.082986
1790547629.0663,0.008145,0.022441,-0.049951,0.009964,0.024780,-0.049951,0.466239,0.192569,0.857081,2.178703,0.307651,-11.035084
1790547629.0803,0.000425,0.016351,-0.042726,0.003287,0.018880,-0.042726,0.553657,0.413543,0.474626,0.875551,2.761531,-7.192776
1790547629.0943,-0.014130,0.009181,-0.049155,-0.008905,0.012091,-0.049155,0.546372,0.808139,0.438201,2.600310,1.906391,-8.163056
1790547629.1082,-0.025582,-0.002414,-0.042017,-0.020579,0.001937,-0.042017,0.823197,0.758359,0.553545,0.108991,1.534591,-9.870749
1790547629.1219,-0.043368,-0.013334,-0.039442,-0.036531,-0.008752,-0.039442,0.798914,1.101961,0.757521,2.102047,1.720491,-9.521448
1790547629.1355,-0.053454,-0.022878,-0.019947,-0.048377,-0.018640,-0.019947,0.699354,0.745004,0.872864,-1.117504,1.832031,-9.560259
1790547629.1495,-0.052707,-0.034058,-0.001522,-0.051408,-0.029433,-0.001522,0.806199,-0.121894,0.914145,-0.082648,2.426911,-10.841028
1790547629.1640,-0.042584,-0.039913,0.011852,-0.045231,-0.036769,0.011852,0.254978,-0.754462,0.943285,-0.772552,-0.733389,-14.334035
1790547629.1791,-0.038085,-0.034531,0.014717,-0.040229,-0.035203,0.014717,-0.444368,-0.527417,0.868008,3.558510,0.456371,-12.898021
1790547629.1939,-0.032879,-0.030174,0.009790,-0.035084,-0.031683,0.009790,-0.488077,-0.696183,0.894719,4.593365,-1.700068,-9.676693
1790547629.2088,-0.027345,-0.019082,0.008848,-0.029667,-0.022862,0.008848,-0.875388,-0.694969,0.706527,4.631693,-0.659029,-10.025993
1790547629.2231,-0.017658,-0.004706,0.008377,-0.021260,-0.010153,0.008377,-1.098790,-0.917157,0.452771,3.021918,0.010211,-9.521448
1790547629.2383,-0.006600,0.013919,0.007667,-0.010998,0.006698,0.007667,-1.255414,-1.015502,0.368995,2.983590,0.828171,-6.882287
1790547629.2525,0.007890,0.032645,0.008659,0.002224,0.024861,0.008659,-1.286982,-1.322680,0.392064,2.293686,1.534591,-6.067252
1790547629.2663,0.004094,0.038529,0.007955,0.003533,0.034428,0.007955,-0.364234,-0.015049,0.381137,2.561982,1.943571,-6.494175
1790547629.2803,-0.002936,0.031359,0.042663,-0.000995,0.032280,0.042663,0.693284,0.840921,-0.262359,-3.685479,4.062831,-7.153965
1790547629.2944,0.010969,0.027949,0.040670,0.007380,0.029248,0.040670,0.259835,-0.752034,-0.795367,-2.650623,3.207691,-15.304315
1790547629.3084,0.014591,0.026333,0.024523,0.012428,0.027207,0.024523,0.118994,-0.174102,-0.907068,1.105519,1.906391,-9.909560
1790547629.3225,0.017569,0.020403,0.023042,0.016027,0.022444,0.023042,0.364251,-0.078185,-0.474833,-0.925864,0.790991,-9.754315
1790547629.3364,0.029893,0.007811,0.032631,0.025733,0.012201,0.032631,0.801342,-0.578411,-0.695807,-2.727279,-0.026969,-7.736133
1790547629.3501,0.046556,-0.007937,0.031465,0.040309,-0.001896,0.031465,1.149801,-0.977864,-0.840290,-1.654096,1.237151,-6.882287
1790547629.3638,0.054153,-0.015982,0.013743,0.050000,-0.011756,0.013743,0.673857,-0.503134,-0.999343,0.645583,2.724351,-7.736133
1790547629.3778,0.057643,-0.018604,-0.003424,0.055350,-0.016550,-0.003424,0.236766,-0.181387,-0.987201,0.453943,2.724351,-9.094525
1790547629.3918,0.059982,-0.023557,-0.019312,0.058593,-0.021455,-0.019312,0.343611,-0.115823,-0.909496,0.530599,1.906391,-10.181238
1790547629.4059,0.050065,-0.027685,-0.028206,0.052623,-0.025816,-0.028206,0.319328,0.827565,-0.631458,-1.462456,2.910251,-12.587532
1790547629.4204,0.027593,-0.022062,-0.036998,0.035102,-0.023189,-0.036998,-0.398230,1.664109,-0.495474,-1.309144,2.687171,-17.632987
1790547629.4346,0.023757,-0.009181,-0.026289,0.027161,-0.013383,-0.026289,-1.013800,0.702509,-0.552538,-6.100142,-0.547489,-8.357112
1790547629.4485,0.020734,-0.000597,-0.027572,0.022662,-0.004433,-0.027572,-0.818323,0.610234,-0.372845,-4.643678,-1.737248,-6.804665
1790547629.4625,0.009852,0.013338,-0.029525,0.013695,0.008007,-0.029525,-1.085435,0.987832,-0.275714,-1.462456,0.047391,-5.485084
1790547629.4764,0.000451,0.024524,-0.029767,0.004424,0.019569,-0.029767,-0.905741,0.955050,-0.212579,-3.378855,-0.064149,-8.706413
1790547629.4904,-0.000485,0.024294,-0.037182,0.000988,0.022877,-0.037182,-0.105622,0.125791,-0.104520,-1.155832,-0.473129,-18.525644
1790547629.5042,0.004824,0.022264,-0.031056,0.003673,0.022448,-0.031056,0.100782,-0.466710,0.500123,-0.235960,1.534591,-14.760958
1790547629.5182,-0.002085,0.017558,-0.032333,-0.000357,0.019025,-0.032333,0.268334,0.222923,0.928715,2.332014,0.828171,-12.121798
1790547629.5323,-0.000056,0.004319,-0.025615,-0.000146,0.008731,-0.025615,0.724851,-0.180173,0.770876,-1.117504,-1.439808,-7.231588
1790547629.5465,-0.016986,-0.006335,-0.040222,-0.011934,-0.001816,-0.040222,0.796486,0.800854,0.717454,2.945262,1.423051,-5.213406
1790547629.5605,-0.032711,-0.019197,-0.035192,-0.026478,-0.013982,-0.035192,0.916686,0.953836,0.824299,1.527127,1.720491,-10.375294
1790547629.5746,-0.048707,-0.032033,-0.023070,-0.042038,-0.026618,-0.023070,0.960395,0.987832,0.961497,1.220503,2.575631,-9.637881
1790547629.5882,-0.062280,-0.039612,-0.004924,-0.056207,-0.035714,-0.004924,0.624078,0.897986,1.017347,0.607255,3.058971,-9.676693
1790547629.6018,-0.064162,-0.046025,0.013950,-0.061775,-0.042932,0.013950,0.393391,0.080868,1.087768,-0.235960,1.199971,-11.772497
1790547629.6157,-0.057477,-0.050732,0.026657,-0.058766,-0.048392,0.026657,0.250122,-0.606336,0.999135,1.258831,0.939711,-12.936833
1790547629.6297,-0.052107,-0.051443,0.034179,-0.054105,-0.050528,0.034179,-0.038844,-0.535916,0.863151,2.025391,0.567911,-12.626343
1790547629.6437,-0.050202,-0.055422,0.034264,-0.051373,-0.053954,0.034264,0.002437,-0.380506,0.840083,2.983590,-2.927008,-9.016902
1790547629.6577,-0.043750,-0.052563,0.035830,-0.046037,-0.052980,0.035830,-0.367877,-0.710753,0.844939,2.332014,-0.733389,-7.270399
1790547629.6721,-0.036221,-0.042058,0.040471,-0.039166,-0.045335,0.040471,-0.789184,-0.676757,0.696814,1.872079,0.679451,-10.724595
1790547629.6863,-0.024715,-0.028265,0.043111,-0.029050,-0.033386,0.043111,-1.114574,-1.045856,0.617895,4.363398,-1.179549,-14.955014
1790547629.7003,-0.008819,-0.007659,0.039398,-0.014888,-0.015377,0.039398,-1.516455,-1.365175,0.251224,3.788478,0.790991,-11.384385
1790547629.7143,-0.003644,0.014489,0.072631,-0.007017,0.005529,0.072631,-1.628156,-0.894088,0.381137,6.011501,0.419191,-4.670049
1790547629.7281,0.010752,0.035516,0.072839,0.005421,0.026520,0.072839,-1.473960,-1.100492,0.095813,0.338959,2.092291,-8.124245
1790547629.7421,-0.008354,0.028533,0.076166,-0.004222,0.027929,0.076166,0.280475,1.290153,-0.116661,3.711822,-3.224448,-16.041728
1790547629.7562,0.017499,0.015240,0.105733,0.010983,0.019047,0.105733,1.119448,-1.428311,-0.768656,-5.525222,5.364131,-9.560259
1790547629.7703,0.012206,0.015517,0.073460,0.011839,0.016576,0.073460,0.146920,0.253276,-0.585320,3.290214,4.062831,-8.240679
1790547629.7844,0.010206,0.007383,0.061575,0.010696,0.010141,0.061575,0.556086,0.165858,-0.540397,0.798895,0.976891,-7.852567
1790547629.7984,0.023324,0.001892,0.066817,0.019536,0.004367,0.066817,0.382463,-0.694969,-0.695807,-2.765607,1.683311,-11.151518
1790547629.8120,0.031187,-0.009947,0.056891,0.027692,-0.005653,0.056891,0.804985,-0.441213,-0.933779,-0.274288,0.716631,-10.258860
1790547629.8257,0.041114,-0.018630,0.045321,0.037088,-0.014737,0.045321,0.654431,-0.583268,-0.953205,-0.542584,1.608951,-7.891378
1790547629.8396,0.047006,-0.023112,0.026827,0.044031,-0.020600,0.026827,0.378821,-0.374435,-0.882785,0.377287,1.906391,-6.998721
1790547629.8535,0.051490,-0.029763,0.016017,0.049252,-0.027014,0.016017,0.513591,-0.183815,-0.826935,-1.002520,2.241011,-9.249770
1790547629.8675,0.043504,-0.030203,0.004945,0.045229,-0.029247,0.004945,0.200342,0.730434,-0.734660,-1.692424,5.178231,-10.414105
1790547629.8816,0.025750,-0.019658,0.005390,0.031594,-0.022535,0.005390,-0.722406,1.518412,-0.533112,-5.180270,3.430771,-15.770049
1790547629.8955,0.022315,-0.005714,0.013994,0.025099,-0.010760,0.013994,-1.066008,0.592022,-0.556181,-6.291782,0.530731,-13.014455
1790547629.9097,0.019486,0.007287,0.018707,0.021170,0.001873,0.018707,-0.996802,0.598092,-0.604747,-4.298727,0.084571,-7.386832
1790547629.9241,0.008370,0.025754,-0.001723,0.012210,0.018590,-0.001723,-0.959164,0.817852,-0.578035,0.453943,3.244871,-3.311658
1790547629.9382,0.006425,0.033966,-0.003868,0.008160,0.029353,-0.003868,-0.651986,0.545884,-0.550110,-3.762135,0.307651,-6.610609
1790547629.9521,0.003363,0.034145,-0.008341,0.004802,0.032707,-0.008341,-0.031559,0.330981,-0.347348,-1.232488,2.873071,-18.836133
1790547629.9662,0.003666,0.032972,-0.006343,0.004007,0.032892,-0.006343,0.047360,-0.101253,0.281577,0.645583,1.757671,-13.945924
1790547629.9803,-0.002011,0.028001,-0.003931,-0.000206,0.029469,-0.003931,0.291403,0.169500,0.710169,2.217030,0.976891,-11.811308
1790547629.9942,-0.006869,0.018812,-0.003841,-0.004870,0.022009,-0.003841,0.505092,0.198640,0.517121,0.875551,-0.621849,-7.658511
1790547630.0081,-0.021523,0.005523,-0.013080,-0.016527,0.010468,-0.013080,1.004104,0.743790,0.430917,3.290214,1.794851,-6.804665
1790547630.0220,-0.036173,-0.011262,-0.010648,-0.030279,-0.004743,-0.010648,1.202009,0.887058,0.613038,1.987063,1.646131,-10.530539
1790547630.0359,-0.054633,-0.022973,-0.001923,-0.047327,-0.017504,-0.001923,0.948253,1.184523,0.893505,1.067191,3.356411,-8.667602
1790547630.0495,-0.064908,-0.033858,0.014515,-0.059634,-0.028952,0.014515,0.755205,0.725577,1.027060,-0.734224,1.571771,-11.073895
1790547630.0630,-0.074041,-0.046846,0.030318,-0.069719,-0.041478,0.030318,0.965251,0.531315,1.244392,0.913879,2.426911,-9.133336
1790547630.0769,-0.065895,-0.051733,0.046727,-0.067042,-0.048657,0.046727,0.246479,-0.657330,1.022204,0.223975,0.865351,-13.596623
1790547630.0908,-0.062967,-0.049188,0.054456,-0.064190,-0.049029,0.054456,-0.315668,-0.456997,0.835226,4.363398,-0.287229,-12.587532
1790547630.1048,-0.064123,-0.047012,0.062953,-0.064143,-0.047617,0.062953,-0.373947,-0.226310,0.802444,5.819861,-2.369308,-11.927742
1790547630.1188,-0.049938,-0.040483,0.074517,-0.054200,-0.042623,0.074517,-0.645915,-1.187911,0.707741,1.833751,-0.919289,-8.551168
1790547630.1328,-0.045858,-0.026094,0.076784,-0.048360,-0.031053,0.076784,-1.147356,-0.658545,0.609396,4.286742,-0.361589,-6.959909
1790547630.1468,-0.035437,-0.005874,0.081454,-0.039314,-0.013428,0.081454,-1.526168,-1.060426,0.649462,2.715294,0.344831,-6.261308
1790547630.1608,-0.017607,0.012207,0.093156,-0.024119,0.004516,0.093156,-1.449677,-1.557010,0.495266,2.561982,-0.473129,-7.386832
1790547630.1753,0.001177,0.031529,0.097574,-0.006412,0.023425,0.097574,-1.407182,-1.569151,0.334999,2.255358,0.344831,-6.377742
1790547630.1893,-0.018603,0.020218,0.112808,-0.014946,0.021180,0.112808,0.588867,1.267085,0.280363,3.788478,-3.038548,-16.002917
1790547630.2033,-0.014040,0.013495,0.112464,-0.014311,0.015800,0.112464,0.554871,-0.078185,-0.642385,-4.643678,5.884650,-21.281238
1790547630.2173,-0.002516,0.017089,0.098625,-0.006054,0.016703,0.098625,-0.241606,-0.792100,-0.714019,1.795423,2.426911,-13.945924
1790547630.2313,0.000868,0.016639,0.076741,-0.001209,0.016658,0.076741,0.189415,-0.290660,-0.378916,1.373815,3.170511,-7.309210
1790547630.2452,0.012344,0.004408,0.097794,0.008278,0.008083,0.097794,0.779488,-0.566270,-0.406841,-2.727279,0.047391,-8.395923
1790547630.2591,0.030653,-0.014517,0.106762,0.023941,-0.007737,0.106762,1.329494,-1.008218,-0.768656,-3.225543,0.902531,-8.628791
1790547630.2728,0.044291,-0.026488,0.093767,0.038186,-0.020863,0.093767,0.947039,-0.850379,-0.886428,-0.772552,1.980751,-7.037532
1790547630.2865,0.053972,-0.031019,0.073340,0.049236,-0.027972,0.073340,0.426172,-0.591767,-1.017555,-0.389272,2.687171,-7.774944
1790547630.3006,0.056555,-0.036043,0.054658,0.054359,-0.033622,0.054658,0.330255,-0.161960,-0.939850,0.952207,1.460231,-10.452916
1790547630.3144,0.041390,-0.039942,0.036779,0.045281,-0.038046,0.036779,0.313257,1.212448,-0.893712,-0.810880,3.356411,-14.372847
1790547630.3285,0.030095,-0.028534,0.038948,0.034651,-0.031387,0.038948,-0.847463,1.110460,-0.687308,-6.368438,1.646131,-15.537182
1790547630.3425,0.032470,-0.012153,0.048134,0.033124,-0.017923,0.048134,-1.284554,0.157359,-0.550110,-6.521750,-0.659029,-13.713056
1790547630.3564,0.032703,-0.002839,0.055485,0.032829,-0.007364,0.055485,-0.882673,0.224137,-0.304853,-3.110559,-1.885968,-8.667602
1790547630.3713,0.020671,0.016269,0.058882,0.024319,0.009179,0.058882,-1.361045,0.976905,-0.161585,-0.810880,0.158931,-3.428091
1790547630.3855,0.019514,0.031675,0.061485,0.020956,0.024926,0.061485,-1.188637,0.437826,-0.298783,-3.953775,-0.138509,-6.804665
