t,imu_roll,imu_pitch,imu_yaw,lpf_roll,lpf_pitch,lpf_yaw,gyro_x,gyro_y,gyro_z,acc_x,acc_y,acc_z
1790548332.0496,-0.040202,-0.055360,0.000105,-0.028142,-0.038752,0.000105,0.031862,0.006526,0.000927,0.108991,1.274331,-10.181238
1790548332.0650,-0.053956,-0.054907,0.003220,-0.046212,-0.050060,0.003220,-0.026417,-0.005615,0.002141,0.377287,1.237151,-9.948371
1790548332.0787,-0.058363,-0.057923,0.005950,-0.054717,-0.055564,0.005950,-0.026417,-0.011686,0.003355,0.377287,1.162791,-10.181238
1790548332.0924,-0.057930,-0.056743,0.005283,-0.056966,-0.056390,0.005283,-0.015490,-0.015329,-0.005144,0.262303,1.237151,-9.870749
1790548332.1064,-0.052802,-0.056047,0.004157,-0.054051,-0.056150,0.004157,-0.004563,-0.035969,-0.002715,0.032335,1.274331,-10.142427
1790548332.1205,-0.053650,-0.054075,0.004466,-0.053770,-0.054697,0.004466,-0.074983,-0.089391,0.008212,0.338959,1.311511,-10.103616
1790548332.1347,-0.057576,-0.053260,0.006829,-0.056434,-0.053691,0.006829,-0.159973,-0.079678,0.019139,0.607255,1.237151,-10.569350
1790548332.1494,-0.061597,-0.048570,0.007434,-0.060048,-0.050106,0.007434,-0.230393,-0.082106,0.056778,0.683911,1.423051,-10.142427
1790548332.1636,-0.064940,-0.044828,0.009917,-0.063473,-0.046412,0.009917,-0.240106,-0.120959,0.111414,0.722239,1.348691,-9.793126
1790548332.1775,-0.067150,-0.040771,0.012665,-0.066047,-0.042463,0.012665,-0.227965,-0.111246,0.232828,0.645583,1.423051,-9.637881
1790548332.1916,-0.068681,-0.040578,0.022331,-0.067891,-0.041143,0.022331,-0.136904,-0.188951,0.380953,0.683911,1.162791,-9.405014
1790548332.2055,-0.081929,-0.048437,0.047530,-0.077717,-0.046249,0.047530,-0.004563,0.068447,0.546077,1.833751,0.493551,-10.297672
1790548332.2195,-0.087695,-0.050481,0.061052,-0.084702,-0.049211,0.061052,-0.078625,-0.017757,0.609212,1.182175,0.976891,-10.103616
1790548332.2333,-0.070360,-0.055753,0.102839,-0.074662,-0.053790,0.102839,-0.105337,-0.328577,0.577644,-1.424128,0.456371,-10.220049
1790548332.2473,-0.070558,-0.062782,0.123357,-0.071789,-0.060084,0.123357,-0.072555,0.033237,0.418592,0.300631,0.084571,-10.724595
1790548332.2612,-0.066091,-0.070791,0.148431,-0.067801,-0.067579,0.148431,0.085284,-0.069965,0.413735,-0.274288,0.121751,-11.811308
1790548332.2751,-0.068018,-0.073847,0.153874,-0.067953,-0.071966,0.153874,0.027005,0.033237,0.436804,0.492271,0.642271,-9.831937
1790548332.2892,-0.059727,-0.076986,0.184829,-0.062195,-0.075480,0.184829,0.094997,-0.060252,0.382168,-0.925864,0.679451,-9.133336
1790548332.3028,-0.052704,-0.074739,0.208281,-0.055551,-0.074961,0.208281,-0.138118,-0.059038,0.294749,-0.849208,1.014071,-9.094525
1790548332.3166,-0.051377,-0.072319,0.214477,-0.052629,-0.073112,0.214477,-0.208539,-0.054181,0.248612,0.032335,0.976891,-9.831937
1790548332.3306,-0.048289,-0.068779,0.220205,-0.049591,-0.070079,0.220205,-0.225537,-0.188951,0.190333,0.032335,1.162791,-9.793126
1790548332.3445,-0.049748,-0.065558,0.215079,-0.049701,-0.066914,0.215079,-0.224322,-0.059038,0.125984,0.568927,1.088431,-9.327392
1790548332.3585,-0.046306,-0.057516,0.215043,-0.047325,-0.060335,0.215043,-0.361521,-0.323721,0.095630,0.300631,1.608951,-8.512357
1790548332.3724,-0.044054,-0.052807,0.208648,-0.045035,-0.055065,0.208648,-0.339666,-0.332220,-0.012429,0.645583,1.237151,-9.793126
1790548332.3864,-0.033083,-0.051656,0.205707,-0.036669,-0.052679,0.205707,-0.349379,-0.769311,-0.111988,-0.005993,0.456371,-12.005364
1790548332.4007,-0.033842,-0.058520,0.197939,-0.034690,-0.056768,0.197939,0.034290,0.300348,-0.477445,-1.002520,-0.621849,-15.964105
1790548332.4149,-0.022136,-0.048740,0.203352,-0.025902,-0.051149,0.203352,-0.285030,-0.411139,-0.699633,-1.385800,2.984611,-10.491728
1790548332.4290,-0.018408,-0.037077,0.193896,-0.020656,-0.041299,0.193896,-0.332381,-0.060252,-0.949746,-0.350944,2.761531,-8.046623
1790548332.4430,-0.012319,-0.030344,0.183097,-0.014820,-0.033630,0.183097,-0.223108,0.265138,-1.150080,-1.462456,1.608951,-6.183686
1790548332.4572,0.002186,-0.012959,0.161698,-0.002915,-0.019160,0.161698,-0.351807,-0.249658,-0.887825,-1.960720,3.430771,-5.523895
1790548332.4711,-0.010233,-0.008368,0.152098,-0.008038,-0.011606,0.152098,-0.274102,0.738654,-0.937605,1.258831,2.315371,-11.190329
1790548332.4851,-0.013231,-0.007495,0.129566,-0.011673,-0.008728,0.129566,-0.152688,0.534678,-1.176791,-0.772552,1.720491,-11.850119
1790548332.4991,-0.015524,-0.005660,0.107594,-0.014369,-0.006581,0.107594,-0.225537,0.379268,-1.271494,-0.120976,1.460231,-10.220049
1790548332.5131,-0.019050,-0.004861,0.079293,-0.017646,-0.005377,0.079293,-0.270460,0.354985,-1.278779,0.377287,0.753811,-8.512357
1790548332.5268,-0.017554,-0.003668,0.057670,-0.017582,-0.004181,0.057670,-0.221894,0.102443,-1.201074,-0.120976,1.051251,-8.551168
1790548332.5405,-0.018209,-0.003849,0.034976,-0.018021,-0.003948,0.034976,-0.122335,0.271209,-1.250853,-0.120976,1.088431,-8.978091
1790548332.5545,-0.011206,-0.007477,0.012557,-0.013251,-0.006418,0.012557,0.071928,-0.114888,-1.157365,-1.040848,0.828171,-9.249770
1790548332.5686,-0.009234,-0.008556,-0.005376,-0.010439,-0.007914,-0.005376,-0.037345,-0.038397,-0.902395,0.032335,1.274331,-10.258860
1790548332.5824,0.000481,-0.013137,-0.017429,-0.002795,-0.011570,-0.017429,0.203056,-0.589618,-0.619500,-0.504256,1.348691,-12.354665
1790548332.5963,0.006616,-0.015455,-0.005028,0.003793,-0.014289,-0.005028,0.657145,-0.717103,-0.047639,1.258831,4.694891,-10.491728
1790548332.6103,-0.004593,-0.008059,0.005050,-0.002077,-0.009928,0.005050,-0.189112,0.498254,0.348172,1.565455,4.843611,-13.286133
1790548332.6244,-0.004959,0.000861,0.018944,-0.004094,-0.002376,0.018944,-0.360306,-0.028684,0.724556,-0.925864,4.471811,-13.441378
1790548332.6386,-0.000675,0.002283,0.034250,-0.001701,0.000885,0.034250,-0.071341,-0.440278,1.136150,-0.542584,1.348691,-7.464455
1790548332.6531,-0.009408,0.008220,0.061247,-0.007096,0.006020,0.061247,-0.089553,-0.011686,1.273348,1.297159,2.166651,-5.756762
1790548332.6677,-0.011461,0.016871,0.080444,-0.010152,0.013616,0.080444,-0.217038,-0.154955,1.257564,0.108991,2.761531,-6.338930
1790548332.6820,-0.006088,0.020821,0.099171,-0.007307,0.018659,0.099171,-0.189112,-0.607830,1.392334,-0.580912,2.352551,-9.870749
1790548332.6961,-0.012133,0.024336,0.123068,-0.010685,0.022633,0.123068,-0.337238,0.011383,1.431186,0.722239,1.534591,-11.927742
1790548332.7109,-0.006104,0.024418,0.131027,-0.007478,0.023883,0.131027,-0.285030,-0.543480,1.353481,-1.270816,-0.026969,-10.375294
1790548332.7250,-0.000885,0.021385,0.138013,-0.002863,0.022134,0.138013,-0.099266,-0.502200,1.187144,-1.040848,-0.250049,-9.948371
1790548332.7391,0.004491,0.023202,0.146016,0.002285,0.022882,0.146016,-0.363949,-0.488844,0.981954,-0.925864,0.233291,-9.210958
1790548332.7531,0.009418,0.028524,0.153793,0.007278,0.026831,0.153793,-0.523001,-0.398997,0.776764,-1.079176,0.828171,-8.939280
1790548332.7667,0.014008,0.034722,0.156856,0.011989,0.032355,0.156856,-0.627418,-0.466989,0.525436,-0.350944,0.753811,-8.978091
1790548332.7804,0.013109,0.036829,0.152314,0.012773,0.035487,0.152314,-0.394302,-0.082106,0.225543,0.223975,0.530731,-11.035084
1790548332.7943,0.014572,0.039829,0.164536,0.014032,0.038526,0.164536,0.022148,0.146152,-0.012429,-2.535639,4.397451,-10.841028
1790548332.8082,0.015697,0.046953,0.175057,0.015198,0.044425,0.175057,-0.115050,0.233571,-0.318392,-2.458983,5.624391,-9.793126
1790548332.8222,0.015137,0.050707,0.177351,0.015155,0.048822,0.177351,0.011221,0.308847,-0.447091,-1.884064,4.992331,-10.414105
1790548332.8362,0.016389,0.055789,0.175262,0.016019,0.053699,0.175262,0.045217,0.311276,-0.530867,-2.458983,5.215411,-8.240679
1790548332.8502,0.014748,0.058887,0.179486,0.015129,0.057331,0.179486,0.156918,0.361056,-0.511441,-1.232488,4.657711,-7.813756
1790548332.8642,0.012995,0.057904,0.170728,0.013635,0.057732,0.170728,0.379106,0.478827,-0.618285,-1.692424,4.174371,-7.658511
1790548332.8781,0.012315,0.054530,0.157979,0.012711,0.055491,0.157979,0.635290,0.459401,-0.614643,-1.615768,3.653851,-5.717951
1790548332.8921,0.004379,0.048410,0.161158,0.006878,0.050534,0.161158,0.787058,0.828500,-0.710560,-0.810880,3.616671,-6.300119
1790548332.9066,0.008996,0.045927,0.170734,0.008361,0.047309,0.170734,0.249193,-0.287296,-0.666851,0.607255,5.475671,-18.137532
1790548332.9206,0.010265,0.049531,0.167854,0.009694,0.048864,0.167854,-0.377304,-0.069965,-1.099086,2.140375,2.612811,-16.274595
1790548332.9346,0.007097,0.059545,0.160294,0.007876,0.056340,0.160294,-0.828965,0.320989,-1.148866,1.105519,1.980751,-10.879840
1790548332.9486,0.003919,0.068854,0.101794,0.005106,0.065100,0.101794,-0.610420,0.826072,-0.824690,-1.922392,2.129471,-5.717951
1790548332.9625,-0.016854,0.075837,0.087397,-0.010266,0.072616,0.087397,-0.583709,1.657759,-0.686277,0.223975,1.423051,-6.727042
1790548332.9765,-0.024990,0.079760,0.048027,-0.020572,0.077617,0.048027,-0.502361,0.868567,-0.561221,-0.734224,0.902531,-9.055714
1790548332.9901,-0.028114,0.080518,0.017813,-0.025852,0.079648,0.017813,-0.411300,0.244498,-0.434950,1.373815,-0.287229,-14.062357
1790548333.0036,-0.030056,0.084247,0.012366,-0.028794,0.082867,0.012366,-0.376090,0.124298,-0.528439,1.642111,2.203831,-12.238231
1790548333.0176,-0.030353,0.085406,0.017512,-0.029885,0.084644,0.017512,-0.145403,-0.134314,-0.314750,2.217030,2.241011,-10.802217
1790548333.0315,-0.032931,0.084158,0.030628,-0.032017,0.084304,0.030628,0.114423,-0.035969,-0.062208,1.565455,2.092291,-7.309210
1790548333.0454,-0.030800,0.078681,0.051049,-0.031165,0.080368,0.051049,0.506591,-0.439064,0.203689,1.603783,2.947431,-7.969000
1790548333.0595,-0.030698,0.067164,0.078690,-0.030838,0.071125,0.078690,1.085737,-0.466989,0.453802,2.600310,4.100011,-7.658511
1790548333.0735,-0.034460,0.058111,0.090412,-0.033374,0.062015,0.090412,0.960680,-0.008044,0.397951,1.565455,4.769251,-8.124245
1790548333.0875,-0.031092,0.044717,0.101061,-0.031777,0.049906,0.101061,1.229006,-0.481559,0.609212,0.875551,4.843611,-9.366203
1790548333.1013,-0.024597,0.030586,0.118377,-0.026751,0.036382,0.118377,1.218078,-0.746242,0.711200,1.028863,4.471811,-10.996273
1790548333.1153,-0.036141,0.024480,0.144334,-0.033324,0.028051,0.144334,0.476238,0.480041,0.833828,2.638638,3.802571,-15.459560
1790548333.1291,-0.034926,0.024005,0.130517,-0.034445,0.025218,0.130517,0.040361,-0.078464,1.053588,-2.573967,3.021791,-14.023546
1790548333.1433,-0.023437,0.024742,0.125581,-0.026739,0.024885,0.125581,-0.067698,-0.874941,1.246637,-2.075704,2.092291,-10.996273
1790548333.1579,-0.023015,0.016398,0.126891,-0.024132,0.018944,0.126891,0.173916,-0.201092,1.116724,-0.350944,-1.514168,-6.610609
1790548333.1724,-0.007680,0.012273,0.095780,-0.012615,0.014274,0.095780,0.171488,-0.769311,0.837471,-2.765607,0.344831,-5.407462
1790548333.1866,-0.003416,0.012041,0.095746,-0.006176,0.012711,0.095746,-0.111407,-0.338290,0.504796,-0.964192,0.567911,-11.073895
1790548333.2006,0.000319,0.012749,0.088298,-0.001630,0.012738,0.088298,-0.325096,-0.185308,0.146624,-1.539112,-0.993649,-11.112707
1790548333.2142,0.005872,0.012690,0.081087,0.003621,0.012705,0.081087,-0.244963,-0.320078,-0.017285,-1.539112,-0.659029,-12.509909
1790548333.2279,0.008997,0.012968,0.075446,0.007384,0.012889,0.075446,-0.210967,-0.209591,-0.154483,-0.312616,0.084571,-9.831937
1790548333.2415,0.013026,0.013129,0.066446,0.011333,0.013057,0.066446,-0.168472,-0.202306,-0.381528,-0.542584,0.419191,-8.163056
1790548333.2555,0.016193,0.013533,0.057161,0.014735,0.013390,0.057161,-0.196397,-0.176809,-0.532081,0.032335,0.382011,-8.706413
1790548333.2694,0.013856,0.007725,0.044625,0.014120,0.009424,0.044625,0.176344,0.294278,-0.674136,-0.427600,-0.324409,-11.500819
1790548333.2832,0.010701,-0.001437,0.046905,0.011727,0.001821,0.046905,0.738492,0.517680,-0.538152,-2.880591,3.356411,-11.656063
1790548333.2972,0.009535,0.003302,0.072329,0.010193,0.002858,0.072329,-0.010633,0.340415,-0.653496,-1.692424,4.620531,-7.503266
1790548333.3112,0.009201,0.001283,0.071672,0.009499,0.001755,0.071672,0.301401,0.319775,-0.710560,-1.922392,3.207691,-8.085434
1790548333.3252,0.006762,-0.001966,0.079677,0.007583,-0.000850,0.079677,0.502949,0.403550,-0.778552,-1.079176,3.691031,-6.843476
1790548333.3393,0.006754,-0.005241,0.085967,0.007003,-0.003923,0.085967,0.543015,0.216573,-0.920607,-0.925864,4.434631,-7.348021
1790548333.3533,0.015142,-0.006349,0.066327,0.012701,-0.005622,0.066327,0.031862,-0.341933,-1.152508,-1.577440,2.426911,-13.907112
1790548333.3673,0.021731,-0.004016,0.047610,0.019022,-0.004498,0.047610,-0.302028,-0.322506,-1.542248,1.028863,1.571771,-14.760958
1790548333.3813,0.022907,0.003691,0.047850,0.021741,0.001234,0.047850,-0.429512,0.023524,-1.372268,0.683911,3.133331,-7.697322
1790548333.3952,0.009298,0.007154,0.028683,0.013031,0.005378,0.028683,-0.394302,1.115038,-1.264209,0.530599,0.642271,-6.416553
1790548333.4096,-0.002391,0.007086,0.008294,0.002235,0.006574,0.008294,-0.181827,0.860068,-1.103942,1.335487,0.158931,-7.658511
1790548333.4236,-0.011079,0.012042,-0.011242,-0.007085,0.010401,-0.011242,-0.503575,0.732583,-1.097872,1.028863,0.567911,-10.025993
1790548333.4376,-0.021536,0.017894,-0.031077,-0.017201,0.015646,-0.031077,-0.589779,0.803003,-1.006811,1.872079,0.233291,-11.073895
1790548333.4512,-0.029736,0.024581,-0.049780,-0.025975,0.021901,-0.049780,-0.675983,0.664591,-0.834403,1.335487,0.010211,-10.297672
1790548333.4649,-0.025972,0.025505,-0.063623,-0.025973,0.024424,-0.063623,-0.254676,-0.203521,-0.587932,0.492271,-0.026969,-11.267951
1790548333.4788,-0.022336,0.025086,-0.068523,-0.023427,0.024887,-0.068523,0.000294,-0.254515,-0.414310,0.722239,1.683311,-9.676693
1790548333.4927,-0.015980,0.021729,-0.067692,-0.018214,0.022676,-0.067692,0.292902,-0.526482,-0.182408,0.837223,2.278191,-8.551168
1790548333.5065,-0.014650,0.016621,-0.062471,-0.015719,0.018438,-0.062471,0.560013,-0.322506,0.153909,1.872079,3.653851,-8.240679
1790548333.5205,-0.011612,0.008184,-0.055139,-0.012844,0.011260,-0.055139,0.810127,-0.430565,0.371240,1.450471,4.211551,-9.327392
1790548333.5345,-0.009014,-0.002089,-0.046021,-0.010163,0.001916,-0.046021,0.977678,-0.443921,0.587358,1.488799,4.248731,-8.628791
1790548333.5484,-0.011352,-0.010503,-0.037116,-0.010995,-0.006778,-0.037116,0.869620,-0.089391,0.753695,1.220503,4.062831,-8.046623
1790548333.5623,-0.017528,-0.013243,-0.032790,-0.015569,-0.011303,-0.032790,0.227338,0.397480,1.003808,-2.458983,3.096151,-16.740329
1790548333.5763,-0.010939,-0.012209,-0.024993,-0.012328,-0.011938,-0.024993,-0.078625,-0.528911,1.315843,-2.688951,1.646131,-12.277042
1790548333.5902,-0.005757,-0.008904,-0.017626,-0.007728,-0.009814,-0.017626,-0.243749,-0.414781,1.393548,-2.037376,0.976891,-7.697322
1790548333.6041,0.000978,-0.007103,-0.012680,-0.001634,-0.007916,-0.012680,-0.286244,-0.454848,1.269705,-2.382327,-0.510309,-6.843476
1790548333.6179,0.007453,-0.002561,-0.006720,0.004727,-0.004168,-0.006720,-0.401587,-0.443921,1.012307,-1.884064,0.270471,-6.377742
1790548333.6318,0.005753,0.001007,0.000303,0.005445,-0.000545,0.000303,-0.288672,0.021096,0.700273,-0.504256,0.865351,-7.891378
1790548333.6460,0.012095,0.000755,0.005087,0.010100,0.000365,0.005087,-0.116264,-0.520412,0.542434,-1.079176,-0.250049,-12.936833
1790548333.6609,0.012473,0.003512,0.008068,0.011761,0.002568,0.008068,-0.294743,-0.099104,0.355456,-0.389272,0.196111,-12.238231
1790548333.6759,0.018051,0.008614,0.006918,0.016164,0.006800,0.006918,-0.451367,-0.305509,0.090774,-1.692424,0.270471,-10.181238
1790548333.6902,0.026485,0.013035,0.002489,0.023389,0.011164,0.002489,-0.423442,-0.520412,-0.190907,-0.887536,0.419191,-7.697322
1790548333.7046,0.030522,0.017880,0.001593,0.028382,0.015865,0.001593,-0.385803,-0.369858,-0.244330,0.875551,1.162791,-8.007811
1790548333.7196,0.029368,0.018185,-0.005763,0.029072,0.017489,-0.005763,-0.193969,0.089088,-0.400954,0.415615,-0.064149,-12.509909
1790548333.7337,0.024338,0.012221,-0.016904,0.025758,0.013802,-0.016904,0.298973,0.460615,-0.601287,-0.389272,1.162791,-14.139979
1790548333.7475,0.024761,0.012763,-0.009928,0.025060,0.013074,-0.009928,0.105924,0.282136,-0.649853,-2.727279,3.802571,-8.395923
1790548333.7615,0.019467,0.011189,-0.012735,0.021145,0.011755,-0.012735,0.216411,0.588100,-0.677778,-1.385800,3.505131,-8.900469
1790548333.7756,0.015707,0.007923,-0.014558,0.017338,0.009073,-0.014558,0.381534,0.549248,-0.812548,-1.845736,3.765391,-8.085434
1790548333.7896,0.011078,0.003280,-0.013706,0.012956,0.005018,-0.013706,0.551514,0.575959,-0.844116,-1.155832,3.765391,-6.571797
1790548333.8036,0.012024,-0.008046,-0.019567,0.012303,-0.004127,-0.019567,0.961894,0.194718,-0.802835,-1.960720,3.914111,-8.861658
1790548333.8176,0.015659,-0.011380,-0.028709,0.014652,-0.009204,-0.028709,0.271048,-0.101533,-1.114870,-0.197632,3.542311,-12.859210
1790548333.8315,0.019713,-0.008589,-0.042080,0.018195,-0.008774,-0.042080,-0.260747,-0.170739,-1.340700,1.067191,2.278191,-13.130889
1790548333.8454,0.019498,-0.006326,-0.058262,0.019107,-0.007060,-0.058262,-0.251034,0.163150,-1.307918,0.453943,1.311511,-9.055714
1790548333.8594,0.008180,0.000213,-0.064043,0.011458,-0.001969,-0.064043,-0.370020,0.851569,-1.153722,0.990535,2.017931,-4.980539
1790548333.8733,0.000089,0.005224,-0.081417,0.003499,0.003066,-0.081417,-0.507218,0.693730,-0.987385,0.683911,0.382011,-9.870749
1790548333.8872,-0.005019,0.010031,-0.099339,-0.002463,0.007942,-0.099339,-0.480506,0.523751,-1.015310,0.300631,0.530731,-9.676693
1790548333.9015,-0.010760,0.015289,-0.115725,-0.008271,0.013085,-0.115725,-0.509646,0.497039,-0.881754,1.028863,0.344831,-11.112707
1790548333.9156,-0.016698,0.021375,-0.128645,-0.014170,0.018888,-0.128645,-0.559426,0.488540,-0.659566,0.837223,0.456371,-10.064805
1790548333.9294,-0.016281,0.024049,-0.138588,-0.015648,0.022501,-0.138588,-0.351807,0.033237,-0.374243,0.032335,0.010211,-12.277042
1790548333.9434,-0.012130,0.022406,-0.143484,-0.013185,0.022434,-0.143484,0.012435,-0.284868,-0.230974,0.262303,0.790991,-12.393476
1790548333.9574,-0.008533,0.020287,-0.140990,-0.009929,0.020931,-0.140990,0.237052,-0.358931,0.009426,0.952207,2.835891,-8.784035
1790548333.9714,-0.005366,0.015848,-0.134546,-0.006735,0.017373,-0.134546,0.424029,-0.403854,0.292321,1.297159,3.244871,-9.521448
1790548333.9853,-0.002863,0.009952,-0.126404,-0.004025,0.012178,-0.126404,0.637718,-0.412353,0.514509,1.412143,4.285911,-8.706413
1790548333.9992,0.001272,0.001429,-0.115812,-0.000317,0.004654,-0.115812,0.828339,-0.538624,0.696630,1.143847,4.285911,-8.900469
1790548334.0131,0.001096,-0.007766,-0.108633,0.000672,-0.004040,-0.108633,0.994676,-0.221733,0.904249,0.683911,4.955151,-7.386832
1790548334.0269,-0.013378,-0.010228,-0.089890,-0.009163,-0.008371,-0.089890,0.256478,0.756866,1.104582,2.293686,4.137191,-16.623896
1790548334.0408,-0.006734,-0.009659,-0.083341,-0.007463,-0.009273,-0.083341,0.008793,-0.538624,1.371693,-3.455511,2.538451,-12.703965
1790548334.0548,-0.006772,-0.013019,-0.060645,-0.006979,-0.011895,-0.060645,0.198199,-0.247230,1.678871,-0.580912,0.419191,-8.279490
1790548334.0687,-0.006333,-0.012202,-0.039889,-0.006527,-0.012110,-0.039889,-0.125977,-0.244801,1.607237,-0.887536,0.158931,-8.706413
1790548334.0827,0.000480,-0.010542,-0.037164,-0.001622,-0.011012,-0.037164,-0.235250,-0.361359,1.298845,-2.842263,-0.361589,-4.864105
1790548334.0965,0.001864,-0.009313,-0.028429,0.000819,-0.009823,-0.028429,-0.149046,-0.159811,0.910319,-1.539112,0.419191,-9.327392
1790548334.1105,0.004677,-0.009750,-0.019623,0.003519,-0.009772,-0.019623,-0.066484,-0.321292,0.673562,-0.389272,-0.026969,-11.850119
1790548334.1244,0.003112,-0.007738,-0.014302,0.003234,-0.008348,-0.014302,-0.243749,0.025952,0.458659,-0.235960,0.121751,-11.384385
1790548334.1381,0.007852,-0.004958,-0.013255,0.006467,-0.005975,-0.013255,-0.302028,-0.305509,0.164836,-1.500784,0.270471,-10.685784
1790548334.1520,0.015275,-0.000163,-0.015594,0.012632,-0.001907,-0.015594,-0.418585,-0.460919,-0.142342,-1.079176,0.679451,-8.745224
1790548334.1667,0.021283,0.003576,-0.020281,0.018688,0.001931,-0.020281,-0.342094,-0.426923,-0.368172,0.607255,0.679451,-9.405014
1790548334.1808,0.023899,0.006552,-0.027435,0.022335,0.005166,-0.027435,-0.311741,-0.197450,-0.560007,1.067191,0.828171,-10.181238
1790548334.1948,0.023045,0.004032,-0.038719,0.022832,0.004372,-0.038719,0.092569,0.246926,-0.772482,-1.500784,1.608951,-13.324944
1790548334.2088,0.021369,0.004165,-0.043120,0.021808,0.004227,-0.043120,0.131421,0.316132,-0.739700,-1.385800,4.471811,-9.366203
1790548334.2227,0.016584,0.005752,-0.046783,0.018151,0.005294,-0.046783,0.070714,0.515252,-0.727558,-0.849208,4.508991,-8.085434
1790548334.2367,0.010198,0.002414,-0.055995,0.012584,0.003278,-0.055995,0.364536,0.659734,-0.834403,-0.887536,3.653851,-8.163056
1790548334.2507,0.006209,-0.002775,-0.065911,0.008121,-0.000959,-0.065911,0.557585,0.578387,-0.822261,-1.807408,3.616671,-6.494175
1790548334.2647,0.009655,-0.005365,-0.073152,0.009195,-0.004043,-0.073152,0.428886,0.024738,-0.967958,-1.807408,5.178231,-7.697322
1790548334.2785,0.017246,-0.006505,-0.086027,0.014831,-0.005767,-0.086027,0.068286,-0.367430,-1.242355,-0.159304,3.096151,-13.557812
1790548334.2926,0.022967,-0.002474,-0.094879,0.020526,-0.003462,-0.094879,-0.282601,-0.280012,-1.337058,1.182175,3.728211,-13.247322
1790548334.3066,0.019739,-0.001584,-0.104069,0.019976,-0.002147,-0.104069,-0.136904,0.307633,-1.256924,1.795423,1.869211,-10.996273
1790548334.3205,0.010497,0.002885,-0.114496,0.013340,0.001376,-0.114496,-0.418585,0.744724,-1.006811,0.990535,0.976891,-8.395923
1790548334.3345,-0.000866,0.006372,-0.123979,0.003396,0.004873,-0.123979,-0.368805,0.851569,-0.853829,1.373815,0.530731,-8.551168
1790548334.3485,-0.008166,0.008806,-0.138503,-0.004697,0.007626,-0.138503,-0.336024,0.640308,-0.890253,0.645583,-0.138509,-10.646972
1790548334.3624,-0.014442,0.012742,-0.148754,-0.011519,0.011207,-0.148754,-0.405230,0.511609,-0.770053,1.220503,0.382011,-10.025993
1790548334.3760,-0.017911,0.015340,-0.156393,-0.015994,0.014101,-0.156393,-0.343308,0.266352,-0.543009,1.258831,-0.138509,-9.870749
1790548334.3896,-0.015062,0.013632,-0.162843,-0.015341,0.013773,-0.162843,-0.045844,-0.136743,-0.317178,-0.389272,-0.547489,-11.112707
1790548334.4036,-0.010202,0.009705,-0.163720,-0.011744,0.010925,-0.163720,0.245551,-0.352860,-0.170267,0.262303,1.385871,-9.831937
1790548334.4184,-0.003024,0.005267,-0.162713,-0.005640,0.006965,-0.162713,0.351181,-0.554408,-0.017285,0.607255,2.352551,-8.939280
1790548334.4324,0.000103,0.001730,-0.162469,-0.001620,0.003300,-0.162469,0.396104,-0.384428,0.202475,1.527127,3.839751,-9.482637
1790548334.4465,0.005575,-0.003086,-0.159064,0.003417,-0.001170,-0.159064,0.516304,-0.548337,0.472014,0.645583,3.728211,-8.628791
1790548334.4604,0.006249,-0.009927,-0.154040,0.005399,-0.007300,-0.154040,0.664430,-0.193807,0.673562,0.070663,3.616671,-8.939280
1790548334.4744,-0.001005,-0.009764,-0.142028,0.000916,-0.009025,-0.142028,0.062215,0.335559,0.928532,0.223975,3.467951,-14.450469
1790548334.4884,0.005392,-0.004461,-0.132121,0.004049,-0.005830,-0.132121,-0.332381,-0.542266,1.138578,-2.918919,2.538451,-13.519000
1790548334.5024,0.009151,-0.003716,-0.114728,0.007620,-0.004350,-0.114728,-0.021561,-0.449991,1.389906,-1.194160,1.199971,-8.551168
1790548334.5164,0.007453,-0.003371,-0.090441,0.007503,-0.003665,-0.090441,-0.127191,-0.171953,1.388691,0.223975,-0.435949,-7.076343
1790548334.5305,0.001141,-0.004715,-0.070570,0.003050,-0.004400,-0.070570,0.077999,0.192290,1.285489,0.147319,0.567911,-6.882287
1790548334.5444,0.006852,-0.005136,-0.059361,0.005712,-0.004915,-0.059361,0.012435,-0.452420,1.049946,-2.267343,0.753811,-8.628791
1790548334.5585,0.010727,-0.002769,-0.047067,0.009222,-0.003413,-0.047067,-0.224322,-0.397783,0.769479,-0.810880,0.493551,-11.772497
1790548334.5725,0.012500,-0.000972,-0.039210,0.011517,-0.001704,-0.039210,-0.251034,-0.180452,0.497511,-1.079176,-0.473129,-10.996273
1790548334.5864,0.015305,-0.000395,-0.034306,0.014168,-0.000788,-0.034306,-0.156331,-0.214448,0.287465,-1.040848,-0.175689,-9.715504
1790548334.6001,0.020049,0.003828,-0.032675,0.018285,0.002443,-0.032675,-0.388232,-0.371072,0.022782,-0.312616,0.605091,-10.103616
1790548334.6138,0.022657,0.008971,-0.035149,0.021345,0.007013,-0.035149,-0.444082,-0.231446,-0.203049,0.530599,0.939711,-9.405014
1790548334.6278,0.028966,0.014378,-0.038441,0.026680,0.012169,-0.038441,-0.461080,-0.480345,-0.303823,0.530599,0.865351,-8.861658
1790548334.6417,0.028179,0.015928,-0.046892,0.027729,0.014800,-0.046892,-0.175757,0.113371,-0.566077,0.300631,1.943571,-12.975644
1790548334.6558,0.026021,0.015755,-0.060190,0.026534,0.015468,-0.060190,0.076785,0.356199,-0.721488,-1.654096,4.062831,-10.724595
1790548334.6704,0.020024,0.016326,-0.077165,0.021977,0.016069,-0.077165,0.126565,0.584458,-0.670494,-1.040848,5.178231,-8.861658
1790548334.6844,0.012943,0.014008,-0.092049,0.015653,0.014626,-0.092049,0.298973,0.710728,-0.665637,-1.270816,3.988471,-8.124245
1790548334.6983,0.005189,0.010372,-0.106605,0.008328,0.011648,-0.106605,0.422815,0.741082,-0.697205,-0.849208,4.137191,-7.736133
1790548334.7124,-0.000083,0.002759,-0.123494,0.002441,0.005426,-0.123494,0.714209,0.669448,-0.661995,-2.114032,3.579491,-6.571797
1790548334.7265,-0.004288,-0.009515,-0.136249,-0.002269,-0.005032,-0.136249,1.049313,0.528607,-0.677778,-1.845736,4.583351,-8.589979
1790548334.7405,0.001687,-0.011376,-0.150258,0.000500,-0.009473,-0.150258,0.137492,-0.242373,-0.986171,-1.040848,3.319231,-15.110259
1790548334.7545,0.002385,-0.005026,-0.158946,0.001820,-0.006360,-0.158946,-0.533929,0.033237,-1.198645,2.063719,1.534591,-13.790679
1790548334.7683,0.001493,-0.000022,-0.171998,0.001591,-0.001923,-0.171998,-0.414943,0.216573,-1.111227,0.262303,1.125611,-7.309210
1790548334.7823,-0.010932,0.007130,-0.186852,-0.007175,0.004414,-0.186852,-0.521787,1.060401,-1.027451,0.185647,1.460231,-6.571797
1790548334.7963,-0.021816,0.011707,-0.195391,-0.017423,0.009519,-0.195391,-0.448939,0.861282,-0.794336,1.143847,0.233291,-10.142427
1790548334.8102,-0.031477,0.019986,-0.202403,-0.027261,0.016846,-0.202403,-0.675983,0.747153,-0.814976,1.948735,0.865351,-10.569350
1790548334.8239,-0.040092,0.025051,-0.210214,-0.036243,0.022590,-0.210214,-0.495076,0.716799,-0.753055,1.565455,0.121751,-12.121798
1790548334.8374,-0.040299,0.029562,-0.215209,-0.039082,0.027470,-0.215209,-0.481721,0.100015,-0.515083,0.492271,-0.250049,-11.384385
1790548334.8511,-0.037413,0.030967,-0.218157,-0.037914,0.029918,-0.218157,-0.178185,-0.164668,-0.385170,0.568927,1.014071,-11.035084
1790548334.8650,-0.030300,0.030986,-0.220248,-0.032584,0.030665,-0.220248,0.014864,-0.498557,-0.279540,0.568927,2.315371,-9.715504
1790548334.8789,-0.025864,0.028479,-0.222762,-0.027880,0.029135,-0.222762,0.329326,-0.412353,0.006998,1.028863,3.579491,-7.697322
1790548334.8930,-0.024451,0.022558,-0.221787,-0.025479,0.024531,-0.221787,0.562442,-0.258157,0.207331,1.680439,4.062831,-8.861658
1790548334.9072,-0.020136,0.010695,-0.217022,-0.021739,0.014846,-0.217022,0.963108,-0.469418,0.433162,1.105519,3.876931,-9.560259
1790548334.9217,-0.014988,-0.001226,-0.210773,-0.017013,0.003595,-0.210773,1.001961,-0.571406,0.589786,1.412143,4.174371,-8.706413
1790548334.9359,-0.021460,-0.008043,-0.201023,-0.020126,-0.004551,-0.201023,0.609793,0.223857,0.716057,2.140375,4.471811,-11.733686
1790548334.9498,-0.024362,-0.006315,-0.195776,-0.023091,-0.005786,-0.195776,-0.078625,0.123084,0.850826,-1.577440,3.914111,-16.740329
1790548334.9637,-0.013569,-0.005615,-0.185941,-0.016426,-0.005667,-0.185941,-0.017918,-0.878584,1.207784,-1.730752,1.720491,-8.667602
1790548334.9776,-0.013509,-0.008623,-0.161614,-0.014384,-0.007736,-0.161614,0.120494,-0.233874,1.218712,0.032335,-0.064149,-6.610609
1790548334.9916,-0.022100,-0.008869,-0.147612,-0.019785,-0.008529,-0.147612,-0.047058,0.498254,1.081513,-0.657568,0.307651,-6.338930
1790548335.0056,-0.017686,-0.009267,-0.140630,-0.018316,-0.009046,-0.140630,0.010007,-0.334648,0.828972,-1.730752,1.014071,-8.163056
1790548335.0196,-0.013545,-0.008519,-0.131040,-0.014976,-0.008677,-0.131040,-0.133262,-0.348003,0.554576,-0.925864,0.307651,-10.142427
1790548335.0334,-0.008776,-0.008326,-0.124565,-0.010636,-0.008431,-0.124565,-0.159973,-0.306723,0.302034,-2.305671,-0.956469,-13.480189
1790548335.0473,-0.005960,-0.005729,-0.122655,-0.007363,-0.006540,-0.122655,-0.298385,-0.124601,0.101701,-1.884064,-0.101329,-10.569350
1790548335.0609,-0.000316,-0.002531,-0.124313,-0.002430,-0.003734,-0.124313,-0.321454,-0.293367,-0.133843,-1.807408,0.419191,-9.560259
1790548335.0745,0.004007,0.000025,-0.127003,0.002076,-0.001103,-0.127003,-0.302028,-0.256943,-0.332962,-0.389272,0.158931,-8.822846
1790548335.0884,0.006510,0.002081,-0.130712,0.005180,0.001126,-0.130712,-0.249819,-0.171953,-0.422809,0.530599,0.344831,-8.124245
1790548335.1025,0.007255,0.002811,-0.136767,0.006632,0.002305,-0.136767,-0.156331,0.012597,-0.535724,0.108991,0.456371,-9.443825
1790548335.1165,0.002822,-0.001639,-0.146479,0.003965,-0.000456,-0.146479,0.218839,0.444831,-0.709346,-0.312616,0.828171,-12.742777
1790548335.1303,0.000209,-0.000181,-0.159566,0.001336,-0.000263,-0.159566,0.097425,0.390195,-0.653496,-1.500784,4.917971,-8.163056
1790548335.1445,-0.003460,-0.001641,-0.172159,-0.002021,-0.001228,-0.172159,0.240694,0.475185,-0.668065,-1.539112,3.728211,-7.969000
1790548335.1587,-0.008348,-0.005906,-0.184706,-0.006450,-0.004502,-0.184706,0.476238,0.543177,-0.731201,-0.925864,3.542311,-6.610609
1790548335.1729,-0.010670,-0.011091,-0.196690,-0.009404,-0.009114,-0.196690,0.619506,0.365912,-0.853829,-0.925864,5.066691,-6.998721
1790548335.1873,-0.003325,-0.014098,-0.212477,-0.005149,-0.012603,-0.212477,0.212769,-0.295795,-0.907251,-1.309144,1.943571,-9.366203
1790548335.2017,0.002842,-0.010783,-0.225011,0.000445,-0.011329,-0.225011,-0.240106,-0.293367,-1.226571,0.990535,3.244871,-15.110259
1790548335.2158,0.006204,-0.008443,-0.238089,0.004476,-0.009309,-0.238089,-0.202468,-0.094248,-1.201074,0.607255,2.017931,-11.267951
1790548335.2299,-0.003808,-0.004313,-0.251734,-0.001323,-0.005812,-0.251734,-0.336024,0.849141,-1.174363,0.798895,1.460231,-8.201867
1790548335.2439,-0.013812,0.000879,-0.258752,-0.010065,-0.001128,-0.258752,-0.470793,0.749581,-0.938819,1.527127,0.419191,-7.309210
1790548335.2578,-0.025813,0.005943,-0.267436,-0.021089,0.003822,-0.267436,-0.489005,0.925632,-0.882968,1.680439,0.047391,-9.676693
1790548335.2717,-0.032925,0.010984,-0.280360,-0.029374,0.008835,-0.280360,-0.489005,0.687660,-0.885397,-0.005993,-0.138509,-10.879840
1790548335.2854,-0.037797,0.015911,-0.289298,-0.035270,0.013788,-0.289298,-0.453795,0.465472,-0.744556,0.837223,0.530731,-11.384385
1790548335.2990,-0.037077,0.016936,-0.295394,-0.036535,0.015992,-0.295394,-0.198825,0.047807,-0.544223,0.147319,-0.026969,-9.521448
1790548335.3126,-0.031155,0.015981,-0.298993,-0.032769,0.015984,-0.298993,-0.032488,-0.345575,-0.393669,-0.350944,0.382011,-11.500819
1790548335.3265,-0.024091,0.014214,-0.302323,-0.026694,0.014745,-0.302323,0.161775,-0.473060,-0.286825,0.108991,2.426911,-9.560259
1790548335.3405,-0.017858,0.009843,-0.302773,-0.020509,0.011313,-0.302773,0.383963,-0.531339,-0.025784,1.143847,2.873071,-9.210958
1790548335.3545,-0.013065,0.004051,-0.302622,-0.015298,0.006230,-0.302622,0.543015,-0.475488,0.186691,1.258831,3.653851,-9.094525
1790548335.3683,-0.007429,-0.004486,-0.298941,-0.009790,-0.001272,-0.298941,0.763989,-0.587189,0.438018,1.258831,3.765391,-9.172147
1790548335.3823,-0.001560,-0.014635,-0.295105,-0.004029,-0.010626,-0.295105,0.923042,-0.600545,0.635923,0.760567,4.100011,-8.551168
1790548335.3962,-0.008402,-0.018409,-0.283840,-0.007090,-0.016074,-0.283840,0.337825,0.311276,0.872681,0.760567,3.802571,-16.002917
1790548335.4102,-0.005030,-0.013333,-0.274613,-0.005648,-0.014155,-0.274613,-0.325096,-0.317650,1.012307,-2.497311,2.687171,-14.256413
1790548335.4242,0.004798,-0.010292,-0.256783,0.001664,-0.011451,-0.256783,-0.198825,-0.860371,1.300059,-1.194160,1.051251,-8.357112
1790548335.4387,0.005492,-0.009129,-0.233959,0.004344,-0.009825,-0.233959,-0.147832,-0.243587,1.372908,-0.695896,-0.175689,-6.765853
1790548335.4528,-0.000001,-0.009464,-0.212306,0.001303,-0.009573,-0.212306,-0.083482,0.157080,1.114295,0.223975,-0.324409,-5.213406
1790548335.4668,0.006793,-0.006869,-0.202972,0.005146,-0.007680,-0.202972,-0.140547,-0.514341,0.883608,-1.654096,1.274331,-6.610609
1790548335.4807,0.009231,-0.003968,-0.191193,0.008006,-0.005082,-0.191193,-0.292314,-0.276369,0.627424,-0.734224,0.010211,-12.393476
1790548335.4948,0.011296,-0.000236,-0.182041,0.010309,-0.001690,-0.182041,-0.382161,-0.188951,0.450160,-1.462456,-0.584669,-13.674245
1790548335.5086,0.017207,0.002774,-0.174641,0.015137,0.001435,-0.174641,-0.333595,-0.415995,0.336030,-1.845736,-0.398769,-10.724595
1790548335.5225,0.022540,0.007017,-0.171244,0.020320,0.005343,-0.171244,-0.430727,-0.346789,0.070133,-1.424128,-0.250049,-9.870749
1790548335.5369,0.028761,0.012139,-0.172341,0.026228,0.010100,-0.172341,-0.434369,-0.411139,-0.193336,-0.389272,0.605091,-8.512357
1790548335.5508,0.030996,0.012520,-0.177067,0.029566,0.011794,-0.177067,-0.170900,-0.133100,-0.365744,0.032335,-0.064149,-8.745224
1790548335.5648,0.030611,0.010883,-0.182753,0.030297,0.011157,-0.182753,0.148419,0.193504,-0.433736,-2.190688,3.207691,-10.879840
1790548335.5788,0.025064,0.012622,-0.192952,0.026634,0.012182,-0.192952,-0.048272,0.597813,-0.592788,-2.152360,4.360271,-10.841028
1790548335.5926,0.022021,0.011831,-0.204443,0.023405,0.011936,-0.204443,0.167845,0.449688,-0.681421,-2.037376,4.248731,-9.055714
1790548335.6066,0.019617,0.009079,-0.217138,0.020754,0.009936,-0.217138,0.315971,0.408407,-0.774910,-1.615768,3.802571,-7.774944
1790548335.6210,0.014906,0.002890,-0.230607,0.016660,0.005004,-0.230607,0.555157,0.541963,-0.810120,-1.155832,3.653851,-7.192776
1790548335.6351,0.009187,-0.006374,-0.243839,0.011429,-0.002960,-0.243839,0.799199,0.624524,-0.791908,-1.155832,3.393591,-6.649420
1790548335.6494,0.000259,-0.021864,-0.249478,0.003610,-0.016193,-0.249478,1.190153,0.663377,-0.590360,0.913879,4.211551,-10.841028
1790548335.6637,0.007648,-0.023305,-0.263049,0.006436,-0.021171,-0.263049,0.097425,-0.371072,-1.123369,-0.044320,3.616671,-17.012007
1790548335.6780,0.002002,-0.018424,-0.279474,0.003332,-0.019248,-0.279474,-0.452581,0.497039,-1.324916,1.833751,0.679451,-12.121798
1790548335.6921,0.004475,-0.012152,-0.297821,0.004132,-0.014281,-0.297821,-0.446510,0.053878,-1.220500,-0.580912,1.571771,-6.610609
1790548335.7060,-0.008692,-0.005620,-0.312357,-0.004845,-0.008218,-0.312357,-0.552141,1.074971,-0.993455,0.338959,0.493551,-5.252217
1790548335.7201,-0.018330,-0.001255,-0.325529,-0.014284,-0.003344,-0.325529,-0.416157,0.801789,-0.839259,0.530599,0.307651,-10.025993
1790548335.7341,-0.026094,0.004676,-0.336764,-0.022551,0.002270,-0.336764,-0.530286,0.629381,-0.770053,1.373815,0.233291,-12.238231
1790548335.7486,-0.033228,0.011080,-0.347026,-0.030025,0.008437,-0.347026,-0.552141,0.554104,-0.671708,1.565455,0.084571,-12.432287
1790548335.7634,-0.035719,0.016818,-0.351944,-0.034011,0.014304,-0.351944,-0.503575,0.170435,-0.342675,1.373815,-0.064149,-11.462007
1790548335.7780,-0.031855,0.016412,-0.353381,-0.032502,0.015779,-0.353381,-0.062842,-0.265442,-0.201835,0.645583,0.456371,-11.035084
1790548335.7921,-0.022705,0.015053,-0.352738,-0.025644,0.015271,-0.352738,0.122922,-0.660038,-0.045210,0.070663,1.869211,-7.736133
1790548335.8072,-0.022206,0.009218,-0.352234,-0.023237,0.011034,-0.352234,0.499306,-0.165882,0.258325,1.105519,3.058971,-7.697322
1790548335.8212,-0.020702,0.001505,-0.353249,-0.021463,0.004364,-0.353249,0.734850,-0.230232,0.345743,0.760567,4.174371,-8.085434
1790548335.8353,-0.015916,-0.010725,-0.348037,-0.017580,-0.006198,-0.348037,0.986177,-0.496129,0.451374,0.990535,3.282051,-8.822846
1790548335.8496,-0.019536,-0.017570,-0.343705,-0.018949,-0.014158,-0.343705,0.635290,0.097587,0.600713,1.105519,4.843611,-11.306763
1790548335.8636,-0.024191,-0.015583,-0.334763,-0.022618,-0.015156,-0.334763,-0.095623,0.203217,0.763408,0.147319,3.542311,-15.343126
1790548335.8778,-0.015134,-0.014344,-0.319275,-0.017379,-0.014587,-0.319275,-0.084696,-0.779024,1.097297,-0.925864,1.460231,-9.948371
1790548335.8920,-0.012091,-0.014565,-0.299454,-0.013678,-0.014572,-0.299454,0.045217,-0.458490,1.251493,0.223975,1.088431,-6.144874
1790548335.9059,-0.022176,-0.015535,-0.279223,-0.019626,-0.015246,-0.279223,0.045217,0.449688,1.159219,0.875551,0.642271,-6.338930
1790548335.9202,-0.018711,-0.017658,-0.267936,-0.018986,-0.016934,-0.267936,0.084070,-0.256943,0.988025,-1.884064,0.233291,-7.115154
1790548335.9345,-0.014990,-0.015754,-0.261085,-0.016189,-0.016108,-0.261085,-0.133262,-0.273941,0.648065,-1.730752,1.460231,-9.909560
1790548335.9485,-0.013558,-0.014818,-0.253326,-0.014348,-0.015205,-0.253326,-0.184256,-0.137957,0.346957,-0.734224,-0.510309,-13.557812
1790548335.9627,-0.011659,-0.012106,-0.250649,-0.012465,-0.013036,-0.250649,-0.274102,-0.094248,0.132054,-1.385800,0.307651,-11.229140
1790548335.9765,-0.005330,-0.007785,-0.250340,-0.007471,-0.009360,-0.250340,-0.419799,-0.369858,-0.091348,-1.615768,-0.026969,-10.724595
1790548335.9903,0.000179,-0.002455,-0.253047,-0.002116,-0.004527,-0.253047,-0.452581,-0.348003,-0.314750,-0.274288,0.642271,-7.774944
1790548336.0044,0.006373,0.001778,-0.256903,0.003826,-0.000113,-0.256903,-0.380947,-0.436636,-0.420380,0.645583,0.567911,-8.784035
1790548336.0185,0.012081,0.006412,-0.262014,0.009604,0.004455,-0.262014,-0.396731,-0.375929,-0.485944,0.377287,0.976891,-9.327392
1790548336.0323,0.013870,0.009222,-0.269557,0.012590,0.007792,-0.269557,-0.299599,-0.069965,-0.634069,0.607255,0.939711,-12.509909
1790548336.0464,0.007289,0.003217,-0.281393,0.008880,0.004589,-0.281393,0.358466,0.646379,-0.808906,-1.002520,1.943571,-14.760958
1790548336.0606,0.004622,0.005211,-0.301408,0.005899,0.005024,-0.301408,0.073142,0.459401,-0.779766,-1.999048,4.732071,-6.804665
1790548336.0746,0.002469,0.002067,-0.317370,0.003498,0.002954,-0.317370,0.312328,0.449688,-0.867185,-2.343999,3.430771,-8.512357
1790548336.0886,-0.000070,-0.002143,-0.333114,0.001000,-0.000614,-0.333114,0.475023,0.473971,-0.876898,-2.037376,4.137191,-7.192776
1790548336.1027,-0.005396,-0.008494,-0.347723,-0.003477,-0.006130,-0.347723,0.682642,0.653664,-0.924249,-1.539112,4.397451,-6.222497
1790548336.1169,0.001905,-0.010797,-0.362252,0.000290,-0.009397,-0.362252,0.176344,-0.312793,-1.014096,-1.117504,2.984611,-12.315854
1790548336.1310,0.003414,-0.006338,-0.374520,0.002477,-0.007256,-0.374520,-0.270460,0.033237,-1.363769,1.910407,5.624391,-16.701518
1790548336.1448,0.003373,-0.005635,-0.391847,0.003104,-0.006121,-0.391847,-0.174543,0.181362,-1.577458,1.373815,0.716631,-11.578441
1790548336.1588,0.005890,-0.002420,-0.415412,0.005054,-0.003530,-0.415412,-0.226751,0.132797,-1.526464,-0.657568,1.571771,-5.679140
1790548336.1732,-0.008515,0.002010,-0.424362,-0.004444,0.000348,-0.424362,-0.293529,1.040975,-1.196217,1.642111,1.534591,-5.368651
1790548336.1877,-0.021087,0.006616,-0.439470,-0.016094,0.004736,-0.439470,-0.412514,1.032476,-1.026237,0.530599,0.567911,-9.715504
1790548336.2019,-0.024393,0.013626,-0.457287,-0.021903,0.010959,-0.457287,-0.567925,0.476399,-0.992241,-1.079176,1.051251,-12.626343
1790548336.2155,-0.027045,0.016099,-0.466908,-0.025502,0.014557,-0.466908,-0.263175,0.307633,-0.801621,0.875551,0.902531,-12.471098
1790548336.2291,-0.023860,0.016727,-0.473425,-0.024353,0.016076,-0.473425,-0.130834,-0.142813,-0.557578,0.185647,0.790991,-12.005364
1790548336.2431,-0.019189,0.015057,-0.477965,-0.020738,0.015363,-0.477965,0.092569,-0.269084,-0.420380,0.070663,1.608951,-10.258860
1790548336.2572,-0.011384,0.009552,-0.478382,-0.014190,0.011295,-0.478382,0.397318,-0.548337,-0.167839,0.032335,1.571771,-7.813756
1790548336.2712,-0.009451,0.003994,-0.477068,-0.010873,0.006184,-0.477068,0.533302,-0.213234,0.113842,0.492271,3.096151,-7.309210
1790548336.2850,-0.003577,-0.007885,-0.472030,-0.005766,-0.003664,-0.472030,0.971607,-0.517983,0.336030,0.147319,3.170511,-9.133336
1790548336.2990,-0.009924,-0.015382,-0.461160,-0.008676,-0.011866,-0.461160,0.619506,0.279708,0.731841,1.143847,4.360271,-15.575993
1790548336.3129,-0.011900,-0.013547,-0.452183,-0.010933,-0.013043,-0.452183,-0.096838,0.051449,0.980740,-2.152360,3.133331,-16.274595
1790548336.3269,-0.006534,-0.009977,-0.438595,-0.007854,-0.010897,-0.438595,-0.224322,-0.519198,1.198071,-1.654096,2.092291,-11.888930
1790548336.3506,-0.008288,-0.010795,-0.409413,-0.008158,-0.010826,-0.409413,-0.025203,-0.129458,1.181073,-0.082648,-0.398769,-5.485084
1790548336.3687,-0.013327,-0.014046,-0.391864,-0.011776,-0.013080,-0.391864,0.119280,0.136439,1.070586,-0.580912,-0.026969,-6.727042
1790548336.3887,-0.008663,-0.011892,-0.379849,-0.009597,-0.012248,-0.379849,-0.141761,-0.292153,0.708772,-1.999048,0.679451,-12.082986
1790548336.4077,-0.008214,-0.013516,-0.371225,-0.008629,-0.013136,-0.371225,-0.005777,-0.083321,0.506010,-0.887536,-0.659029,-11.578441
1790548336.4274,-0.001854,-0.014955,-0.364889,-0.003886,-0.014409,-0.364889,0.033076,-0.335862,0.342101,-1.270816,0.493551,-9.405014
1790548336.4461,-0.000793,-0.010416,-0.363880,-0.001721,-0.011614,-0.363880,-0.306884,-0.061466,0.084703,-0.465928,0.233291,-9.249770
1790548336.4655,-0.000037,-0.007967,-0.365873,-0.000542,-0.009061,-0.365873,-0.178185,-0.044468,-0.096204,0.147319,0.679451,-10.336483
1790548336.4828,-0.000770,-0.006068,-0.370499,-0.000702,-0.006966,-0.370499,-0.157545,0.033237,-0.255257,0.722239,0.976891,-10.025993
1790548336.5030,0.004339,-0.000737,-0.376091,0.002827,-0.002606,-0.376091,-0.272888,-0.259371,-0.313536,0.798895,1.497411,-8.434735
1790548336.5219,-0.003667,-0.007834,-0.390541,-0.001719,-0.006265,-0.390541,0.319613,0.579601,-0.694776,-1.155832,1.497411,-14.256413
1790548336.5380,-0.007563,-0.006504,-0.401581,-0.005810,-0.006432,-0.401581,0.121708,0.396266,-0.564863,-1.117504,5.141051,-8.007811
1790548336.5525,-0.008650,-0.008049,-0.414561,-0.007798,-0.007564,-0.414561,0.301401,0.339201,-0.743342,-2.037376,4.285911,-7.503266
1790548336.5669,-0.001822,-0.009771,-0.426223,-0.003615,-0.009109,-0.426223,0.192128,-0.239945,-0.702061,-1.807408,2.538451,-7.852567
1790548336.5810,0.009495,-0.007520,-0.437679,0.005562,-0.007997,-0.437679,-0.173328,-0.643040,-0.925463,-0.887536,2.910251,-14.916203
1790548336.5956,0.008397,-0.001161,-0.450285,0.007546,-0.003212,-0.450285,-0.431941,0.187433,-1.152508,1.527127,3.765391,-14.334035
1790548336.6132,0.007443,0.007490,-0.472517,0.007474,0.004279,-0.472517,-0.499933,0.327060,-1.045663,-1.462456,1.906391,-7.425644
1790548336.6441,-0.015466,0.017509,-0.509657,-0.008584,0.013540,-0.509657,-0.394302,0.951129,-0.950960,-0.465928,0.642271,-9.676693
1790548336.6670,-0.028867,0.030660,-0.530516,-0.022782,0.025524,-0.530516,-0.634702,0.714371,-0.831974,1.335487,0.902531,-10.297672
1790548336.6925,-0.029048,0.042370,-0.548664,-0.027168,0.037316,-0.548664,-0.479292,0.148581,-0.687492,0.223975,1.794851,-10.375294
1790548336.7094,-0.019261,0.042645,-0.558372,-0.021633,0.041046,-0.558372,-0.048272,-0.435422,-0.627999,-0.350944,1.646131,-9.521448
1790548336.7236,-0.017106,0.041211,-0.562146,-0.018464,0.041162,-0.562146,0.119280,-0.118531,-0.407025,0.530599,2.129471,-8.240679
1790548336.7376,-0.015160,0.037309,-0.560850,-0.016152,0.038465,-0.560850,0.318399,-0.178024,-0.060994,0.492271,2.501271,-8.939280
1790548336.7516,-0.009741,0.027316,-0.554797,-0.011664,0.030660,-0.554797,0.768846,-0.488844,0.203689,0.607255,3.244871,-11.112707
1790548336.7655,-0.005024,0.015527,-0.540874,-0.007016,0.020067,-0.540874,0.976464,-0.592046,0.616497,1.642111,3.914111,-10.646972
1790548336.7795,-0.005032,0.000039,-0.525004,-0.005627,0.006048,-0.525004,1.329779,-0.280012,0.899392,1.335487,4.434631,-8.784035
1790548336.7934,-0.011717,-0.004916,-0.511897,-0.009890,-0.001627,-0.511897,0.492021,0.268781,0.935816,0.722239,4.360271,-12.160609
1790548336.8072,-0.004623,-0.003749,-0.498137,-0.006203,-0.003112,-0.498137,0.003936,-0.666109,1.227211,-1.769080,3.691031,-13.868301
1790548336.8212,-0.005988,-0.001450,-0.475155,-0.006053,-0.001949,-0.475155,-0.225537,-0.198664,1.331627,0.683911,0.419191,-11.345574
1790548336.8352,-0.004473,-0.003939,-0.455969,-0.004947,-0.003342,-0.455969,-0.000920,-0.311579,1.298845,-0.619240,-1.253909,-8.667602
1790548336.8491,0.004405,-0.002625,-0.441318,0.001600,-0.002840,-0.441318,-0.066484,-0.786309,1.043875,-0.849208,1.348691,-8.124245
1790548336.8630,0.003634,-0.000826,-0.433381,0.003024,-0.001430,-0.433381,-0.200040,-0.021399,0.588572,-0.580912,0.344831,-7.813756
1790548336.8769,0.005507,-0.003395,-0.428093,0.004762,-0.002805,-0.428093,0.022148,-0.141599,0.453802,-1.615768,-1.030829,-10.957462
1790548336.8909,0.006440,-0.004203,-0.423289,0.005936,-0.003783,-0.423289,-0.083482,-0.078464,0.391881,-1.500784,-0.733389,-12.199420
1790548336.9045,0.010343,0.000031,-0.420259,0.009021,-0.001113,-0.420259,-0.391874,-0.259371,0.215830,-1.462456,0.456371,-10.336483
1790548336.9182,0.015037,0.004560,-0.418928,0.013232,0.002858,-0.418928,-0.416157,-0.346789,0.076204,-0.619240,0.456371,-8.861658
1790548336.9322,0.022587,0.011442,-0.420030,0.019780,0.008867,-0.420030,-0.550927,-0.505842,-0.152055,-0.657568,0.939711,-9.094525
1790548336.9466,0.021789,0.013724,-0.427543,0.021186,0.012267,-0.427543,-0.277745,0.042950,-0.380314,0.952207,0.493551,-11.966553
1790548336.9606,0.012352,0.002849,-0.441013,0.015002,0.005675,-0.441013,0.637718,0.772650,-0.746985,0.568927,0.567911,-15.265504
1790548336.9746,0.015013,0.005261,-0.448707,0.015010,0.005385,-0.448707,0.088926,0.157080,-0.855043,-2.842263,5.178231,-6.455364
1790548336.9887,0.012509,0.003135,-0.459599,0.013259,0.003810,-0.459599,0.258906,0.416906,-0.821047,-1.462456,3.393591,-7.852567
1790548337.0026,0.005040,0.001153,-0.469977,0.007505,0.001950,-0.469977,0.297759,0.736225,-0.768839,-0.964192,3.839751,-7.542077
1790548337.0166,0.001506,-0.002695,-0.480225,0.003306,-0.001301,-0.480225,0.507805,0.449688,-0.840473,-0.925864,5.326951,-8.046623
1790548337.0305,0.008723,-0.008669,-0.492206,0.007098,-0.006459,-0.492206,0.359680,-0.356502,-0.739700,-1.347472,1.311511,-13.169700
1790548337.0444,0.012333,-0.003961,-0.503990,0.010762,-0.004710,-0.503990,-0.325096,-0.135529,-1.141581,0.913879,3.914111,-14.566903
1790548337.0583,0.013064,0.001596,-0.515733,0.012373,-0.000296,-0.515733,-0.448939,0.047807,-1.042021,0.837223,1.757671,-10.025993
1790548337.0723,0.006505,0.006718,-0.532119,0.008266,0.004614,-0.532119,-0.408872,0.676732,-1.090587,-0.235960,1.460231,-7.309210
1790548337.0862,-0.008875,0.015632,-0.543649,-0.003733,0.012326,-0.543649,-0.621347,1.164818,-0.966744,1.412143,1.980751,-6.921098
1790548337.1002,-0.019093,0.020202,-0.558320,-0.014485,0.017840,-0.558320,-0.519359,0.840642,-0.844116,1.105519,-0.807749,-11.190329
1790548337.1140,-0.029065,0.025364,-0.573690,-0.024691,0.023107,-0.573690,-0.516931,0.881922,-0.908465,0.607255,-0.064149,-11.306763
1790548337.1278,-0.032755,0.031021,-0.584696,-0.030336,0.028647,-0.584696,-0.496290,0.390195,-0.754269,0.645583,0.828171,-9.870749
1790548337.1414,-0.031204,0.032544,-0.592227,-0.030943,0.031375,-0.592227,-0.231607,-0.037183,-0.562435,0.683911,0.344831,-11.267951
1790548337.1554,-0.025261,0.030815,-0.597817,-0.026965,0.030983,-0.597817,0.063429,-0.329791,-0.490801,-0.044320,1.199971,-10.025993
1790548337.1695,-0.016439,0.027270,-0.600224,-0.019597,0.028384,-0.600224,0.275904,-0.615115,-0.277112,0.338959,2.241011,-8.939280
1790548337.1835,-0.010837,0.022416,-0.600951,-0.013465,0.024206,-0.600951,0.424029,-0.477917,-0.042782,1.028863,3.244871,-9.793126
1790548337.1980,-0.005273,0.014388,-0.598145,-0.007730,0.017333,-0.598145,0.682642,-0.562907,0.281394,1.603783,3.876931,-9.715504
1790548337.2120,-0.001350,0.006479,-0.594162,-0.003264,0.009736,-0.594162,0.753062,-0.519198,0.510867,1.757095,4.174371,-8.395923
1790548337.2260,0.002180,-0.001796,-0.587869,0.000547,0.001663,-0.587869,0.808912,-0.500985,0.699059,1.335487,4.100011,-8.007811
1790548337.2399,-0.004759,-0.005130,-0.579520,-0.003167,-0.003092,-0.579520,0.414316,0.262710,0.869039,1.220503,4.285911,-9.948371
1790548337.2539,-0.005072,-0.004585,-0.567922,-0.004501,-0.004137,-0.567922,0.001508,-0.102747,1.077871,-1.845736,2.910251,-14.955014
1790548337.2678,-0.001200,-0.002164,-0.550258,-0.002190,-0.002756,-0.550258,-0.173328,-0.442707,1.372908,-1.807408,1.348691,-11.423196
1790548337.2820,0.001573,-0.001044,-0.527430,0.000444,-0.001558,-0.527430,-0.162401,-0.386856,1.343768,-0.887536,-0.175689,-7.736133
1790548337.2963,0.002658,0.004107,-0.525545,0.001994,0.002408,-0.525545,-0.226751,0.016239,0.960099,-2.037376,1.497411,-3.893825
1790548337.3103,0.007918,0.009845,-0.517513,0.006140,0.007614,-0.517513,-0.393088,-0.442707,0.644422,-0.849208,1.125611,-6.494175
1790548337.3244,0.014335,0.012413,-0.509221,0.011877,0.010973,-0.509221,-0.261961,-0.533767,0.378525,-0.542584,0.382011,-10.879840
1790548337.3385,0.016878,0.015032,-0.502174,0.015378,0.013815,-0.502174,-0.320240,-0.229018,0.271681,-0.772552,-0.510309,-12.859210
1790548337.3525,0.022177,0.020114,-0.498519,0.020137,0.018224,-0.498519,-0.479292,-0.356502,0.108986,-1.615768,-0.026969,-12.587532
1790548337.3662,0.027283,0.023136,-0.497087,0.025140,0.021663,-0.497087,-0.362735,-0.362573,-0.097419,-0.542584,-0.138509,-9.987182
1790548337.3799,0.033511,0.026773,-0.498882,0.031000,0.025240,-0.498882,-0.402801,-0.403854,-0.315964,-0.427600,0.121751,-7.813756
1790548337.3939,0.035060,0.027192,-0.504824,0.033842,0.026606,-0.504824,-0.192755,0.029595,-0.543009,-1.155832,0.047391,-10.608161
1790548337.4077,0.030803,0.024127,-0.512797,0.031715,0.024871,-0.512797,0.165417,0.487326,-0.562435,-1.884064,2.278191,-12.587532
1790548337.4219,0.028727,0.026093,-0.519321,0.029623,0.025727,-0.519321,-0.003349,0.432690,-0.636498,-2.880591,4.583351,-8.357112
1790548337.4361,0.025941,0.025253,-0.528207,0.027046,0.025395,-0.528207,0.153276,0.421763,-0.682635,-1.960720,4.397451,-9.637881
1790548337.4504,0.022038,0.022376,-0.538704,0.023540,0.023282,-0.538704,0.314757,0.527393,-0.782195,-1.730752,3.988471,-7.930189
1790548337.4645,0.020009,0.016708,-0.549098,0.021068,0.018680,-0.549098,0.534516,0.416906,-0.778552,-1.845736,3.691031,-7.115154
1790548337.4785,0.015108,0.008065,-0.559801,0.016896,0.011250,-0.559801,0.710567,0.561389,-0.879326,-0.810880,3.133331,-7.192776
1790548337.4925,0.014187,-0.003536,-0.569137,0.015000,0.000899,-0.569137,0.947325,0.268781,-0.774910,-1.807408,5.289771,-11.733686
1790548337.5065,0.014324,-0.006551,-0.576090,0.014527,-0.004316,-0.576090,0.235837,0.047807,-1.123369,3.021918,5.066691,-17.361308
1790548337.5204,0.020356,-0.002932,-0.592870,0.018607,-0.003347,-0.592870,-0.325096,-0.230232,-1.381981,-0.044320,2.984611,-16.973196
1790548337.5344,0.015351,0.001429,-0.603729,0.016328,-0.000004,-0.603729,-0.323882,0.442403,-1.225357,1.258831,1.906391,-7.115154
1790548337.5484,0.002164,0.008494,-0.616185,0.006413,0.005944,-0.616185,-0.567925,1.042189,-1.031094,0.875551,1.088431,-6.649420
1790548337.5623,-0.008918,0.012856,-0.627828,-0.004319,0.010783,-0.627828,-0.434369,0.881922,-0.789480,0.837223,0.344831,-8.240679
1790548337.5763,-0.017091,0.017946,-0.642415,-0.013259,0.015797,-0.642415,-0.514502,0.730155,-0.722702,-0.005993,-0.212869,-11.423196
1790548337.5900,-0.027312,0.024719,-0.651683,-0.023096,0.022043,-0.651683,-0.592208,0.788434,-0.618285,1.680439,0.716631,-11.190329
1790548337.6036,-0.029699,0.028306,-0.657587,-0.027718,0.026427,-0.657587,-0.407658,0.191076,-0.343889,0.990535,-0.175689,-11.073895
1790548337.6177,-0.027428,0.028672,-0.658705,-0.027515,0.027998,-0.658705,-0.130834,-0.196236,-0.126558,0.837223,0.382011,-9.637881
1790548337.6315,-0.021087,0.025041,-0.657003,-0.023015,0.025928,-0.657003,0.209126,-0.479131,0.000927,0.070663,0.902531,-7.464455
1790548337.6455,-0.016121,0.017917,-0.652600,-0.018189,0.020320,-0.652600,0.518732,-0.505842,0.242541,1.143847,1.757671,-8.667602
1790548337.6595,-0.011917,0.010127,-0.648899,-0.013799,0.013185,-0.648899,0.671714,-0.516769,0.462301,1.757095,3.542311,-9.405014
1790548337.6733,-0.006537,0.001356,-0.642829,-0.008715,0.004904,-0.642829,0.788272,-0.635755,0.690560,1.603783,4.062831,-9.754315
1790548337.6874,-0.000215,-0.008048,-0.634461,-0.002765,-0.004162,-0.634461,0.844123,-0.698891,0.866610,1.182175,4.062831,-9.366203
1790548337.7018,-0.010159,-0.012609,-0.623126,-0.007941,-0.010075,-0.623126,0.387605,0.529821,1.054802,-0.465928,3.244871,-13.169700
1790548337.7158,-0.005520,-0.010548,-0.609270,-0.006246,-0.010406,-0.609270,-0.110193,-0.449991,1.210213,-2.458983,2.649991,-14.566903
1790548337.7316,0.001674,-0.008405,-0.584867,-0.000702,-0.009005,-0.584867,-0.078625,-0.695248,1.561100,-0.734224,1.497411,-7.930189
1790548337.7457,0.000442,-0.005711,-0.555484,0.000099,-0.006699,-0.555484,-0.281387,-0.289725,1.506463,1.297159,-0.435949,-8.512357
1790548337.7597,-0.005107,-0.005378,-0.534324,-0.003545,-0.005774,-0.534324,-0.070126,0.095158,1.204142,1.028863,0.382011,-8.357112
1790548337.7736,-0.000504,-0.002237,-0.524995,-0.001416,-0.003298,-0.524995,-0.218252,-0.338290,0.896964,-2.688951,1.385871,-9.405014
1790548337.7876,0.003152,-0.000346,-0.513009,0.001782,-0.001231,-0.513009,-0.234036,-0.356502,0.576430,-0.695896,-0.138509,-12.859210
1790548337.8014,0.006075,0.002384,-0.504879,0.004787,0.001299,-0.504879,-0.317811,-0.254515,0.323889,-0.810880,-0.361589,-12.238231
1790548337.8150,0.010958,0.005832,-0.500498,0.009107,0.004472,-0.500498,-0.355450,-0.343147,0.081060,-0.925864,0.158931,-9.521448
1790548337.8287,0.017834,0.010085,-0.499393,0.015216,0.008401,-0.499393,-0.405230,-0.449991,-0.158126,-0.887536,0.419191,-9.327392
1790548337.8440,0.023936,0.014516,-0.503329,0.021320,0.012682,-0.503329,-0.389446,-0.331005,-0.421594,-0.350944,0.419191,-8.395923
1790548337.8586,0.024332,0.014899,-0.511964,0.023429,0.014234,-0.511964,-0.127191,0.109728,-0.680207,-0.772552,1.125611,-12.587532
1790548337.8730,0.022440,0.013269,-0.522074,0.022737,0.013558,-0.522074,0.114423,0.350128,-0.654710,-2.305671,2.947431,-11.190329
1790548337.8874,0.019679,0.015627,-0.536750,0.020596,0.015006,-0.536750,-0.078625,0.419334,-0.703275,-1.922392,3.876931,-9.094525
1790548337.9024,0.015896,0.013975,-0.552454,0.017306,0.014284,-0.552454,0.194557,0.459401,-0.754269,-1.232488,3.542311,-8.240679
1790548337.9164,0.013286,0.010416,-0.568844,0.014492,0.011576,-0.568844,0.376678,0.409621,-0.804049,-1.385800,4.137191,-8.512357
1790548337.9302,0.011538,0.005039,-0.585774,0.012424,0.007000,-0.585774,0.533302,0.380482,-0.817405,-1.424128,3.356411,-6.455364
1790548337.9446,0.005194,-0.003468,-0.603136,0.007363,-0.000328,-0.603136,0.732422,0.687660,-0.844116,-1.232488,3.207691,-6.261308
1790548337.9587,0.011266,-0.003978,-0.615288,0.010095,-0.002883,-0.615288,0.181201,-0.246016,-0.827118,-1.807408,7.185950,-14.411658
1790548337.9727,0.014503,-0.004066,-0.628745,0.013181,-0.003711,-0.628745,-0.044629,-0.079678,-1.125797,0.415615,3.207691,-18.680889
1790548337.9866,0.018163,-0.002333,-0.642832,0.016668,-0.002746,-0.642832,-0.223108,-0.130672,-1.306704,1.603783,1.832031,-15.847672
1790548338.0005,0.012038,0.004538,-0.656362,0.013427,0.002353,-0.656362,-0.345737,0.520108,-1.120940,0.568927,1.720491,-3.001168
1790548338.0145,-0.001157,0.008249,-0.664949,0.003218,0.006480,-0.664949,-0.427084,0.989981,-0.880540,1.412143,-0.101329,-7.697322
1790548338.0285,-0.011080,0.010779,-0.673788,-0.006791,0.009489,-0.673788,-0.317811,0.786005,-0.761554,1.067191,0.047391,-9.987182
1790548338.0424,-0.016968,0.013891,-0.684047,-0.013915,0.012571,-0.684047,-0.321454,0.551676,-0.794336,0.415615,0.679451,-11.229140
1790548338.0560,-0.022255,0.016507,-0.690495,-0.019753,0.015326,-0.690495,-0.294743,0.437546,-0.619500,1.335487,0.567911,-11.384385
1790548338.0695,-0.026412,0.019398,-0.692477,-0.024414,0.018176,-0.692477,-0.357878,0.273637,-0.294110,1.565455,-0.287229,-10.724595
1790548338.0834,-0.019333,0.013923,-0.689647,-0.020857,0.015199,-0.689647,0.252835,-0.526482,-0.059780,0.185647,-0.324409,-9.560259
1790548338.0975,-0.013998,0.010461,-0.691119,-0.016056,0.011883,-0.691119,0.335397,-0.464561,0.105343,0.568927,2.426911,-7.153965
1790548338.1115,-0.010336,0.003851,-0.688500,-0.012052,0.006260,-0.688500,0.549086,-0.413567,0.339673,1.028863,2.612811,-8.667602
1790548338.1256,-0.005574,-0.005155,-0.687207,-0.007518,-0.001731,-0.687207,0.780987,-0.508270,0.502368,0.990535,3.728211,-9.288581
1790548338.1396,-0.004252,-0.015522,-0.686268,-0.005231,-0.011384,-0.686268,0.935183,-0.326149,0.695416,1.565455,4.211551,-8.706413
1790548338.1535,-0.014216,-0.018584,-0.676953,-0.011521,-0.016424,-0.676953,0.297759,0.540749,0.932174,0.530599,3.542311,-13.674245
1790548338.1676,-0.015237,-0.018031,-0.665859,-0.014122,-0.017549,-0.665859,-0.014276,-0.009258,1.127651,-2.037376,1.980751,-11.500819
1790548338.1815,-0.008356,-0.017560,-0.652733,-0.010086,-0.017557,-0.652733,0.005150,-0.566549,1.352267,-2.037376,1.348691,-7.425644
1790548338.1959,-0.009551,-0.014808,-0.630264,-0.009711,-0.015633,-0.630264,-0.206110,-0.150098,1.426330,-0.159304,0.679451,-7.542077
1790548338.2103,-0.005617,-0.016741,-0.612019,-0.006845,-0.016408,-0.612019,0.087712,-0.357717,1.310986,-1.347472,0.158931,-5.329839
1790548338.2243,-0.007354,-0.018087,-0.596883,-0.007202,-0.017583,-0.596883,0.081641,0.021096,1.160433,-1.309144,0.753811,-8.163056
1790548338.2384,-0.008095,-0.019133,-0.584044,-0.007827,-0.018668,-0.584044,0.005150,-0.042040,0.799832,-0.887536,0.196111,-11.423196
1790548338.2522,-0.005441,-0.019520,-0.574479,-0.006157,-0.019264,-0.574479,-0.074983,-0.232660,0.510867,-1.155832,-0.324409,-12.082986
1790548338.2652,-0.003624,-0.019309,-0.569316,-0.004384,-0.019295,-0.569316,-0.132048,-0.099104,0.258325,-1.539112,-0.287229,-10.064805
1790548338.2779,0.001873,-0.017386,-0.565824,-0.000004,-0.017959,-0.565824,-0.272888,-0.383214,0.094416,-1.385800,-0.287229,-10.336483
1790548338.2910,0.004211,-0.015192,-0.565525,0.002947,-0.016022,-0.565525,-0.272888,-0.178024,-0.068279,-0.197632,0.047391,-8.784035
1790548338.3050,0.005664,-0.012511,-0.568574,0.004849,-0.013564,-0.568574,-0.257104,-0.122173,-0.222475,0.453943,0.642271,-9.016902
1790548338.3191,0.009601,-0.009836,-0.571322,0.008175,-0.010954,-0.571322,-0.261961,-0.232660,-0.297752,-0.389272,0.642271,-9.637881
1790548338.3332,0.010262,-0.006541,-0.576720,0.009636,-0.007865,-0.576720,-0.314169,-0.009258,-0.399740,0.108991,0.865351,-12.936833
1790548338.3472,0.003351,-0.012333,-0.584653,0.005237,-0.010993,-0.584653,0.339039,0.668233,-0.625570,-1.884064,1.274331,-14.450469
1790548338.3611,0.000373,-0.012889,-0.594993,0.001832,-0.012320,-0.594993,0.195771,0.381696,-0.585504,-1.462456,4.620531,-9.366203
1790548338.3751,-0.004170,-0.014773,-0.605822,-0.002369,-0.014037,-0.605822,0.228553,0.476399,-0.658352,-0.772552,3.058971,-8.357112
1790548338.3889,-0.005520,-0.019497,-0.619354,-0.004575,-0.017859,-0.619354,0.529660,0.328274,-0.819833,-1.807408,4.880791,-8.706413
1790548338.4029,0.002602,-0.020976,-0.631764,0.000449,-0.020041,-0.631764,0.147205,-0.346789,-0.899966,-2.037376,2.724351,-10.025993
1790548338.4170,0.004602,-0.017854,-0.648626,0.003356,-0.018510,-0.648626,-0.246177,0.012597,-1.252068,0.568927,2.910251,-15.110259
1790548338.4311,0.009790,-0.015466,-0.666354,0.007860,-0.016379,-0.666354,-0.235250,-0.176809,-1.312775,-0.120976,1.311511,-9.637881
1790548338.4451,0.008832,-0.010116,-0.682426,0.008540,-0.011995,-0.682426,-0.384589,0.237213,-1.151294,-0.005993,1.608951,-6.571797
1790548338.4594,-0.002202,-0.008019,-0.699771,0.001020,-0.009212,-0.699771,-0.272888,0.917133,-1.097872,0.530599,0.270471,-8.551168
1790548338.4736,-0.012766,-0.004657,-0.714792,-0.008630,-0.006023,-0.714792,-0.333595,0.803003,-0.983742,1.987063,0.605091,-10.414105
1790548338.4877,-0.019507,0.001765,-0.728829,-0.016244,-0.000571,-0.728829,-0.564282,0.577173,-0.967958,1.412143,0.307651,-11.500819
1790548338.5016,-0.025848,0.007608,-0.740700,-0.022967,0.005154,-0.740700,-0.504789,0.501896,-0.800407,1.718767,0.567911,-10.025993
1790548338.5153,-0.030274,0.013860,-0.749368,-0.028082,0.011248,-0.749368,-0.520573,0.403550,-0.631641,0.645583,0.828171,-8.784035
1790548338.5291,-0.030687,0.015855,-0.752202,-0.029905,0.014473,-0.752202,-0.261961,0.182577,-0.430093,-1.002520,0.047391,-9.443825
1790548338.5432,-0.025300,0.011206,-0.753130,-0.026682,0.012186,-0.753130,0.261334,-0.345575,-0.226118,-0.044320,0.865351,-10.996273
1790548338.5572,-0.021259,0.009034,-0.756367,-0.022886,0.009980,-0.756367,0.233409,-0.350432,-0.023356,0.875551,3.021791,-9.249770
1790548338.5712,-0.015120,0.005996,-0.755068,-0.017450,0.007191,-0.755068,0.319613,-0.531339,0.254683,0.415615,3.505131,-9.870749
1790548338.5852,-0.009407,0.000752,-0.751618,-0.011820,0.002684,-0.751618,0.519947,-0.547123,0.491440,0.453943,3.765391,-8.939280
1790548338.5992,-0.003538,-0.005295,-0.746423,-0.006022,-0.002901,-0.746423,0.626791,-0.576262,0.671133,0.223975,3.914111,-7.852567
1790548338.6132,-0.006106,-0.007808,-0.737169,-0.006081,-0.006336,-0.737169,0.284403,0.028381,0.853255,-0.120976,4.434631,-14.023546
1790548338.6272,-0.005130,-0.005238,-0.724286,-0.005415,-0.005567,-0.724286,-0.119906,-0.162240,1.062087,-2.612295,3.430771,-14.372847
1790548338.6411,0.000891,-0.004389,-0.703203,-0.001001,-0.004743,-0.703203,-0.038559,-0.653967,1.411760,-0.964192,1.608951,-11.384385
1790548338.6552,0.002613,-0.005704,-0.678236,0.001529,-0.005416,-0.678236,0.013649,-0.372286,1.463968,-0.312616,-0.250049,-6.338930
1790548338.6692,-0.006513,-0.006290,-0.659960,-0.004101,-0.006028,-0.659960,0.059787,0.323417,1.292774,1.143847,1.014071,-7.076343
1790548338.6830,-0.000896,-0.006739,-0.641271,-0.001857,-0.006525,-0.641271,-0.016704,-0.458490,1.082728,-2.037376,0.307651,-7.736133
1790548338.6971,0.001739,-0.004774,-0.627308,0.000660,-0.005299,-0.627308,-0.226751,-0.281226,0.758552,-1.117504,-0.138509,-11.267951
1790548338.7119,0.002275,-0.004378,-0.617041,0.001791,-0.004654,-0.617041,-0.156331,-0.107603,0.486584,-0.695896,-0.956469,-12.082986
1790548338.7260,0.006088,-0.001870,-0.609986,0.004799,-0.002705,-0.609986,-0.240106,-0.271513,0.288679,-1.385800,0.605091,-11.073895
1790548338.7397,0.011112,0.002564,-0.606943,0.009218,0.000983,-0.606943,-0.422228,-0.356502,0.042208,-0.734224,0.121751,-9.676693
1790548338.7535,0.015648,0.007628,-0.608900,0.013719,0.005635,-0.608900,-0.441654,-0.340719,-0.158126,0.070663,0.642271,-8.589979
1790548338.7675,0.020089,0.011614,-0.613520,0.018178,0.009820,-0.613520,-0.365163,-0.346789,-0.240687,0.530599,0.567911,-8.279490
1790548338.7816,0.020221,0.013104,-0.620199,0.019608,0.012119,-0.620199,-0.198825,0.064805,-0.488372,-0.235960,1.051251,-12.898021
1790548338.7954,0.016551,0.007098,-0.626166,0.017468,0.008604,-0.626166,0.360894,0.446045,-0.611001,-2.037376,1.757671,-14.411658
1790548338.8094,0.014313,0.009896,-0.639268,0.015259,0.009508,-0.639268,0.005150,0.370769,-0.709346,-1.500784,5.103871,-7.503266
1790548338.8234,0.010087,0.008247,-0.650334,0.011639,0.008625,-0.650334,0.235837,0.532250,-0.733629,-1.539112,3.653851,-7.697322
1790548338.8373,0.005734,0.005397,-0.662388,0.007505,0.006365,-0.662388,0.359680,0.550462,-0.768839,-1.500784,4.025651,-7.425644
1790548338.8512,0.002743,-0.000411,-0.674203,0.004171,0.001622,-0.674203,0.590367,0.506753,-0.760340,-2.114032,3.765391,-6.494175
1790548338.8651,0.000990,-0.008687,-0.686887,0.001944,-0.005595,-0.686887,0.817411,0.386552,-0.889039,-1.769080,5.029511,-7.270399
1790548338.8790,0.008466,-0.014244,-0.697903,0.006509,-0.011649,-0.697903,0.410674,-0.400212,-0.949746,-0.197632,2.687171,-11.384385
1790548338.8929,0.013020,-0.011189,-0.712696,0.011067,-0.011327,-0.712696,-0.213395,-0.203521,-1.347985,1.833751,4.397451,-16.041728
1790548338.9068,0.017261,-0.009985,-0.730795,0.015403,-0.010388,-0.730795,-0.197611,-0.113674,-1.351627,0.108991,1.014071,-11.811308
1790548338.9209,0.005904,-0.002266,-0.748009,0.008754,-0.004703,-0.748009,-0.527858,0.958413,-1.235070,0.645583,2.278191,-7.115154
1790548338.9349,-0.007268,0.001766,-0.763009,-0.002461,-0.000175,-0.763009,-0.416157,1.056759,-0.982528,0.875551,0.233291,-8.706413
1790548338.9490,-0.016621,0.006228,-0.777137,-0.012373,0.004307,-0.777137,-0.450153,0.800575,-0.870827,0.377287,-0.064149,-9.094525
1790548338.9633,-0.023806,0.012769,-0.789868,-0.020376,0.010231,-0.789868,-0.571567,0.643951,-0.785837,0.300631,0.233291,-11.384385
1790548338.9770,-0.027463,0.015972,-0.798175,-0.025337,0.014250,-0.798175,-0.342094,0.289421,-0.564863,1.757095,0.270471,-12.160609
1790548338.9906,-0.024721,0.016221,-0.802051,-0.024906,0.015630,-0.802051,-0.149046,-0.164668,-0.351174,0.415615,-0.138509,-10.685784
1790548339.0046,-0.019262,0.014735,-0.803918,-0.020955,0.015003,-0.803918,0.068286,-0.320078,-0.240687,-0.542584,1.199971,-8.939280
1790548339.0186,-0.014155,0.010630,-0.805160,-0.016195,0.011942,-0.805160,0.377892,-0.423280,-0.017285,0.607255,2.649991,-7.774944
1790548339.0326,-0.011444,0.002867,-0.805148,-0.012869,0.005590,-0.805148,0.683856,-0.284868,0.166050,0.683911,3.579491,-8.861658
1790548339.0465,-0.006402,-0.009242,-0.801074,-0.008342,-0.004793,-0.801074,1.016531,-0.530125,0.430733,1.182175,3.876931,-9.405014
1790548339.0605,-0.001134,-0.021871,-0.795413,-0.003296,-0.016747,-0.795413,1.141587,-0.612686,0.697845,1.795423,5.364131,-9.288581
1790548339.0745,-0.018997,-0.022970,-0.785111,-0.014287,-0.021103,-0.785111,0.184843,1.028834,0.875109,3.021918,4.843611,-15.149070
1790548339.0885,-0.016906,-0.022223,-0.770949,-0.016120,-0.021887,-0.770949,-0.031274,-0.277583,1.134936,-1.539112,2.612811,-15.420749
1790548339.1023,-0.010674,-0.022736,-0.749456,-0.012308,-0.022482,-0.749456,0.050074,-0.673394,1.450613,-0.274288,1.014071,-7.503266
1790548339.1166,-0.012640,-0.026666,-0.722225,-0.012540,-0.025411,-0.722225,0.124136,-0.099104,1.370479,0.147319,-0.993649,-6.688231
1790548339.1307,-0.013816,-0.028534,-0.704038,-0.013434,-0.027597,-0.704038,0.084070,-0.043254,1.184716,-1.002520,0.344831,-9.599070
1790548339.1446,-0.009813,-0.026810,-0.692499,-0.010899,-0.027046,-0.692499,-0.196397,-0.249658,0.810760,-2.382327,0.010211,-7.969000
1790548339.1585,-0.011762,-0.027227,-0.683591,-0.011503,-0.027173,-0.683591,-0.085910,0.081803,0.492655,-0.504256,-0.621849,-11.306763
1790548339.1727,-0.009544,-0.028661,-0.677986,-0.010131,-0.028215,-0.677986,-0.026417,-0.114888,0.231614,-1.654096,-0.807749,-10.841028
1790548339.1867,-0.007062,-0.028366,-0.676757,-0.007983,-0.028321,-0.676757,-0.123549,-0.052967,-0.052495,-2.190688,-0.212869,-9.948371
1790548339.2006,-0.001741,-0.026442,-0.679519,-0.003613,-0.027006,-0.679519,-0.242535,-0.250872,-0.336605,-1.577440,-0.101329,-9.599070
1790548339.2147,0.002860,-0.025464,-0.686348,0.000918,-0.025926,-0.686348,-0.184256,-0.196236,-0.563649,-1.002520,-0.101329,-9.016902
1790548339.2289,0.006394,-0.024573,-0.695859,0.004751,-0.024979,-0.695859,-0.147832,-0.181666,-0.611001,0.032335,0.456371,-9.909560
1790548339.2430,0.010727,-0.022623,-0.705733,0.008934,-0.023330,-0.705733,-0.226751,-0.271513,-0.579433,0.415615,0.456371,-10.258860
1790548339.2570,0.012092,-0.019911,-0.716635,0.011145,-0.020936,-0.716635,-0.317811,-0.042040,-0.640140,0.415615,-0.026969,-13.984735
1790548339.2709,0.006743,-0.022855,-0.728350,0.008064,-0.022279,-0.728350,0.144777,0.531035,-0.822261,-0.695896,1.311511,-12.393476
1790548339.2850,0.006181,-0.023913,-0.734522,0.006746,-0.023423,-0.734522,0.125350,0.214144,-0.613429,-1.654096,2.761531,-9.676693
1790548339.2988,0.003851,-0.024648,-0.740041,0.004720,-0.024280,-0.740041,0.183629,0.392623,-0.566077,-1.922392,2.984611,-6.804665
1790548339.3129,0.003102,-0.028381,-0.750797,0.003587,-0.027151,-0.750797,0.466524,0.297920,-0.767625,-2.152360,4.546171,-7.503266
1790548339.3268,0.007092,-0.028756,-0.760663,0.006041,-0.028274,-0.760663,0.116851,-0.120959,-0.833189,-1.079176,3.393591,-9.405014
1790548339.3408,0.012342,-0.025461,-0.778923,0.010451,-0.026305,-0.778923,-0.299599,-0.207163,-1.305490,0.032335,1.943571,-14.722147
1790548339.3548,0.018863,-0.019651,-0.797834,0.016339,-0.021647,-0.797834,-0.439226,-0.328577,-1.371054,0.760567,2.464091,-10.996273
1790548339.3687,0.013009,-0.013803,-0.817893,0.014008,-0.016156,-0.817893,-0.367591,0.554104,-1.296991,0.722239,2.798711,-7.464455
1790548339.3826,0.003566,-0.012887,-0.839150,0.006698,-0.013868,-0.839150,-0.217038,0.915918,-1.317631,-0.350944,0.084571,-7.813756
1790548339.3966,-0.006054,-0.011811,-0.862647,-0.002228,-0.012428,-0.862647,-0.253462,0.784791,-1.290920,1.872079,-0.584669,-9.831937
1790548339.4107,-0.011377,-0.005274,-0.882579,-0.008632,-0.007420,-0.882579,-0.565496,0.511609,-1.232641,1.335487,0.605091,-11.229140
1790548339.4243,-0.016696,0.000928,-0.899770,-0.014277,-0.001577,-0.899770,-0.558212,0.518894,-1.105156,1.067191,0.456371,-10.220049
1790548339.4380,-0.016692,0.006749,-0.910318,-0.015967,0.004251,-0.910318,-0.503575,0.188647,-0.868399,-0.580912,0.790991,-9.870749
1790548339.4516,-0.015449,0.007968,-0.916589,-0.015605,0.006853,-0.916589,-0.183042,0.041736,-0.580647,-0.580912,0.530731,-10.724595
1790548339.4662,-0.012094,0.006272,-0.921522,-0.013147,0.006446,-0.921522,0.122922,-0.181666,-0.337819,-0.005993,2.203831,-10.608161
1790548339.4807,-0.006171,0.003443,-0.924478,-0.008264,0.004344,-0.924478,0.275904,-0.475488,-0.022142,0.875551,3.393591,-10.375294
1790548339.4947,-0.001859,-0.000435,-0.925733,-0.003780,0.000999,-0.925733,0.431314,-0.435422,0.247398,0.952207,3.988471,-8.939280
1790548339.5087,0.002159,-0.007326,-0.923325,0.000377,-0.004828,-0.923325,0.683856,-0.437850,0.495083,0.645583,4.285911,-8.551168
1790548339.5229,0.005432,-0.014757,-0.918542,0.003916,-0.011778,-0.918542,0.762775,-0.415995,0.661420,0.722239,4.360271,-7.580888
1790548339.5369,-0.010144,-0.018522,-0.906827,-0.005926,-0.016499,-0.906827,0.360894,0.851569,1.022020,2.140375,3.653851,-13.130889
1790548339.5508,-0.007865,-0.018169,-0.890471,-0.007283,-0.017668,-0.890471,-0.003349,-0.212020,1.222354,-3.992103,2.203831,-14.256413
1790548339.5648,-0.000303,-0.015330,-0.868335,-0.002397,-0.016031,-0.868335,-0.152688,-0.713460,1.561100,-1.960720,1.906391,-10.763406
1790548339.5787,-0.001808,-0.015750,-0.841057,-0.001985,-0.015834,-0.841057,-0.084696,-0.181666,1.555029,0.185647,-0.733389,-6.998721
1790548339.5926,0.002531,-0.015461,-0.819245,0.001176,-0.015573,-0.819245,-0.101694,-0.422066,1.261206,-0.925864,-0.175689,-4.553616
1790548339.6065,0.013204,-0.010861,-0.802597,0.009596,-0.012275,-0.802597,-0.277745,-0.866442,1.018378,-1.117504,1.162791,-6.377742
1790548339.6205,0.014138,-0.008166,-0.788396,0.012775,-0.009398,-0.788396,-0.206110,-0.315222,0.972241,1.028863,0.865351,-11.772497
1790548339.6344,0.015109,-0.004751,-0.774863,0.014409,-0.006145,-0.774863,-0.287458,-0.203521,0.837471,-0.925864,0.567911,-13.790679
1790548339.6483,0.017691,0.000757,-0.763251,0.016707,-0.001314,-0.763251,-0.452581,-0.244801,0.629853,-1.845736,0.456371,-13.208511
1790548339.6619,0.021509,0.005429,-0.755714,0.020068,0.003406,-0.755714,-0.476864,-0.315222,0.340887,-1.117504,-0.696209,-10.841028
1790548339.6755,0.024909,0.008726,-0.754427,0.023457,0.007130,-0.754427,-0.355450,-0.256943,0.000927,-0.427600,0.010211,-8.357112
1790548339.6895,0.027083,0.010992,-0.757716,0.025995,0.009833,-0.757716,-0.265603,-0.099104,-0.303823,-0.504256,0.382011,-8.551168
1790548339.7038,0.026031,0.009215,-0.763556,0.026021,0.009400,-0.763556,0.087712,0.228714,-0.543009,-1.615768,2.092291,-11.384385
1790548339.7186,0.026717,0.008412,-0.771313,0.026508,0.008709,-0.771313,0.143563,0.283350,-0.863542,-3.953775,4.769251,-9.909560
1790548339.7329,0.027490,0.008232,-0.781942,0.027195,0.008375,-0.781942,0.109567,0.240855,-0.932748,-2.765607,4.620531,-9.482637
1790548339.7463,0.026454,0.005495,-0.793663,0.026676,0.006359,-0.793663,0.278332,0.327060,-0.980100,-1.424128,3.467951,-8.279490
1790548339.7601,0.023394,-0.001247,-0.806329,0.024378,0.001034,-0.806329,0.574583,0.461829,-0.971601,-1.194160,3.207691,-7.270399
1790548339.7741,0.018934,-0.011060,-0.818761,0.020568,-0.007432,-0.818761,0.821054,0.550462,-0.893896,-1.309144,3.430771,-6.998721
1790548339.7880,0.018666,-0.018525,-0.831162,0.019237,-0.015197,-0.831162,0.533302,0.206859,-0.919393,-1.117504,2.389731,-10.064805
1790548339.8020,0.025423,-0.018042,-0.844959,0.023567,-0.017188,-0.844959,-0.020347,-0.363787,-1.186504,0.798895,4.397451,-15.187882
1790548339.8158,0.023954,-0.015194,-0.863912,0.023838,-0.015792,-0.863912,-0.242535,0.177720,-1.384409,1.910407,2.203831,-9.249770
1790548339.8297,0.023874,-0.009402,-0.880510,0.023863,-0.011319,-0.880510,-0.408872,0.200789,-1.221714,-0.274288,2.017931,-6.649420
1790548339.8436,0.013213,-0.005183,-0.898216,0.016408,-0.007024,-0.898216,-0.465937,0.886779,-1.015310,0.607255,0.010211,-8.939280
1790548339.8574,0.004120,-0.002643,-0.913593,0.007807,-0.003957,-0.913593,-0.305670,0.776292,-0.920607,0.453943,0.382011,-8.667602
1790548339.8714,-0.004113,0.000537,-0.929426,-0.000537,-0.000811,-0.929426,-0.365163,0.681589,-0.901181,1.143847,0.010211,-11.423196
1790548339.8851,-0.011206,0.003485,-0.942736,-0.008005,0.002196,-0.942736,-0.338452,0.569888,-0.756698,1.565455,0.158931,-11.694875
1790548339.8988,-0.012648,0.006124,-0.951126,-0.011255,0.004946,-0.951126,-0.293529,0.157080,-0.547865,0.645583,0.382011,-9.987182
1790548339.9125,-0.009757,0.004786,-0.955209,-0.010207,0.004834,-0.955209,-0.053128,-0.135529,-0.339033,-0.465928,-0.547489,-10.258860
1790548339.9284,-0.001166,0.000435,-0.955281,-0.003878,0.001755,-0.955281,0.200627,-0.520412,-0.125344,-0.350944,0.382011,-8.822846
1790548339.9435,0.004844,-0.005735,-0.955461,0.002227,-0.003488,-0.955461,0.445884,-0.474274,0.071347,0.683911,2.464091,-10.608161
1790548339.9586,0.012016,-0.015194,-0.951695,0.009079,-0.011682,-0.951695,0.728779,-0.622400,0.422234,0.875551,3.356411,-10.491728
1790548339.9733,0.009741,-0.020174,-0.946883,0.009542,-0.017626,-0.946883,0.482308,-0.033541,0.673562,1.297159,4.583351,-12.238231
1790548339.9883,0.005703,-0.016693,-0.934247,0.006855,-0.016973,-0.934247,-0.127191,0.147366,0.975883,-1.270816,3.839751,-13.208511
1790548340.0023,0.008604,-0.015099,-0.916238,0.008079,-0.015661,-0.916238,-0.040987,-0.401426,1.269705,-0.849208,2.501271,-12.238231
1790548340.0160,0.011251,-0.013114,-0.897323,0.010299,-0.013878,-0.897323,-0.044629,-0.390498,1.376550,-0.580912,1.423051,-5.989630
1790548340.0300,0.009477,-0.013344,-0.876445,0.009724,-0.013504,-0.876445,-0.044629,-0.117316,1.372908,-0.082648,-0.175689,-6.028441
1790548340.0441,0.007576,-0.012136,-0.859068,0.008220,-0.012546,-0.859068,0.017292,-0.042040,1.286703,-0.849208,2.203831,-8.473546
1790548340.0581,0.007705,-0.008395,-0.844332,0.007860,-0.009640,-0.844332,-0.255890,-0.119745,0.988025,-1.347472,1.274331,-10.064805
1790548340.0719,0.005902,-0.005488,-0.834036,0.006489,-0.006733,-0.834036,-0.289886,0.008954,0.699059,-0.427600,0.010211,-12.859210
1790548340.0859,0.009028,-0.005807,-0.824940,0.008266,-0.006085,-0.824940,-0.076197,-0.255729,0.490226,-1.309144,-0.250049,-9.870749
1790548340.0998,0.014182,-0.004999,-0.818614,0.012407,-0.005325,-0.818614,-0.118692,-0.316436,0.226757,-1.960720,0.493551,-9.521448
1790548340.1134,0.016287,-0.001283,-0.818164,0.015123,-0.002496,-0.818164,-0.366377,-0.165882,0.044636,-0.465928,0.233291,-10.103616
1790548340.1272,0.021619,0.000533,-0.817449,0.019670,-0.000376,-0.817449,-0.255890,-0.334648,-0.067065,-1.155832,-0.212869,-9.094525
1790548340.1411,0.024275,0.002859,-0.822434,0.022894,0.001889,-0.822434,-0.261961,-0.238731,-0.116845,0.492271,0.307651,-9.793126
1790548340.1553,0.027340,0.007442,-0.826548,0.026006,0.005776,-0.826548,-0.387018,-0.215662,-0.204263,-0.044320,0.939711,-9.754315
1790548340.1693,0.026180,0.008480,-0.834967,0.026128,0.007669,-0.834967,-0.191541,0.114585,-0.407025,0.223975,0.419191,-12.742777
1790548340.1834,0.020630,0.006004,-0.845336,0.022280,0.006504,-0.845336,0.141134,0.521322,-0.646211,-0.657568,2.426911,-12.354665
1790548340.1974,0.017365,0.007029,-0.850922,0.018839,0.006871,-0.850922,0.104710,0.460615,-0.614643,-2.190688,5.103871,-8.318301
1790548340.2116,0.015700,0.005033,-0.857502,0.016642,0.005584,-0.857502,0.234623,0.380482,-0.727558,-2.458983,3.802571,-8.745224
1790548340.2260,0.010053,0.001220,-0.868938,0.012030,0.002529,-0.868938,0.396104,0.594171,-0.804049,-1.040848,3.914111,-7.619700
1790548340.2401,0.008162,-0.003199,-0.881097,0.009322,-0.001481,-0.881097,0.513876,0.427833,-0.895110,-2.037376,4.397451,-6.532986
1790548340.2542,0.021963,-0.007138,-0.891676,0.018170,-0.005441,-0.891676,0.286831,-0.760812,-0.959459,-2.152360,3.207691,-12.820399
1790548340.2681,0.030049,-0.003966,-0.906955,0.026486,-0.004408,-0.906955,-0.217038,-0.440278,-1.266637,0.837223,4.546171,-14.566903
1790548340.2821,0.027853,-0.002020,-0.926012,0.027443,-0.002737,-0.926012,-0.200040,0.307633,-1.334629,1.067191,2.649991,-12.277042
1790548340.2959,0.023502,0.004180,-0.943133,0.024684,0.002105,-0.943133,-0.459866,0.489755,-1.209573,0.147319,1.720491,-5.950818
1790548340.3098,0.010503,0.009179,-0.961577,0.014757,0.007057,-0.961577,-0.484149,0.947486,-1.012882,1.910407,0.493551,-6.765853
1790548340.3238,0.000402,0.015630,-0.978805,0.004708,0.013058,-0.978805,-0.577638,0.877066,-1.072375,0.645583,0.642271,-8.551168
1790548340.3376,-0.008832,0.022204,-0.995012,-0.004770,0.019460,-0.995012,-0.588565,0.799361,-1.011668,1.220503,0.716631,-10.491728
1790548340.3513,-0.014474,0.029121,-1.006632,-0.011563,0.026222,-1.006632,-0.617705,0.578387,-0.804049,0.032335,0.642271,-10.646972
1790548340.3649,-0.015261,0.033621,-1.014411,-0.014151,0.031402,-1.014411,-0.470793,0.147366,-0.575790,0.453943,-0.026969,-11.500819
1790548340.3788,-0.011260,0.035194,-1.021648,-0.012127,0.034056,-1.021648,-0.136904,-0.192593,-0.558793,0.108991,1.869211,-9.754315
1790548340.3927,-0.004389,0.031970,-1.025664,-0.006710,0.032596,-1.025664,0.243122,-0.479131,-0.303823,0.262303,1.720491,-7.153965
1790548340.4067,-0.003103,0.027428,-1.033163,-0.004186,0.028978,-1.033163,0.487165,-0.144028,-0.087705,0.607255,3.356411,-6.494175
1790548340.4207,-0.000693,0.015085,-1.034366,-0.001741,0.019253,-1.034366,0.998319,-0.357717,0.209759,2.293686,4.174371,-10.646972
1790548340.4346,0.002079,0.001866,-1.034265,0.000933,0.007082,-1.034265,1.134303,-0.417210,0.411307,2.063719,4.732071,-9.443825
1790548340.4486,-0.004664,-0.009286,-1.029230,-0.002985,-0.004376,-1.029230,0.904830,0.301563,0.639566,1.488799,4.806431,-14.566903
1790548340.4627,-0.011041,-0.007190,-1.022122,-0.008624,-0.006346,-1.022122,-0.095623,0.424191,0.798618,-3.110559,3.876931,-16.313406
1790548340.4770,-0.008872,-0.008531,-1.006193,-0.008797,-0.007876,-1.006193,0.127779,-0.266656,1.188358,-2.382327,2.501271,-13.286133
1790548340.4909,-0.002540,-0.009990,-0.986462,-0.004417,-0.009355,-0.986462,0.097425,-0.626042,1.272134,-1.079176,0.939711,-9.288581
1790548340.5049,-0.007636,-0.016307,-0.957957,-0.006670,-0.014222,-0.957957,0.227338,0.143724,1.241780,0.032335,-1.365448,-4.980539
1790548340.5189,-0.001968,-0.020538,-0.938438,-0.003378,-0.018643,-0.938438,0.226124,-0.391713,1.028091,-2.152360,-0.138509,-6.183686
1790548340.5329,-0.001748,-0.021175,-0.924364,-0.002237,-0.020415,-0.924364,0.020934,-0.145242,0.910319,-0.619240,0.828171,-11.345574
1790548340.5470,-0.000427,-0.020784,-0.913119,-0.000970,-0.020674,-0.913119,-0.127191,-0.106389,0.577644,-2.114032,-0.510309,-12.936833
1790548340.5611,0.003159,-0.018566,-0.904334,0.001920,-0.019198,-0.904334,-0.255890,-0.261799,0.423448,-1.769080,-0.398769,-12.781588
1790548340.5748,0.006389,-0.015300,-0.899500,0.005049,-0.016469,-0.899500,-0.333595,-0.230232,0.208545,-0.964192,-0.026969,-9.055714
1790548340.5884,0.011979,-0.012671,-0.898683,0.009900,-0.013811,-0.898683,-0.278959,-0.412353,-0.007572,-0.389272,0.196111,-8.318301
1790548340.6020,0.015559,-0.009856,-0.901459,0.013861,-0.011042,-0.901459,-0.252248,-0.278797,-0.136271,0.070663,0.790991,-7.774944
1790548340.6160,0.017426,-0.008162,-0.907239,0.016356,-0.009026,-0.907239,-0.219466,-0.164668,-0.216404,0.607255,0.233291,-10.491728
1790548340.6298,0.021721,-0.005787,-0.910564,0.020111,-0.006759,-0.910564,-0.223108,-0.287296,-0.252829,-0.235960,0.976891,-9.366203
1790548340.6439,0.016927,-0.008024,-0.919266,0.017882,-0.007644,-0.919266,0.082855,0.408407,-0.495657,-0.120976,1.237151,-13.674245
1790548340.6578,0.011488,-0.011086,-0.930505,0.013406,-0.010054,-0.930505,0.402175,0.548033,-0.613429,-1.155832,4.843611,-8.279490
1790548340.6718,0.008662,-0.010970,-0.941292,0.010085,-0.010695,-0.941292,0.201841,0.381696,-0.643782,-1.270816,4.620531,-7.115154
1790548340.6857,0.003852,-0.015201,-0.952151,0.005722,-0.013849,-0.952151,0.397318,0.609955,-0.823475,-2.075704,3.207691,-8.046623
1790548340.6996,0.009757,-0.018612,-0.963051,0.008547,-0.017183,-0.963051,0.307472,-0.224161,-0.897538,-1.462456,3.244871,-9.948371
1790548340.7139,0.015193,-0.016801,-0.979235,0.013199,-0.016916,-0.979235,-0.132048,-0.230232,-1.173148,0.147319,3.319231,-13.829490
1790548340.7284,0.024216,-0.016100,-0.999295,0.020911,-0.016345,-0.999295,-0.122335,-0.443921,-1.432975,0.453943,2.241011,-14.566903
1790548340.7426,0.021480,-0.012623,-1.020075,0.021309,-0.013740,-1.020075,-0.309312,0.300348,-1.346771,1.412143,1.794851,-9.560259
1790548340.7566,0.010486,-0.006888,-1.041530,0.013733,-0.008944,-1.041530,-0.451367,0.932916,-1.321274,0.798895,1.683311,-7.658511
1790548340.7707,-0.000034,-0.002720,-1.060106,0.004096,-0.004587,-1.060106,-0.388232,0.897706,-1.199860,0.913879,1.088431,-10.452916
1790548340.7847,-0.009677,0.003893,-1.077950,-0.005545,0.001349,-1.077950,-0.598278,0.862496,-1.228999,0.837223,0.344831,-11.035084
1790548340.7987,-0.017418,0.011552,-1.094417,-0.013856,0.008491,-1.094417,-0.646844,0.711943,-1.128225,0.952207,0.642271,-10.375294
1790548340.8124,-0.018371,0.016602,-1.104727,-0.017017,0.014169,-1.104727,-0.504789,0.249354,-0.946104,-0.005993,-0.064149,-10.918651
1790548340.8261,-0.017021,0.020955,-1.114216,-0.017019,0.018919,-1.114216,-0.384589,0.030809,-0.770053,0.262303,1.237151,-11.423196
1790548340.8401,-0.012398,0.021712,-1.122182,-0.013785,0.020874,-1.122182,-0.095623,-0.249658,-0.619500,0.492271,1.720491,-11.617252
1790548340.8541,-0.007640,0.021264,-1.131937,-0.009483,0.021147,-1.131937,0.125350,-0.367430,-0.309893,0.952207,3.021791,-8.007811
1790548340.8681,-0.007076,0.017617,-1.138654,-0.007798,0.018676,-1.138654,0.393676,-0.145242,0.044636,1.220503,3.728211,-8.512357
1790548340.8821,-0.004617,0.008262,-1.140180,-0.005571,0.011386,-1.140180,0.807698,-0.301866,0.292321,0.837223,3.988471,-9.521448
1790548340.8959,-0.000614,-0.003080,-1.140581,-0.002101,0.001260,-1.140581,1.052955,-0.488844,0.502368,1.335487,4.806431,-8.085434
1790548340.9099,0.002078,-0.015961,-1.137692,0.000824,-0.010795,-1.137692,1.142802,-0.381999,0.610426,1.028863,4.546171,-8.395923
1790548340.9239,-0.008014,-0.017696,-1.132002,-0.005362,-0.015625,-1.132002,0.254050,0.558961,0.814402,0.683911,5.326951,-15.032637
1790548340.9379,0.000358,-0.015073,-1.117719,-0.001358,-0.015239,-1.117719,-0.149046,-0.670965,1.075443,-2.957247,2.389731,-13.557812
1790548340.9518,0.005304,-0.012729,-1.093756,0.003305,-0.013482,-1.093756,-0.186684,-0.587189,1.343768,-0.274288,0.493551,-8.163056
1790548340.9658,0.006956,-0.011235,-1.063484,0.005861,-0.011909,-1.063484,-0.235250,-0.250872,1.263635,-1.040848,-0.733389,-5.912007
1790548340.9803,0.007014,-0.011614,-1.042833,0.006668,-0.011703,-1.042833,-0.030060,-0.078464,1.049946,-1.079176,0.010211,-4.980539
1790548340.9943,0.011214,-0.013585,-1.031534,0.009850,-0.013020,-1.031534,0.240694,-0.390498,0.920033,-1.040848,1.794851,-6.571797
1790548341.0083,0.015637,-0.013709,-1.016589,0.013901,-0.013502,-1.016589,-0.068912,-0.374715,0.682061,-1.692424,-0.212869,-11.811308
1790548341.0225,0.015455,-0.010659,-1.003481,0.014989,-0.011512,-1.003481,-0.326310,0.013811,0.536364,-2.497311,-0.770569,-12.626343
1790548341.0362,0.021428,-0.006710,-0.993779,0.019496,-0.008151,-0.993779,-0.391874,-0.411139,0.321461,-2.114032,-0.324409,-11.035084
1790548341.0498,0.027062,-0.004093,-0.989580,0.024792,-0.005311,-0.989580,-0.297171,-0.431779,0.079846,-0.542584,-0.101329,-9.482637
1790548341.0637,0.030781,0.000103,-0.989846,0.028984,-0.001521,-0.989846,-0.353022,-0.286082,-0.077992,-0.120976,0.716631,-7.270399
1790548341.0776,0.029359,0.001863,-0.995311,0.029247,0.000847,-0.995311,-0.237678,0.057520,-0.283182,0.913879,0.233291,-9.210958
1790548341.0916,0.022965,-0.004240,-1.002399,0.024849,-0.002714,-1.002399,0.339039,0.533464,-0.492015,-0.235960,0.828171,-12.432287
1790548341.1056,0.020571,-0.006559,-1.015004,0.021854,-0.005406,-1.015004,0.335397,0.327060,-0.540580,-1.577440,5.178231,-9.172147
1790548341.1197,0.016566,-0.007238,-1.027070,0.018152,-0.006688,-1.027070,0.161775,0.450902,-0.623142,-1.347472,4.025651,-9.016902
1790548341.1337,0.011119,-0.010798,-1.038745,0.013229,-0.009565,-1.038745,0.364536,0.586886,-0.635283,-1.500784,3.282051,-7.542077
1790548341.1477,0.008332,-0.019025,-1.050256,0.009801,-0.016187,-1.050256,0.748205,0.358627,-0.629213,-1.232488,4.508991,-8.784035
1790548341.1616,0.012751,-0.021963,-1.061526,0.011866,-0.020230,-1.061526,0.227338,-0.173167,-0.795550,-0.849208,2.575631,-10.685784
1790548341.1758,0.015812,-0.019812,-1.076747,0.014628,-0.019937,-1.076747,-0.198825,-0.093034,-1.152508,0.683911,2.426911,-14.411658
1790548341.1898,0.014803,-0.014705,-1.091936,0.014751,-0.016275,-1.091936,-0.404015,0.118227,-1.226571,2.025391,1.832031,-9.366203
1790548341.2037,0.017735,-0.009776,-1.109620,0.016840,-0.011726,-1.109620,-0.379733,0.066019,-1.157365,-1.692424,1.906391,-8.706413
1790548341.2179,0.005306,-0.008305,-1.126250,0.008766,-0.009331,-1.126250,-0.181827,1.057973,-1.056591,-0.120976,0.939711,-7.386832
1790548341.2323,-0.006325,-0.005158,-1.139620,-0.001798,-0.006410,-1.139620,-0.282601,0.875852,-0.954603,1.335487,1.014071,-8.279490
1790548341.2463,-0.013973,-0.000105,-1.150076,-0.010320,-0.001997,-1.150076,-0.501147,0.662163,-0.931534,0.913879,-0.175689,-11.190329
1790548341.2602,-0.021029,0.005145,-1.160322,-0.017816,0.003003,-1.160322,-0.474436,0.596599,-0.838045,1.105519,0.456371,-10.220049
1790548341.2739,-0.025419,0.009897,-1.167817,-0.023138,0.007828,-1.167817,-0.447725,0.390195,-0.697205,0.952207,0.344831,-9.094525
1790548341.2875,-0.021683,0.010367,-1.170598,-0.022119,0.009605,-1.170598,-0.145403,-0.147670,-0.536938,-0.504256,0.158931,-9.288581
1790548341.3015,-0.015447,0.009056,-1.175318,-0.017448,0.009221,-1.175318,0.103496,-0.418424,-0.351174,0.338959,2.055111,-9.715504
1790548341.3154,-0.007333,0.005373,-1.179479,-0.010368,0.006527,-1.179479,0.319613,-0.588404,-0.205477,0.300631,2.612811,-9.210958
1790548341.3295,-0.002383,0.001052,-1.182425,-0.004778,0.002694,-1.182425,0.404603,-0.458490,0.083489,1.182175,3.356411,-9.599070
1790548341.3435,0.004124,-0.005479,-1.181634,0.001453,-0.003027,-1.181634,0.590367,-0.585975,0.340887,0.530599,3.505131,-9.560259
1790548341.3575,0.006583,-0.013869,-1.180267,0.005044,-0.010616,-1.180267,0.794343,-0.340719,0.599499,0.683911,4.508991,-9.405014
1790548341.3713,-0.000672,-0.013838,-1.173500,0.001043,-0.012871,-1.173500,0.142348,0.337987,0.895750,0.607255,4.546171,-12.354665
1790548341.3853,0.005077,-0.008181,-1.160147,0.003867,-0.009588,-1.160147,-0.346951,-0.502200,1.076657,-2.497311,2.575631,-12.432287
1790548341.3992,0.012936,-0.004851,-1.142521,0.010215,-0.006272,-1.142521,-0.156331,-0.717103,1.342554,-1.385800,1.571771,-7.192776
1790548341.4132,0.011405,-0.002544,-1.118415,0.011048,-0.003663,-1.118415,-0.181827,-0.179238,1.343768,0.300631,0.382011,-7.076343
1790548341.4271,0.007620,-0.003334,-1.095668,0.008648,-0.003432,-1.095668,-0.022775,0.061162,1.158004,-0.120976,-0.138509,-4.902916
1790548341.4412,0.011327,-0.001328,-1.081927,0.010524,-0.001959,-1.081927,-0.101694,-0.286082,0.963742,-2.420655,1.423051,-7.813756
1790548341.4551,0.013749,0.001737,-1.069861,0.012782,0.000628,-1.069861,-0.259533,-0.242373,0.656564,-1.654096,0.828171,-12.548721
1790548341.4692,0.016048,0.003885,-1.058066,0.015068,0.002908,-1.058066,-0.269246,-0.227803,0.441661,-0.925864,-0.584669,-11.966553
1790548341.4834,0.022918,0.005238,-1.048809,0.020563,0.004539,-1.048809,-0.181827,-0.477917,0.288679,-1.615768,0.047391,-9.831937
1790548341.4971,0.028714,0.008681,-1.043696,0.026269,0.007439,-1.043696,-0.343308,-0.431779,0.095630,-0.772552,0.196111,-9.172147
1790548341.5109,0.033345,0.012585,-1.041605,0.031222,0.011041,-1.041605,-0.388232,-0.344361,-0.058566,-0.389272,0.196111,-8.978091
1790548341.5249,0.036242,0.015067,-1.043323,0.034736,0.013859,-1.043323,-0.263175,-0.170739,-0.254043,-0.504256,0.753811,-10.297672
1790548341.5389,0.036328,0.015438,-1.047313,0.035851,0.014964,-1.047313,-0.045844,0.056306,-0.291681,-0.849208,2.166651,-10.957462
1790548341.5529,0.030321,0.017913,-1.057461,0.031980,0.017029,-1.057461,-0.067698,0.565031,-0.416738,-1.539112,4.694891,-10.103616
1790548341.5668,0.026375,0.018901,-1.069141,0.028057,0.018339,-1.069141,0.074356,0.490969,-0.543009,-2.152360,4.955151,-8.900469
1790548341.5808,0.021765,0.016863,-1.082000,0.023652,0.017306,-1.082000,0.291688,0.533464,-0.635283,-1.500784,4.360271,-7.774944
1790548341.5946,0.016422,0.012292,-1.094769,0.018591,0.013796,-1.094769,0.461668,0.544391,-0.698419,-0.580912,3.839751,-7.503266
1790548341.6085,0.012377,0.003864,-1.108896,0.014241,0.006843,-1.108896,0.731207,0.529821,-0.744556,-1.539112,3.467951,-7.076343
1790548341.6225,0.012025,-0.004725,-1.121046,0.012690,-0.001254,-1.121046,0.897545,0.245712,-0.801621,-1.424128,5.810290,-6.455364
1790548341.6364,0.020817,-0.011914,-1.127831,0.018379,-0.008716,-1.127831,0.572155,-0.548337,-0.737271,0.032335,3.691031,-11.578441
1790548341.6503,0.027616,-0.009195,-1.137530,0.024845,-0.009052,-1.137530,-0.254676,-0.396569,-1.131868,1.642111,3.058971,-17.982287
1790548341.6643,0.026586,-0.003633,-1.144850,0.026063,-0.005259,-1.144850,-0.418585,0.096373,-1.147651,2.217030,2.389731,-9.133336
1790548341.6783,0.020021,0.002598,-1.160712,0.021834,0.000241,-1.160712,-0.467151,0.651235,-1.015310,-0.235960,1.497411,-5.989630
1790548341.6923,0.006808,0.004788,-1.166534,0.011316,0.003424,-1.166534,-0.293529,0.986339,-0.763983,1.105519,0.196111,-7.270399
1790548341.7062,-0.003390,0.009968,-1.174843,0.001022,0.008004,-1.174843,-0.463508,0.812716,-0.822261,1.258831,1.014071,-10.802217
1790548341.7203,-0.015668,0.013168,-1.181432,-0.010661,0.011619,-1.181432,-0.366377,0.903777,-0.766411,2.408670,-0.138509,-12.315854
1790548341.7345,-0.021474,0.017769,-1.187666,-0.018230,0.015924,-1.187666,-0.452581,0.506753,-0.624356,0.530599,-0.026969,-11.539630
1790548341.7482,-0.016956,0.017247,-1.188188,-0.017339,0.016850,-1.188188,-0.098052,-0.289725,-0.339033,0.262303,-0.250049,-12.315854
1790548341.7623,-0.011622,0.015793,-1.188885,-0.013337,0.016110,-1.188885,0.086498,-0.396569,-0.215190,0.645583,1.646131,-9.560259
1790548341.7763,-0.004641,0.011520,-1.186622,-0.007250,0.012897,-1.186622,0.324470,-0.588404,0.060420,0.760567,1.869211,-8.512357
1790548341.7902,-0.001099,0.006735,-1.192750,-0.002944,0.008584,-1.192750,0.526017,-0.418424,0.326317,1.258831,4.174371,-8.357112
1790548341.8042,0.000929,-0.002649,-1.192113,-0.000233,0.000721,-1.192113,0.842908,-0.358931,0.576430,1.603783,4.434631,-9.793126
1790548341.8182,0.002558,-0.014791,-1.187031,0.001721,-0.010137,-1.187031,1.039599,-0.346789,0.798618,1.297159,4.062831,-9.637881
1790548341.8321,-0.009606,-0.017493,-1.178774,-0.006208,-0.015286,-1.178774,0.295330,0.707086,1.063301,-0.120976,3.839751,-13.286133
1790548341.8460,-0.008627,-0.017411,-1.165938,-0.007902,-0.016773,-1.165938,0.017292,-0.182880,1.211427,-2.305671,2.203831,-14.256413
1790548341.8598,-0.002880,-0.018172,-1.157307,-0.004387,-0.017752,-1.157307,0.141134,-0.474274,1.386263,-2.458983,1.906391,-7.736133
1790548341.8738,-0.007238,-0.021019,-1.131288,-0.006383,-0.020039,-1.131288,0.103496,0.096373,1.366837,-0.197632,-0.435949,-6.959909
1790548341.8878,-0.005746,-0.020988,-1.110429,-0.005937,-0.020703,-1.110429,-0.132048,-0.187737,1.207784,-1.845736,-0.956469,-8.512357
1790548341.9016,-0.006516,-0.018989,-1.096175,-0.006342,-0.019503,-1.096175,-0.172114,-0.059038,0.956457,-0.772552,0.679451,-8.939280
1790548341.9156,-0.007406,-0.018243,-1.081029,-0.007087,-0.018621,-1.081029,-0.152688,-0.082106,0.684489,0.415615,-0.361589,-12.160609
1790548341.9296,-0.005982,-0.019538,-1.070709,-0.006314,-0.019263,-1.070709,0.006365,-0.153741,0.468372,-0.734224,-0.026969,-11.229140
1790548341.9434,-0.003947,-0.020718,-1.063115,-0.004657,-0.020282,-1.063115,-0.002134,-0.162240,0.306891,-0.887536,0.010211,-10.375294
1790548341.9571,-0.000167,-0.018696,-1.059840,-0.001514,-0.019172,-1.059840,-0.209753,-0.246016,0.064062,-1.040848,0.567911,-10.064805
1790548341.9708,0.002753,-0.016407,-1.059151,0.001473,-0.017236,-1.059151,-0.242535,-0.185308,-0.137485,-0.427600,0.419191,-9.288581
1790548341.9852,0.005980,-0.014788,-1.061274,0.004628,-0.015523,-1.061274,-0.163615,-0.216876,-0.262542,0.185647,0.828171,-9.210958
1790548341.9992,0.009766,-0.013502,-1.064966,0.008225,-0.014108,-1.064966,-0.138118,-0.265442,-0.352388,0.377287,1.051251,-9.599070
1790548342.0147,0.007612,-0.014442,-1.070805,0.007796,-0.014342,-1.070805,-0.061627,0.206859,-0.541795,0.070663,-0.175689,-9.831937
1790548342.0291,0.003964,-0.017051,-1.083539,0.005113,-0.016238,-1.083539,0.187272,0.378053,-0.721488,-0.465928,2.389731,-10.608161
1790548342.0437,-0.000582,-0.016242,-1.107207,0.001127,-0.016241,-1.107207,0.147205,0.501896,-0.620714,-1.462456,4.471811,-7.153965
1790548342.0579,-0.002995,-0.018435,-1.125078,-0.001759,-0.017777,-1.125078,0.268619,0.380482,-0.797978,-1.577440,3.802571,-9.094525
1790548342.0730,-0.000294,-0.020968,-1.139997,-0.000733,-0.020011,-1.139997,0.207912,-0.010472,-0.834403,-1.079176,3.021791,-10.841028
1790548342.0869,0.005405,-0.018718,-1.154176,0.003564,-0.019106,-1.154176,-0.134476,-0.273941,-0.994670,-0.082648,3.282051,-12.548721
1790548342.1007,0.007209,-0.016493,-1.169437,0.006116,-0.017277,-1.169437,-0.244963,0.002884,-1.315203,0.952207,1.199971,-11.035084
1790548342.1147,0.008660,-0.012308,-1.184452,0.007896,-0.013799,-1.184452,-0.348165,-0.039611,-1.303062,1.565455,1.237151,-7.270399
1790548342.1287,0.009174,-0.002816,-1.207524,0.008791,-0.006111,-1.207524,-0.570353,0.188647,-1.133082,-0.619240,2.947431,-6.416553
1790548342.1427,-0.001611,-0.003829,-1.218072,0.001510,-0.004514,-1.218072,-0.076197,0.898920,-1.061447,0.837223,0.010211,-9.754315
1790548342.1566,-0.009355,-0.004763,-1.231967,-0.006096,-0.004688,-1.231967,-0.030060,0.720442,-1.159793,0.568927,0.679451,-9.754315
1790548342.1707,-0.011777,-0.000618,-1.243343,-0.010073,-0.001839,-1.243343,-0.387018,0.288207,-1.083302,1.182175,0.679451,-10.646972
1790548342.1844,-0.014786,0.002560,-1.249538,-0.013372,0.001240,-1.249538,-0.373662,0.265138,-0.892682,1.757095,-0.212869,-9.831937
1790548342.1982,-0.017585,0.007079,-1.255941,-0.016321,0.005327,-1.255941,-0.412514,0.274851,-0.704490,0.760567,0.605091,-8.628791
1790548342.2118,-0.014638,0.008636,-1.258272,-0.015143,0.007643,-1.258272,-0.221894,-0.067537,-0.523582,-0.964192,0.270471,-9.443825
1790548342.2260,-0.011115,0.004915,-1.261283,-0.012323,0.005734,-1.261283,0.234623,-0.269084,-0.297752,1.220503,1.757671,-12.005364
1790548342.2406,-0.006151,0.003634,-1.267027,-0.008003,0.004264,-1.267027,0.181201,-0.407496,0.019139,0.837223,3.691031,-10.608161
1790548342.2549,-0.003113,0.001452,-1.271236,-0.004580,0.002296,-1.271236,0.286831,-0.389284,0.328745,1.680439,3.765391,-9.249770
1790548342.2689,0.001735,-0.003395,-1.271414,-0.000160,-0.001688,-1.271414,0.487165,-0.453634,0.544863,-0.197632,3.170511,-8.163056
1790548342.2835,0.001501,-0.006746,-1.268792,0.001003,-0.005228,-1.268792,0.353609,-0.125815,0.624996,0.262303,3.356411,-9.405014
1790548342.2978,0.000554,-0.003659,-1.257122,0.000688,-0.004130,-1.257122,-0.172114,-0.026256,1.009879,-2.458983,2.761531,-14.101168
1790548342.3118,0.010883,0.001717,-1.240266,0.007825,-0.000037,-1.240266,-0.334809,-0.851872,1.235710,-3.033903,2.241011,-12.315854
1790548342.3259,0.015437,0.005006,-1.220012,0.013154,0.003493,-1.220012,-0.146617,-0.590832,1.426330,-0.312616,1.497411,-6.843476
1790548342.3398,0.012060,0.009162,-1.193055,0.012388,0.007461,-1.193055,-0.317811,-0.137957,1.319485,1.412143,0.493551,-7.852567
1790548342.3539,0.008862,0.008564,-1.170454,0.009920,0.008233,-1.170454,0.020934,-0.037183,1.244208,0.108991,0.605091,-8.512357
1790548342.3679,0.006855,0.008675,-1.155910,0.007774,0.008543,-1.155910,0.033076,-0.040826,1.058445,-0.580912,1.794851,-9.443825
1790548342.3819,0.012982,0.009554,-1.137334,0.011420,0.009251,-1.137334,-0.119906,-0.527697,0.848398,-1.999048,0.382011,-11.462007
1790548342.3961,0.015622,0.013188,-1.121053,0.014361,0.012007,-1.121053,-0.328739,-0.293367,0.674776,-0.925864,0.196111,-10.452916
1790548342.4103,0.022885,0.018473,-1.108024,0.020328,0.016533,-1.108024,-0.442868,-0.517983,0.438018,-2.152360,0.344831,-10.724595
1790548342.4244,0.028639,0.024251,-1.100550,0.026145,0.021935,-1.100550,-0.493862,-0.482773,0.167264,-0.082648,0.456371,-10.336483
1790548342.4379,0.030092,0.027351,-1.099566,0.028908,0.025726,-1.099566,-0.312955,-0.187737,-0.058566,0.798895,0.716631,-9.715504
1790548342.4518,0.032439,0.029342,-1.102079,0.031380,0.028257,-1.102079,-0.145403,-0.145242,-0.171481,-0.580912,2.501271,-11.267951
1790548342.4658,0.030804,0.031807,-1.115757,0.030977,0.030742,-1.115757,-0.091981,0.248140,-0.437378,-1.424128,4.508991,-10.802217
1790548342.4799,0.026855,0.033887,-1.136311,0.028091,0.032944,-1.136311,-0.010633,0.450902,-0.579433,-1.347472,5.289771,-9.599070
1790548342.4941,0.022371,0.033699,-1.156819,0.024087,0.033472,-1.156819,0.138706,0.495825,-0.687492,-0.849208,4.285911,-7.969000
1790548342.5080,0.019676,0.031025,-1.175604,0.021000,0.031759,-1.175604,0.308686,0.395051,-0.728772,-1.040848,4.100011,-8.124245
1790548342.5221,0.016301,0.024904,-1.193235,0.017711,0.026961,-1.193235,0.549086,0.410835,-0.744556,-0.504256,3.691031,-7.503266
1790548342.5361,0.015782,0.014872,-1.210534,0.016360,0.018499,-1.210534,0.851407,0.242070,-0.694776,-1.040848,3.207691,-6.261308
1790548342.5501,0.010704,0.003609,-1.224258,0.012401,0.008076,-1.224258,1.076024,0.529821,-0.702061,-0.657568,5.364131,-6.222497
1790548342.5639,0.016226,-0.000239,-1.238683,0.015079,0.002255,-1.238683,0.273476,-0.197450,-0.759126,-2.037376,2.798711,-12.548721
1790548342.5778,0.019881,0.005603,-1.241632,0.018440,0.004599,-1.241632,-0.479292,-0.208377,-1.164649,3.213558,3.058971,-16.352217
1790548342.5919,0.019513,0.011144,-1.257576,0.019191,0.009180,-1.257576,-0.452581,0.234785,-1.140367,-0.389272,1.906391,-9.870749
1790548342.6057,0.010681,0.017338,-1.275075,0.013234,0.014891,-1.275075,-0.504789,0.883137,-0.889039,-0.734224,0.939711,-5.252217
1790548342.6196,-0.002200,0.019347,-1.283722,0.002430,0.018010,-1.283722,-0.277745,1.093183,-0.742128,-0.159304,0.233291,-6.377742
1790548342.6335,-0.012099,0.022546,-1.285429,-0.007741,0.021185,-1.285429,-0.346951,0.766579,-0.744556,1.373815,0.419191,-8.978091
1790548342.6472,-0.021452,0.025112,-1.284913,-0.017338,0.023934,-1.284913,-0.340880,0.731369,-0.665637,1.833751,-0.250049,-11.927742
1790548342.6608,-0.020297,0.024581,-1.281143,-0.019410,0.024387,-1.281143,-0.090767,-0.101533,-0.455590,1.948735,0.047391,-12.082986
1790548342.6748,-0.016913,0.026691,-1.280949,-0.017662,0.026000,-1.280949,-0.179399,-0.270298,-0.309893,1.297159,1.683311,-10.064805
1790548342.6888,-0.009330,0.023391,-1.277233,-0.011829,0.024173,-1.277233,0.184843,-0.576262,-0.149627,0.607255,1.162791,-9.560259
1790548342.7028,-0.002811,0.018993,-1.280061,-0.005517,0.020547,-1.280061,0.431314,-0.561692,0.145410,0.530599,2.873071,-7.270399
1790548342.7166,0.000113,0.011751,-1.281910,-0.001576,0.014390,-1.281910,0.692355,-0.384428,0.401594,1.067191,3.765391,-8.046623
1790548342.7312,-0.001793,-0.001314,-1.279600,-0.001728,0.003397,-1.279600,1.060240,-0.084535,0.604356,1.527127,4.025651,-8.784035
1790548342.7466,-0.009507,-0.012174,-1.272862,-0.007173,-0.007503,-1.272862,0.846551,0.277280,0.797404,2.025391,4.992331,-12.277042
1790548342.7605,-0.013701,-0.011402,-1.263222,-0.011743,-0.010232,-1.263222,-0.008205,0.164364,0.998952,-1.002520,3.616671,-16.895574
1790548342.7745,-0.007379,-0.009637,-1.253732,-0.008688,-0.009815,-1.253732,-0.079840,-0.521626,1.234495,-2.343999,1.757671,-8.861658
1790548342.7886,-0.005849,-0.011331,-1.223935,-0.006701,-0.010876,-1.223935,0.035504,-0.362573,1.296417,0.108991,-0.101329,-5.407462
1790548342.8026,-0.007047,-0.015150,-1.188973,-0.006943,-0.013867,-1.188973,0.111995,-0.170739,1.278204,0.223975,-0.807749,-5.601518
1790548342.8166,-0.007106,-0.016617,-1.172877,-0.007057,-0.015792,-1.172877,0.059787,-0.056609,1.099726,-2.152360,0.419191,-9.599070
1790548342.8304,-0.002423,-0.015254,-1.161905,-0.003814,-0.015415,-1.161905,-0.135690,-0.340719,0.762194,-2.727279,0.753811,-11.384385
1790548342.8444,-0.002146,-0.016257,-1.149482,-0.002646,-0.016004,-1.149482,-0.020347,-0.071179,0.508438,-1.040848,-0.138509,-12.548721
1790548342.8584,-0.001652,-0.019815,-1.138066,-0.001950,-0.018672,-1.138066,0.119280,-0.033541,0.385810,-1.385800,-0.844929,-10.181238
1790548342.8723,0.001696,-0.021977,-1.130651,0.000602,-0.020986,-1.130651,0.061001,-0.216876,0.215830,-1.309144,-0.101329,-9.948371
1790548342.8859,0.001179,-0.021278,-1.128219,0.001006,-0.021190,-1.128219,-0.121120,0.033237,-0.025784,-0.159304,0.456371,-9.405014
1790548342.8994,0.002511,-0.020786,-1.128893,0.002060,-0.020908,-1.128893,-0.076197,-0.071179,-0.176338,-0.312616,0.939711,-9.016902
1790548342.9134,0.001224,-0.020087,-1.131457,0.001475,-0.020333,-1.131457,-0.090767,0.057520,-0.209120,0.798895,1.014071,-9.793126
1790548342.9274,0.000798,-0.019730,-1.134540,0.001001,-0.019911,-1.134540,-0.071341,0.018667,-0.281968,0.645583,1.014071,-10.297672
1790548342.9413,-0.001673,-0.019092,-1.139115,-0.000871,-0.019338,-1.139115,-0.132048,0.154651,-0.409453,1.258831,0.419191,-10.414105
1790548342.9553,-0.007821,-0.023295,-1.147365,-0.005736,-0.022108,-1.147365,0.246765,0.545605,-0.651067,-0.197632,1.162791,-11.733686
1790548342.9693,-0.009144,-0.027459,-1.161918,-0.008121,-0.025854,-1.161918,0.356037,0.216573,-0.668065,-0.619240,3.170511,-11.500819
1790548342.9832,-0.005330,-0.025398,-1.176528,-0.006167,-0.025535,-1.176528,-0.073769,-0.163454,-0.653496,-0.504256,3.096151,-10.181238
1790548342.9977,-0.003628,-0.024467,-1.191192,-0.004390,-0.024787,-1.191192,-0.053128,0.042950,-0.872041,-0.849208,2.426911,-11.345574
1790548343.0117,-0.000546,-0.020058,-1.214747,-0.001699,-0.021477,-1.214747,-0.229179,-0.066323,-1.150080,0.108991,3.691031,-10.142427
1790548343.0257,0.001991,-0.012940,-1.233707,0.000884,-0.015501,-1.233707,-0.516931,0.000455,-1.249639,-0.005993,1.794851,-8.163056
1790548343.0395,0.004515,-0.005634,-1.259097,0.003426,-0.008594,-1.259097,-0.421013,0.012597,-1.186504,-0.197632,3.058971,-7.076343
1790548343.0535,-0.005143,-0.003328,-1.275830,-0.002572,-0.004908,-1.275830,-0.197611,0.846712,-1.112441,0.530599,1.794851,-9.599070
1790548343.0674,-0.013341,-0.001515,-1.288625,-0.010110,-0.002533,-1.288625,-0.214609,0.726512,-1.161007,1.182175,0.939711,-10.569350
1790548343.0814,-0.018547,0.004672,-1.299240,-0.016016,0.002511,-1.299240,-0.552141,0.517680,-1.158579,1.297159,0.493551,-12.160609
1790548343.0952,-0.023359,0.010798,-1.305789,-0.021156,0.008312,-1.305789,-0.581280,0.455759,-1.008025,1.297159,-0.138509,-9.521448
1790548343.1089,-0.026675,0.018501,-1.314715,-0.025020,0.015444,-1.314715,-0.622561,0.405979,-0.846544,0.070663,1.051251,-9.055714
1790548343.1225,-0.025245,0.021214,-1.317131,-0.025178,0.019483,-1.317131,-0.306884,0.057520,-0.620714,-0.619240,0.307651,-9.210958
1790548343.1366,-0.022208,0.018914,-1.316061,-0.023099,0.019085,-1.316061,0.075571,-0.134314,-0.314750,-0.504256,0.642271,-11.073895
1790548343.1506,-0.020452,0.018378,-1.326128,-0.021246,0.018590,-1.326128,0.150847,-0.218090,0.009426,1.488799,4.062831,-10.336483
1790548343.1645,-0.017768,0.015414,-1.329770,-0.018812,0.016367,-1.329770,0.319613,-0.338290,0.316604,1.373815,4.062831,-10.918651
1790548343.1786,-0.015938,0.009478,-1.336718,-0.016800,0.011545,-1.336718,0.613436,-0.316436,0.583715,1.028863,4.397451,-8.357112
1790548343.1926,-0.015117,0.002148,-1.338018,-0.015622,0.004967,-1.338018,0.705710,-0.278797,0.726984,1.143847,3.914111,-8.046623
1790548343.2066,-0.009489,-0.007200,-1.336332,-0.011329,-0.003550,-1.336332,0.838052,-0.592046,0.777978,0.530599,3.505131,-7.852567
1790548343.2206,-0.006140,-0.015457,-1.329358,-0.007697,-0.011885,-1.329358,0.719066,-0.436636,0.884822,0.683911,4.360271,-12.859210
1790548343.2348,-0.010991,-0.010909,-1.320348,-0.010003,-0.011202,-1.320348,-0.258318,0.202003,0.962528,-0.657568,3.393591,-14.334035
1790548343.2489,-0.002493,-0.006686,-1.306407,-0.004746,-0.008040,-1.306407,-0.237678,-0.689177,1.283061,-3.072231,2.501271,-11.462007
1790548343.2631,-0.002017,-0.001888,-1.279843,-0.002835,-0.003734,-1.279843,-0.319026,-0.367430,1.393548,1.258831,1.608951,-10.957462
1790548343.2771,-0.007606,-0.001231,-1.244830,-0.006175,-0.001982,-1.244830,-0.179399,0.114585,1.175002,0.722239,-0.510309,-7.037532
1790548343.2911,-0.003999,-0.002117,-1.222037,-0.004652,-0.002076,-1.222037,-0.017918,-0.379571,0.975883,-0.772552,0.047391,-6.338930
1790548343.3051,0.000641,0.000517,-1.206227,-0.000947,-0.000261,-1.206227,-0.251034,-0.408711,0.622568,-1.079176,0.530731,-10.918651
