t,imu_roll,imu_pitch,imu_yaw,lpf_roll,lpf_pitch,lpf_yaw,gyro_x,gyro_y,gyro_z,acc_x,acc_y,acc_z
1790548997.8020,-0.019674,-0.046745,0.006231,-0.013772,-0.032722,0.006231,-0.000595,0.009923,0.003658,0.300631,1.274331,-9.831937
1790548997.8175,-0.009799,-0.056737,0.010082,-0.010991,-0.049532,0.010082,-0.000595,-0.013146,-0.002413,0.108991,1.125611,-10.103616
1790548997.8314,-0.014050,-0.056361,0.007573,-0.013132,-0.054312,0.007573,0.018831,0.001424,-0.003627,0.338959,1.237151,-9.987182
1790548997.8451,-0.010456,-0.059769,0.009462,-0.011259,-0.058132,0.009462,0.018831,0.000209,0.003658,0.108991,1.125611,-10.297672
1790548997.8593,-0.014315,-0.059472,0.006675,-0.013398,-0.059070,0.006675,-0.023664,-0.002219,-0.002413,0.415615,1.199971,-10.064805
1790548997.8735,-0.010930,-0.055548,0.008942,-0.011671,-0.056604,0.008942,-0.122009,-0.026502,-0.001198,0.070663,1.385871,-10.297672
1790548997.8878,-0.013449,-0.052813,0.008121,-0.012915,-0.053950,0.008121,-0.177860,0.035420,0.025513,0.377287,1.311511,-10.297672
1790548997.9021,-0.015922,-0.052717,0.008357,-0.015020,-0.053087,0.008357,-0.174217,0.079129,0.088648,0.377287,1.162791,-10.646972
1790548997.9161,-0.012435,-0.049973,0.014763,-0.013210,-0.050907,0.014763,-0.226425,0.082771,0.202778,-0.159304,1.199971,-9.521448
1790548997.9303,-0.009537,-0.049177,0.020792,-0.010639,-0.049696,0.020792,-0.221569,-0.053213,0.337547,-0.044320,1.088431,-9.948371
1790548997.9442,-0.004433,-0.049706,0.028433,-0.006295,-0.049703,0.028433,-0.206999,-0.229263,0.488101,-0.120976,0.902531,-9.405014
1790548997.9581,-0.014281,-0.051507,0.021946,-0.011885,-0.050966,0.021946,-0.163290,-0.025288,0.643511,1.182175,0.790991,-9.482637
1790548997.9722,-0.009884,-0.054977,0.040604,-0.010484,-0.053774,0.040604,-0.169361,-0.027716,0.670222,-0.389272,0.530731,-9.560259
1790548997.9862,-0.008080,-0.047112,0.057635,-0.008801,-0.049110,0.057635,-0.198500,-0.024073,0.577947,-0.120976,1.943571,-9.637881
1790548998.0001,-0.005205,-0.049229,0.064352,-0.006284,-0.049193,0.064352,-0.148720,0.013565,0.341190,-0.389272,0.790991,-11.035084
1790548998.0141,-0.009659,-0.050959,0.056292,-0.008647,-0.050430,0.056292,-0.103797,0.045133,0.271984,0.798895,0.939711,-11.539630
1790548998.0279,-0.016213,-0.050135,0.046915,-0.013943,-0.050224,0.046915,-0.039447,0.040276,0.312050,1.105519,1.311511,-9.715504
1790548998.0419,-0.020295,-0.049845,0.044901,-0.018390,-0.049959,0.044901,0.023688,0.085199,0.284125,0.683911,1.348691,-9.521448
1790548998.0555,-0.022321,-0.049092,0.045454,-0.021141,-0.049352,0.045454,0.009118,0.070630,0.194279,0.415615,1.311511,-8.900469
1790548998.0692,-0.024114,-0.049279,0.048456,-0.023222,-0.049301,0.048456,0.043114,0.173832,0.125072,0.185647,1.237151,-8.939280
1790548998.0831,-0.025918,-0.049203,0.050543,-0.025109,-0.049232,0.050543,-0.007880,0.147121,0.104432,0.300631,1.348691,-10.375294
1790548998.0970,-0.026345,-0.047805,0.051433,-0.025974,-0.048233,0.051433,-0.063730,-0.003433,0.111717,0.453943,1.497411,-10.452916
1790548998.1109,-0.024372,-0.041032,0.053336,-0.024853,-0.043193,0.053336,-0.239781,-0.190411,0.176066,0.415615,2.092291,-9.599070
1790548998.1249,-0.019264,-0.040037,0.055956,-0.020941,-0.040984,0.055956,-0.295631,-0.445381,0.121430,0.530599,0.753811,-10.918651
1790548998.1388,-0.014370,-0.035928,0.052984,-0.016341,-0.037445,0.052984,-0.447399,-0.560724,0.007301,0.952207,0.939711,-10.220049
1790548998.1533,-0.015499,-0.038965,0.052084,-0.015752,-0.038509,0.052084,-0.198500,-0.066568,-0.239170,1.373815,-0.138509,-15.187882
1790548998.1672,-0.012730,-0.036137,0.044053,-0.013637,-0.036848,0.044053,0.114749,0.012351,-0.624053,-0.235960,2.798711,-10.957462
1790548998.1812,-0.010916,-0.024059,0.019808,-0.011732,-0.027896,0.019808,-0.210642,-0.135774,-0.903306,0.683911,3.653851,-8.861658
1790548998.1952,0.000087,-0.016547,0.007830,-0.003459,-0.019952,0.007830,-0.134151,-0.262045,-0.877809,-1.117504,2.426911,-7.503266
1790548998.2092,-0.008907,-0.009063,0.004744,-0.007273,-0.012330,0.004744,0.030973,0.532004,-0.622839,0.875551,3.170511,-7.619700
1790548998.2232,-0.008020,-0.007529,-0.016282,-0.007796,-0.008969,-0.016282,-0.030948,0.318315,-0.817102,-0.810880,2.017931,-10.181238
1790548998.2370,-0.012534,-0.004672,-0.027043,-0.011112,-0.005961,-0.027043,-0.124437,0.406947,-1.018649,0.645583,1.980751,-9.831937
1790548998.2510,-0.016318,-0.002788,-0.045095,-0.014756,-0.003740,-0.045095,-0.209427,0.535646,-1.047789,-0.044320,1.162791,-8.900469
1790548998.2657,-0.016544,-0.000875,-0.063230,-0.016008,-0.001735,-0.063230,-0.198500,0.318315,-0.854740,-0.350944,1.125611,-8.395923
1790548998.2807,-0.018462,0.000986,-0.076356,-0.017725,0.000170,-0.076356,-0.152363,0.318315,-0.660478,-0.044320,1.646131,-10.530539
1790548998.2954,-0.021532,0.004162,-0.082644,-0.020390,0.002965,-0.082644,-0.248280,0.258822,-0.422506,0.530599,1.757671,-10.918651
1790548998.3100,-0.021072,0.005996,-0.088118,-0.020867,0.005087,-0.088118,-0.206999,0.113125,-0.122613,-0.312616,1.497411,-10.608161
1790548998.3256,-0.024124,0.007833,-0.087556,-0.023147,0.007009,-0.087556,-0.102583,0.280676,0.196707,-0.274288,1.869211,-9.327392
1790548998.3401,-0.019940,0.004250,-0.082146,-0.020902,0.005078,-0.082146,0.216737,-0.117562,0.591303,-1.232488,1.832031,-10.142427
1790548998.3542,-0.019218,-0.001724,-0.061346,-0.019723,0.000317,-0.061346,0.511773,-0.302112,0.915479,0.875551,2.798711,-11.578441
1790548998.3681,-0.025250,0.000278,-0.002346,-0.023592,0.000290,-0.002346,0.377003,-0.118776,1.146166,2.063719,4.471811,-8.473546
1790548998.3822,-0.023080,-0.003157,0.018012,-0.023234,-0.002123,0.018012,0.497203,-0.388316,1.346499,0.300631,3.393591,-9.521448
1790548998.3964,-0.023571,-0.005926,0.048027,-0.023470,-0.004785,0.048027,0.572480,-0.337322,1.466699,0.875551,3.691031,-8.240679
1790548998.4110,-0.028127,-0.009061,0.069644,-0.026730,-0.007778,0.069644,0.682967,-0.055641,1.732597,0.683911,3.765391,-6.959909
1790548998.4256,-0.034184,-0.008751,0.081662,-0.031948,-0.008459,0.081662,0.186383,0.173832,1.888007,0.147319,3.988471,-11.112707
1790548998.4398,-0.036381,-0.009264,0.064904,-0.035051,-0.009022,0.064904,0.102607,0.117981,2.072556,-1.232488,3.133331,-11.229140
1790548998.4538,-0.035376,-0.016473,0.063068,-0.035278,-0.014238,0.063068,0.095322,-0.172199,1.936572,-0.657568,-0.324409,-9.055714
1790548998.4678,-0.039653,-0.021511,0.081824,-0.038340,-0.019329,0.081824,0.124462,0.066987,1.608754,0.338959,0.493551,-8.357112
1790548998.4818,-0.032954,-0.026207,0.075447,-0.034570,-0.024143,0.075447,0.173027,-0.446595,1.257867,-0.580912,0.605091,-6.455364
1790548998.4958,-0.035158,-0.031271,0.082232,-0.034981,-0.029133,0.082232,0.147530,0.059702,0.852344,0.338959,0.382011,-11.462007
1790548998.5093,-0.038667,-0.036030,0.093647,-0.037561,-0.033961,0.093647,0.117177,0.128909,0.603444,1.028863,0.121751,-13.519000
1790548998.5229,-0.041219,-0.041132,0.091502,-0.040122,-0.038981,0.091502,0.153601,0.227254,0.443178,-0.159304,0.121751,-15.420749
1790548998.5369,-0.042928,-0.043206,0.090251,-0.042086,-0.041938,0.090251,0.129318,0.151977,0.213705,0.147319,1.162791,-8.900469
1790548998.5508,-0.038902,-0.043395,0.102625,-0.039857,-0.042958,0.102625,0.088037,-0.387102,0.099575,0.952207,1.757671,-9.133336
1790548998.5647,-0.034388,-0.034947,0.144497,-0.036029,-0.037350,0.144497,-0.514177,-0.667569,0.036440,2.676966,2.129471,-9.831937
1790548998.5781,-0.024035,-0.024843,0.169271,-0.027633,-0.028595,0.169271,-1.127319,-0.963819,-0.264667,2.446998,-1.551348,-13.480189
1790548998.5921,-0.019743,-0.013984,0.205858,-0.022110,-0.018368,0.205858,-1.118820,-0.744060,-0.254954,4.248414,-1.068009,-10.996273
1790548998.6061,-0.006449,-0.002386,0.216556,-0.011147,-0.007181,0.216556,-1.035044,-1.252785,-0.448003,1.833751,0.084571,-6.144874
1790548998.6202,-0.026622,-0.005477,0.199239,-0.021980,-0.005988,0.199239,0.158458,0.938741,-0.554847,5.666549,1.014071,-10.025993
1790548998.6343,-0.020428,-0.007316,0.150947,-0.020894,-0.006918,0.150947,0.346650,0.162904,-0.806175,-3.302199,2.947431,-9.327392
1790548998.6485,-0.003558,-0.003345,0.101048,-0.008759,-0.004417,0.101048,0.237377,-0.551011,-0.922732,-3.877119,5.661571,-8.357112
1790548998.6628,-0.012612,-0.011943,0.095225,-0.011456,-0.009685,0.095225,0.534842,0.723838,-0.917876,0.913879,1.088431,-10.996273
1790548998.6768,-0.005223,-0.011798,0.067475,-0.007093,-0.011164,0.067475,0.071039,-0.025288,-1.080571,-2.114032,1.832031,-8.473546
1790548998.6908,-0.001644,-0.017722,0.066753,-0.003278,-0.015754,0.066753,0.319939,-0.230478,-0.908162,1.105519,0.716631,-10.297672
1790548998.7049,0.005069,-0.022955,0.045121,0.002565,-0.020795,0.045121,0.436496,-0.138203,-0.996795,-1.270816,1.757671,-8.667602
1790548998.7190,0.011165,-0.023403,0.035628,0.008585,-0.022620,0.035628,0.194882,-0.309397,-0.903306,0.070663,2.278191,-7.658511
1790548998.7328,0.017591,-0.026584,0.021507,0.014889,-0.025395,0.021507,0.335722,-0.258403,-0.665334,-0.887536,2.278191,-9.249770
1790548998.7464,0.023821,-0.033154,0.007271,0.021141,-0.030827,0.007271,0.494775,-0.220764,-0.346015,-1.615768,1.497411,-9.560259
1790548998.7599,0.030270,-0.040983,0.000562,0.027532,-0.037936,0.000562,0.596763,-0.334894,0.002444,-1.462456,1.646131,-10.569350
1790548998.7737,0.032262,-0.046858,0.011714,0.030843,-0.044182,0.011714,0.502060,-0.240191,0.358188,0.185647,2.278191,-11.888930
1790548998.7877,0.029082,-0.047786,0.024407,0.029610,-0.046705,0.024407,0.200953,0.148335,0.599802,-0.235960,3.133331,-12.936833
1790548998.8016,0.020602,-0.043645,0.024648,0.023305,-0.044563,0.024648,-0.271349,0.666773,0.832917,-2.075704,2.129471,-13.907112
1790548998.8154,0.011945,-0.037590,0.025574,0.015353,-0.039682,0.025574,-0.463183,0.726266,1.120669,-2.535639,1.348691,-11.423196
1790548998.8294,0.002701,-0.034852,0.032785,0.006497,-0.036301,0.032785,-0.491108,0.737194,1.251796,-1.424128,-0.807749,-6.532986
1790548998.8434,0.001046,-0.032251,0.043735,0.002681,-0.033466,0.043735,-0.357553,0.179902,1.368354,-1.347472,0.010211,-5.834385
1790548998.8574,-0.001583,-0.030384,0.057398,-0.000304,-0.031308,0.057398,-0.220355,0.160476,1.450916,-1.577440,0.865351,-9.948371
1790548998.8712,-0.005812,-0.039199,0.073918,-0.004160,-0.036831,0.073918,0.545769,0.130123,1.676746,-0.619240,1.237151,-14.916203
1790548998.8852,-0.006823,-0.037793,0.101331,-0.006024,-0.037505,0.101331,-0.080728,-0.077496,1.752023,-0.925864,2.389731,-12.626343
1790548998.8993,-0.014957,-0.035081,0.132233,-0.012277,-0.035808,0.132233,-0.162076,0.323171,1.777520,0.262303,1.832031,-8.861658
1790548998.9137,-0.018071,-0.042782,0.145922,-0.016333,-0.040690,0.145922,0.304155,0.124052,1.789661,-1.155832,-0.324409,-9.094525
1790548998.9279,-0.025297,-0.047906,0.174940,-0.022608,-0.045741,0.174940,0.345436,0.205399,1.397493,1.105519,1.088431,-7.115154
1790548998.9420,-0.026989,-0.051706,0.182221,-0.025675,-0.049917,0.182221,0.125676,0.267321,0.841416,-2.305671,0.158931,-10.646972
1790548998.9560,-0.036387,-0.058988,0.183492,-0.033173,-0.056267,0.183492,0.390359,0.569642,0.628941,0.952207,0.233291,-12.471098
1790548998.9697,-0.048888,-0.067512,0.195482,-0.044173,-0.064138,0.195482,0.560339,0.700769,0.599802,2.523654,0.865351,-12.082986
1790548998.9833,-0.055614,-0.072784,0.210262,-0.052182,-0.070191,0.210262,0.468064,0.411804,0.378828,1.105519,2.017931,-10.025993
1790548998.9972,-0.054173,-0.075339,0.213337,-0.053576,-0.073795,0.213337,0.186383,-0.130918,0.112931,0.875551,1.237151,-10.802217
1790548999.0112,-0.045863,-0.071659,0.211217,-0.048177,-0.072300,0.211217,-0.294417,-0.620217,-0.145681,1.105519,0.790991,-11.345574
1790548999.0251,-0.035925,-0.065510,0.220177,-0.039600,-0.067547,0.220177,-0.641662,-0.945607,-0.276809,3.481854,-1.291089,-10.763406
1790548999.0391,-0.033646,-0.055628,0.246192,-0.035432,-0.059204,0.246192,-0.841995,-0.554653,-0.381225,4.899989,-0.547489,-8.745224
1790548999.0532,-0.023249,-0.039275,0.248072,-0.026904,-0.045254,0.248072,-1.268159,-0.973533,-0.429791,2.945262,0.010211,-8.279490
1790548999.0675,-0.009413,-0.019071,0.255612,-0.014661,-0.026926,0.255612,-1.520701,-1.337775,-0.418863,2.715294,0.158931,-5.174595
1790548999.0815,0.007439,0.005225,0.257480,0.000809,-0.004420,0.257480,-1.835164,-1.530824,-0.457716,2.140375,0.307651,-4.708860
1790548999.0956,-0.007509,0.017336,0.239342,-0.005014,0.010809,0.239342,-0.707226,1.462037,-0.902092,-1.385800,2.278191,-6.261308
1790548999.1096,-0.008588,0.002748,0.224368,-0.007515,0.005166,0.224368,1.162553,0.585426,-1.062359,-6.291782,5.624391,-18.680889
1790548999.1236,0.003458,0.012426,0.203177,0.000166,0.010248,0.203177,-0.421902,-0.526728,-1.551658,-0.772552,6.182090,-12.277042
1790548999.1376,-0.011339,0.013767,0.200533,-0.007887,0.012712,0.200533,0.097751,0.803972,-1.274833,4.785005,2.910251,-6.183686
1790548999.1515,-0.007428,0.014544,0.175181,-0.007566,0.013995,0.175181,-0.100155,0.243038,-1.371965,-2.343999,0.902531,-8.551168
1790548999.1664,-0.005798,0.011622,0.169631,-0.006328,0.012334,0.169631,0.034615,-0.047142,-0.854740,1.450471,-0.212869,-10.724595
1790548999.1806,0.000161,0.010598,0.149979,-0.001786,0.011119,0.149979,0.194882,-0.064140,-0.965227,-1.692424,2.724351,-8.395923
1790548999.1948,0.001918,0.013668,0.132834,0.000807,0.012903,0.132834,-0.074658,0.184759,-0.792819,-1.500784,2.984611,-8.279490
1790548999.2086,0.003400,0.017932,0.119504,0.002622,0.016423,0.119504,-0.115938,0.164119,-0.610698,-1.577440,3.876931,-8.900469
1790548999.2223,0.004377,0.016540,0.111291,0.003850,0.016505,0.111291,0.096536,0.130123,-0.095901,-2.152360,2.055111,-10.724595
1790548999.2363,0.009807,0.011297,0.110502,0.008020,0.012859,0.110502,0.333294,-0.276615,0.373972,-2.458983,1.646131,-11.190329
1790548999.2503,0.006084,0.011107,0.120899,0.006665,0.011633,0.120899,0.151173,0.230896,0.594945,-0.887536,3.802571,-10.375294
1790548999.2646,0.003862,0.011375,0.130511,0.004703,0.011452,0.130511,0.077110,0.138622,0.813491,-1.654096,3.356411,-10.414105
1790548999.2787,0.007312,0.001681,0.141893,0.006529,0.004612,0.141893,0.656256,-0.365247,1.151022,-1.462456,2.092291,-13.286133
1790548999.2926,0.002244,-0.001790,0.169911,0.003530,0.000131,0.169911,0.412213,0.132551,1.402350,-0.120976,3.579491,-9.094525
1790548999.3066,-0.004838,-0.001295,0.193749,-0.002327,-0.000867,0.193749,0.062540,0.279462,1.521336,-0.274288,3.244871,-10.025993
1790548999.3206,-0.010857,-0.004442,0.219981,-0.008298,-0.003369,0.219981,0.251947,0.132551,1.782376,0.070663,2.575631,-10.297672
1790548999.3349,-0.018349,-0.008577,0.248103,-0.015334,-0.007015,0.248103,0.284728,0.201757,1.846726,0.338959,1.832031,-8.240679
1790548999.3489,-0.022493,-0.012466,0.270939,-0.020345,-0.010830,0.270939,0.168171,-0.003433,1.878294,0.147319,0.865351,-8.201867
1790548999.3628,-0.030737,-0.022378,0.294174,-0.027619,-0.018914,0.294174,0.514201,0.261250,1.822443,0.760567,-0.026969,-8.395923
1790548999.3768,-0.037622,-0.032570,0.312174,-0.034621,-0.028473,0.312174,0.539698,0.252751,1.560188,0.377287,0.010211,-6.727042
1790548999.3910,-0.043295,-0.037858,0.324200,-0.040693,-0.035043,0.324200,0.245876,0.272177,1.223871,0.032335,0.642271,-10.918651
1790548999.4052,-0.038381,-0.042112,0.320516,-0.039075,-0.039991,0.320516,0.162100,-0.195267,0.641083,-2.727279,0.121751,-10.646972
1790548999.4203,-0.047995,-0.049911,0.325013,-0.045319,-0.046935,0.325013,0.377003,0.518648,0.427394,1.680439,-0.398769,-11.190329
1790548999.4341,-0.055412,-0.059859,0.325291,-0.052384,-0.055982,0.325291,0.631973,0.501650,0.270769,0.722239,0.307651,-10.103616
1790548999.4478,-0.060139,-0.067567,0.330910,-0.057812,-0.064092,0.330910,0.599191,0.281890,0.149355,1.143847,1.460231,-8.784035
1790548999.4618,-0.057402,-0.067543,0.332393,-0.057525,-0.066508,0.332393,0.007904,-0.231692,-0.064334,1.565455,1.534591,-12.859210
1790548999.4759,-0.049287,-0.059676,0.330027,-0.051759,-0.061726,0.330027,-0.635591,-0.629930,-0.329017,2.446998,0.010211,-14.411658
1790548999.4898,-0.040343,-0.051105,0.329792,-0.043768,-0.054291,0.329792,-0.730294,-0.754987,-0.477142,3.481854,-0.696209,-12.936833
1790548999.5038,-0.037125,-0.037342,0.356369,-0.039118,-0.042427,0.356369,-0.939127,-0.671211,-0.481999,5.436581,1.162791,-5.989630
1790548999.5177,-0.028515,-0.022116,0.358320,-0.031696,-0.028209,0.358320,-1.160101,-0.950464,-0.348443,3.213558,0.307651,-5.523895
1790548999.5317,-0.009533,-0.002268,0.359906,-0.016182,-0.010051,0.359906,-1.441782,-1.448262,-0.307162,1.143847,0.902531,-6.261308
1790548999.5458,0.012433,0.026902,0.352052,0.003848,0.015816,0.352052,-1.999073,-1.487115,-0.564560,0.032335,2.315371,-7.503266
1790548999.5597,-0.009571,0.016891,0.344079,-0.005545,0.016568,0.344079,0.458351,1.788641,-1.053860,1.488799,-3.373168,-21.009560
1790548999.5736,-0.000859,0.004254,0.321675,-0.002265,0.007948,0.321675,0.941579,-0.157629,-1.269977,-3.302199,2.092291,-10.685784
1790548999.5875,0.000358,0.014297,0.265594,-0.000429,0.012393,0.265594,-0.268920,-0.151558,-1.505520,2.983590,4.397451,-3.777392
1790548999.6013,-0.009069,0.020444,0.240072,-0.006477,0.018028,0.240072,-0.191215,0.846466,-1.303973,0.837223,2.612811,-4.747672
1790548999.6154,-0.009511,0.018768,0.218176,-0.008601,0.018546,0.218176,0.088037,0.506507,-1.177702,-3.033903,1.162791,-10.142427
1790548999.6296,0.003040,0.013830,0.202160,-0.000453,0.015245,0.202160,0.301726,-0.536441,-1.087856,-2.075704,1.199971,-10.918651
1790548999.6436,0.003578,0.014383,0.182323,0.002369,0.014642,0.182323,0.041900,0.226040,-1.116995,-0.542584,2.873071,-9.715504
1790548999.6573,0.000733,0.018640,0.166523,0.001224,0.017440,0.166523,-0.186359,0.408161,-0.892379,-0.120976,2.761531,-7.619700
1790548999.6713,0.005304,0.017976,0.149947,0.004080,0.017815,0.149947,0.049185,0.028135,-0.692045,-2.803935,1.794851,-9.366203
1790548999.6850,0.003318,0.016169,0.142572,0.003547,0.016663,0.142572,0.134175,0.279462,-0.186962,-1.079176,1.869211,-9.482637
1790548999.6990,0.007624,0.012338,0.140419,0.006401,0.013636,0.140419,0.264088,-0.179484,0.180923,-2.765607,2.203831,-12.199420
1790548999.7129,0.006295,0.010089,0.144322,0.006327,0.011153,0.144322,0.237377,0.094913,0.401897,-1.117504,3.467951,-11.500819
1790548999.7268,0.004478,0.008780,0.151100,0.005033,0.009492,0.151100,0.162100,0.098555,0.662937,-1.232488,3.058971,-10.452916
1790548999.7408,0.003267,0.002610,0.160983,0.003797,0.004675,0.160983,0.451066,0.000209,1.018681,-1.462456,2.389731,-11.190329
1790548999.7548,0.001041,-0.003972,0.178755,0.001868,-0.001378,0.178755,0.534842,-0.010718,1.313718,-0.849208,3.170511,-11.229140
1790548999.7686,-0.004206,-0.002976,0.202621,-0.002384,-0.002497,0.202621,0.034615,0.183545,1.602683,-0.964192,3.505131,-9.676693
1790548999.7826,-0.010299,-0.005678,0.235542,-0.007924,-0.004724,0.235542,0.214308,0.054846,1.885578,0.760567,1.980751,-7.930189
1790548999.7964,-0.021232,-0.011869,0.280189,-0.017240,-0.009726,0.280189,0.386716,0.281890,2.039774,2.102047,1.237151,-8.201867
1790548999.8103,-0.026155,-0.019669,0.308163,-0.023480,-0.016686,0.308163,0.468064,0.022064,2.066486,0.262303,0.939711,-7.386832
1790548999.8241,-0.036195,-0.030659,0.332715,-0.032380,-0.026467,0.332715,0.612547,0.456727,2.072556,-0.082648,0.121751,-10.220049
1790548999.8381,-0.039171,-0.036699,0.345968,-0.037134,-0.033629,0.345968,0.290799,0.176260,1.745952,-2.343999,0.605091,-9.443825
1790548999.8520,-0.040502,-0.041462,0.353055,-0.039491,-0.039112,0.353055,0.181526,0.132551,1.126740,-2.650623,-0.064149,-12.082986
1790548999.8660,-0.048239,-0.047175,0.363797,-0.045615,-0.044756,0.363797,0.266516,0.422731,0.855986,1.067191,-0.101329,-11.927742
1790548999.8799,-0.058070,-0.055055,0.375021,-0.054334,-0.051965,0.375021,0.465636,0.562357,0.709075,1.527127,0.382011,-10.142427
1790548999.8937,-0.063854,-0.061981,0.384132,-0.060998,-0.058976,0.384132,0.495989,0.330456,0.529382,0.990535,1.348691,-8.628791
1790548999.9075,-0.062673,-0.064964,0.391635,-0.062171,-0.063168,0.391635,0.238591,-0.161271,0.237988,1.373815,1.683311,-9.793126
1790548999.9225,-0.058830,-0.059590,0.398681,-0.059832,-0.060664,0.398681,-0.357553,-0.347035,-0.001198,2.485326,1.460231,-12.005364
1790548999.9369,-0.051623,-0.049474,0.404430,-0.054086,-0.052831,0.404430,-0.760648,-0.598363,-0.235528,3.175230,0.382011,-13.247322
1790548999.9512,-0.038386,-0.040225,0.418259,-0.043096,-0.044007,0.418259,-0.781288,-1.098589,-0.449217,3.826806,-0.993649,-9.521448
1790548999.9656,-0.030329,-0.027045,0.431485,-0.034159,-0.032133,0.431485,-0.956125,-0.855761,-0.329017,4.248414,0.605091,-7.115154
1790548999.9796,-0.011789,-0.009456,0.431969,-0.018500,-0.016260,0.431969,-1.246305,-1.332919,-0.228243,0.453943,1.237151,-6.804665
1790548999.9936,0.004175,0.012990,0.440488,-0.002628,0.004215,0.440488,-1.645757,-1.370557,-0.161465,2.485326,0.865351,-6.688231
1790549000.0077,-0.003781,0.019713,0.432301,-0.003435,0.015063,0.432301,-0.565171,0.749335,-0.721185,-0.389272,0.753811,-12.781588
1790549000.0217,-0.002812,0.013852,0.402849,-0.002999,0.014215,0.402849,0.451066,0.428802,-1.066001,-6.445094,3.170511,-14.838581
1790549000.0358,0.018933,0.019460,0.354268,0.012354,0.017886,0.354268,-0.017593,-0.876401,-1.500664,-3.647151,4.248731,-3.311658
1790549000.0498,0.007935,0.027656,0.407995,0.009261,0.024725,0.407995,-0.239781,0.491937,-1.012579,2.906934,2.687171,-1.642776
1790549000.0638,0.003806,0.026204,0.376685,0.005443,0.025761,0.376685,0.112320,0.667988,-0.984653,-2.037376,1.906391,-9.249770
1790549000.0777,0.012973,0.019318,0.355469,0.010714,0.021250,0.355469,0.420712,-0.347035,-1.106068,-2.075704,1.274331,-15.071448
1790549000.0918,0.018536,0.013967,0.327640,0.016189,0.016152,0.327640,0.451066,-0.043500,-1.144920,-1.462456,2.241011,-7.192776
1790549000.1058,0.014622,0.018003,0.307493,0.015092,0.017448,0.307493,-0.013950,0.496794,-1.080571,-0.005993,3.505131,-4.941727
1790549000.1195,0.019501,0.019648,0.278707,0.018178,0.018988,0.278707,-0.107439,-0.002219,-0.888736,-2.535639,2.203831,-9.676693
1790549000.1332,0.024007,0.015706,0.250275,0.022258,0.016691,0.250275,0.242233,0.032991,-0.662906,-3.647151,1.460231,-10.452916
1790549000.1471,0.026140,0.011288,0.239734,0.024976,0.012909,0.239734,0.335722,-0.003433,-0.220958,-1.922392,2.575631,-11.229140
1790549000.1612,0.028402,0.007867,0.237587,0.027374,0.009380,0.237587,0.284728,-0.111492,0.168782,-1.539112,2.761531,-10.996273
1790549000.1754,0.025978,0.005749,0.244941,0.026397,0.006838,0.244941,0.255589,0.143478,0.471103,-1.040848,3.356411,-9.676693
1790549000.1894,0.024159,0.003329,0.247377,0.024830,0.004382,0.247377,0.238591,0.134979,0.723644,-2.075704,2.687171,-9.676693
1790549000.2034,0.012221,0.002607,0.256103,0.016004,0.003140,0.256103,0.102607,0.752978,1.046606,-1.232488,2.761531,-10.802217
1790549000.2174,0.011032,-0.000015,0.265019,0.012523,0.000931,0.265019,0.169385,-0.047142,1.363497,-2.343999,2.352551,-14.760958
1790549000.2313,0.009368,-0.003890,0.275321,0.010314,-0.002444,0.275321,0.238591,-0.020431,1.592970,-2.190688,1.423051,-11.035084
1790549000.2452,-0.000436,-0.004806,0.304961,0.002789,-0.004097,0.304961,0.146316,0.422731,1.803017,-0.197632,2.092291,-6.649420
1790549000.2592,-0.006978,-0.009568,0.329392,-0.004048,-0.007927,0.329392,0.211880,0.122838,1.872223,0.415615,0.121751,-7.115154
1790549000.2731,-0.007382,-0.018716,0.361991,-0.006382,-0.015480,0.361991,0.614975,-0.347035,1.934144,0.722239,1.088431,-7.542077
1790549000.2881,-0.024669,-0.025728,0.416750,-0.019183,-0.022654,0.416750,0.389145,0.657060,1.943857,3.251886,0.828171,-9.443825
1790549000.3023,-0.029900,-0.030277,0.426307,-0.026685,-0.027990,0.426307,0.197310,0.268535,1.641536,-2.075704,0.753811,-12.742777
1790549000.3163,-0.034294,-0.032216,0.433563,-0.032012,-0.030948,0.433563,0.052827,0.239395,1.157093,-1.002520,1.088431,-11.384385
1790549000.3302,-0.045612,-0.040645,0.446188,-0.041532,-0.037736,0.446188,0.455922,0.648561,0.930049,1.297159,-0.287229,-11.306763
1790549000.3442,-0.056870,-0.049655,0.466783,-0.052268,-0.046079,0.466783,0.613761,0.601210,0.825632,1.757095,1.199971,-8.163056
1790549000.3593,-0.060445,-0.058918,0.479265,-0.057992,-0.055066,0.479265,0.625902,0.147121,0.576733,0.760567,1.571771,-7.580888
1790549000.3740,-0.058390,-0.059761,0.482557,-0.058271,-0.058353,0.482557,0.017617,-0.169770,0.261056,0.913879,1.199971,-13.751868
1790549000.3890,-0.054256,-0.052107,0.488011,-0.055461,-0.053981,0.488011,-0.582169,-0.344607,-0.059477,2.676966,0.047391,-14.722147
1790549000.4040,-0.042593,-0.045323,0.501694,-0.046454,-0.047920,0.501694,-0.628306,-0.905541,-0.242813,2.945262,-1.811608,-9.676693
1790549000.4202,-0.029632,-0.030823,0.532504,-0.034678,-0.035952,0.532504,-0.861422,-1.098589,-0.274380,4.631693,1.460231,-6.532986
1790549000.4346,-0.017637,-0.014330,0.547770,-0.022749,-0.020817,0.547770,-1.178313,-1.131371,-0.140825,4.440053,0.939711,-7.930189
1790549000.4484,0.002977,0.006796,0.559484,-0.004741,-0.001488,0.559484,-1.625117,-1.643739,-0.058263,1.642111,0.344831,-7.658511
1790549000.4626,0.019894,0.031131,0.565190,0.012504,0.021345,0.565190,-1.903156,-1.465260,-0.234314,3.098574,-0.770569,-6.261308
1790549000.4766,-0.009523,0.023661,0.553844,-0.002915,0.022966,0.553844,0.457137,2.083677,-0.758823,7.659604,1.571771,-20.815504
1790549000.4906,0.008654,0.013710,0.498313,0.005184,0.016487,0.498313,0.789812,-0.689423,-1.452098,-9.626316,4.434631,-16.119350
1790549000.5045,0.020193,0.018201,0.467565,0.015690,0.017687,0.467565,-0.123223,-0.543726,-1.481238,-0.120976,3.728211,-6.804665
1790549000.5184,0.010746,0.020056,0.465939,0.012229,0.019345,0.465939,-0.074658,0.587854,-1.125494,4.363398,2.575631,-7.580888
1790549000.5324,0.009703,0.016692,0.444934,0.010461,0.017488,0.444934,0.209452,0.404519,-1.177702,-1.194160,1.237151,-8.628791
1790549000.5464,0.021682,0.007558,0.427933,0.018316,0.010537,0.427933,0.538484,-0.510944,-1.228696,-2.458983,0.196111,-12.626343
1790549000.5604,0.022191,0.005527,0.410841,0.021028,0.007030,0.410841,0.232520,0.075486,-1.226268,1.488799,3.021791,-8.473546
1790549000.5743,0.024387,0.008279,0.384382,0.023379,0.007904,0.384382,-0.067373,0.102197,-0.838956,-1.462456,3.467951,-8.318301
1790549000.5880,0.032254,0.005772,0.356409,0.029592,0.006412,0.356409,0.237377,-0.185554,-0.727255,-4.145415,2.687171,-9.327392
1790549000.6016,0.036570,-0.001562,0.341595,0.034476,0.000830,0.341595,0.565195,-0.100564,-0.458930,-2.420655,2.426911,-10.452916
1790549000.6154,0.039561,-0.005862,0.338931,0.038036,-0.003854,0.338931,0.390359,-0.180698,0.098361,-1.117504,2.947431,-9.909560
1790549000.6295,0.039626,-0.008927,0.340574,0.039149,-0.007405,0.340574,0.334508,-0.014360,0.469889,-1.424128,3.505131,-10.142427
1790549000.6435,0.031824,-0.012212,0.343068,0.034022,-0.010770,0.343068,0.288371,0.529575,0.709075,-1.845736,2.910251,-12.703965
1790549000.6575,0.020110,-0.009612,0.346100,0.024284,-0.009959,0.346100,-0.190001,0.834325,0.987113,-3.225543,2.017931,-13.790679
1790549000.6717,0.009272,-0.002591,0.354491,0.013776,-0.004801,0.354491,-0.523890,0.735980,1.297934,-3.493839,1.385871,-11.539630
1790549000.6863,0.006462,-0.004312,0.371994,0.008656,-0.004459,0.371994,0.003047,0.018422,1.452130,-0.925864,-0.026969,-7.736133
1790549000.7004,0.005488,-0.005586,0.395414,0.006439,-0.005248,0.395414,0.164528,-0.177055,1.537120,-0.159304,1.683311,-5.446273
1790549000.7146,-0.009330,-0.008245,0.429663,-0.004600,-0.007346,0.429663,0.224021,0.649775,1.801803,1.603783,2.687171,-10.025993
1790549000.7288,-0.017664,-0.014702,0.452920,-0.013744,-0.012495,0.452920,0.362434,0.313458,1.881936,-0.235960,0.976891,-11.267951
1790549000.7428,-0.024042,-0.021149,0.477830,-0.020953,-0.018553,0.477830,0.353935,0.168975,1.874651,0.223975,0.902531,-11.151518
1790549000.7567,-0.022190,-0.023621,0.496675,-0.021819,-0.022101,0.496675,0.066183,-0.292399,1.677960,-1.194160,0.716631,-9.443825
1790549000.7711,-0.024572,-0.027336,0.509598,-0.023746,-0.025766,0.509598,0.140246,0.063345,1.144952,-0.734224,0.233291,-9.754315
1790549000.7852,-0.035044,-0.034404,0.533582,-0.031655,-0.031812,0.533582,0.409785,0.474939,0.987113,2.102047,0.493551,-8.745224
1790549000.7990,-0.046659,-0.043035,0.551236,-0.042157,-0.039668,0.551236,0.584622,0.633992,0.949475,1.680439,1.274331,-9.133336
1790549000.8125,-0.055667,-0.052756,0.562070,-0.051614,-0.048830,0.562070,0.667183,0.546573,0.792851,1.028863,1.274331,-10.763406
1790549000.8262,-0.055956,-0.054087,0.566875,-0.054653,-0.052510,0.566875,0.126890,-0.009504,0.394612,0.492271,2.612811,-12.315854
1790549000.8402,-0.052302,-0.047796,0.568845,-0.053007,-0.049210,0.568845,-0.511749,-0.274187,0.046153,0.913879,0.567911,-13.130889
1790549000.8542,-0.046085,-0.038131,0.580340,-0.048162,-0.041455,0.580340,-0.787359,-0.564367,-0.166322,3.021918,-0.324409,-10.957462
1790549000.8683,-0.036362,-0.029610,0.598431,-0.039902,-0.033163,0.598431,-0.732723,-0.881258,-0.254954,3.596838,-0.659029,-8.784035
1790549000.8822,-0.026855,-0.018746,0.610650,-0.030769,-0.023071,0.610650,-0.764290,-0.927395,-0.207603,3.826806,1.497411,-7.697322
1790549000.8961,-0.012231,-0.002122,0.617928,-0.017792,-0.008407,0.617928,-1.192882,-1.217575,-0.111685,2.178703,1.460231,-7.464455
1790549000.9100,0.003877,0.019150,0.629238,-0.002624,0.010883,0.629238,-1.565624,-1.379056,-0.093473,2.906934,1.162791,-7.969000
1790549000.9241,0.009145,0.035117,0.632577,0.005614,0.027847,0.632577,-1.191668,-0.455094,-0.421292,3.443526,1.683311,-13.402567
1790549000.9387,-0.018609,0.024760,0.618929,-0.011342,0.025686,0.618929,0.611333,2.186879,-0.971298,-0.465928,0.158931,-19.263056
1790549000.9527,0.001948,0.022745,0.589528,-0.002039,0.023627,0.589528,0.174242,-0.962605,-1.511591,-6.445094,3.505131,-17.477742
1790549000.9666,-0.005978,0.028077,0.557711,-0.004797,0.026742,0.557711,-0.147506,0.443371,-1.103639,3.328542,2.761531,-3.816203
1790549000.9807,-0.011596,0.030320,0.519633,-0.009556,0.029246,0.519633,0.006690,0.870749,-1.082999,-2.343999,2.798711,-6.144874
1790549000.9947,-0.005468,0.026978,0.503175,-0.006694,0.027658,0.503175,0.226450,-0.124847,-1.024720,-1.692424,1.720491,-11.229140
1790549001.0085,0.001489,0.023839,0.482935,-0.000966,0.024985,0.482935,0.298084,-0.202552,-1.028363,-1.309144,2.724351,-9.133336
1790549001.0225,0.000324,0.022203,0.466808,-0.000063,0.023037,0.466808,0.156029,0.303745,-0.913019,-0.350944,2.278191,-9.133336
1790549001.0360,0.002581,0.025740,0.447609,0.001788,0.024929,0.447609,-0.130508,0.113125,-0.794033,-1.730752,3.914111,-9.482637
1790549001.0496,0.007876,0.022311,0.436249,0.006049,0.023097,0.436249,0.222807,-0.146702,-0.505067,-2.573967,1.720491,-11.578441
1790549001.0630,0.010829,0.020006,0.427424,0.009395,0.020934,0.427424,0.266516,-0.041071,-0.213673,-1.807408,2.947431,-8.201867
1790549001.0769,0.014379,0.016758,0.424880,0.012884,0.018011,0.424880,0.295656,-0.151558,0.231917,-2.535639,3.021791,-9.948371
1790549001.0908,0.011854,0.013904,0.426831,0.012163,0.015136,0.426831,0.296870,0.207828,0.473531,-1.960720,3.653851,-10.375294
1790549001.1046,0.009660,0.014989,0.435204,0.010411,0.015033,0.435204,0.052827,0.113125,0.679935,-1.347472,4.174371,-9.793126
1790549001.1186,0.010456,0.007168,0.444679,0.010443,0.009528,0.444679,0.565195,-0.164914,1.086673,-2.075704,2.649991,-13.324944
1790549001.1325,0.004637,0.002717,0.460949,0.006378,0.004760,0.460949,0.396430,0.238181,1.331930,-1.002520,3.653851,-11.384385
1790549001.1464,-0.002732,0.006572,0.481831,0.000001,0.006029,0.481831,-0.163290,0.340169,1.591756,-1.309144,3.728211,-8.978091
1790549001.1602,-0.006704,0.005066,0.503603,-0.004693,0.005355,0.503603,0.170599,0.049989,1.844298,-1.232488,2.984611,-8.745224
1790549001.1731,-0.015763,0.001403,0.532204,-0.012442,0.002588,0.532204,0.258017,0.311030,1.866152,0.875551,1.683311,-8.318301
1790549001.1867,-0.017463,-0.002577,0.553099,-0.015957,-0.001028,0.553099,0.255589,-0.147916,1.861296,-0.389272,1.385871,-6.921098
1790549001.2000,-0.022393,-0.010837,0.578178,-0.020462,-0.007894,0.578178,0.503274,0.041490,1.912290,0.300631,0.642271,-8.240679
1790549001.2139,-0.031969,-0.018081,0.594891,-0.028517,-0.015025,0.594891,0.377003,0.510149,1.779948,-1.117504,0.344831,-9.055714
1790549001.2279,-0.036182,-0.023664,0.607489,-0.033883,-0.021072,0.607489,0.272587,0.194472,1.404778,-1.539112,0.642271,-12.315854
1790549001.2419,-0.037564,-0.026101,0.614431,-0.036460,-0.024592,0.614431,0.049185,0.090056,0.942190,-1.807408,0.270471,-10.996273
1790549001.2559,-0.047932,-0.033541,0.631480,-0.044491,-0.030857,0.631480,0.396430,0.553858,0.738214,1.987063,-0.250049,-10.530539
1790549001.2696,-0.058424,-0.043802,0.645695,-0.054244,-0.039918,0.645695,0.690252,0.597567,0.591303,1.910407,0.828171,-9.094525
1790549001.2832,-0.065172,-0.052109,0.656197,-0.061894,-0.048451,0.656197,0.678110,0.411804,0.412824,0.952207,2.092291,-7.464455
1790549001.2970,-0.065148,-0.054200,0.656392,-0.064172,-0.052475,0.656392,0.120819,-0.001005,0.081363,0.837223,1.199971,-13.945924
1790549001.3109,-0.057872,-0.047466,0.657794,-0.059762,-0.048969,0.657794,-0.553030,-0.544940,-0.173607,2.025391,0.158931,-15.925294
1790549001.3249,-0.055707,-0.039091,0.666785,-0.056923,-0.042055,0.666785,-0.701155,-0.247476,-0.321732,3.826806,-0.882109,-13.713056
1790549001.3387,-0.045218,-0.027194,0.680820,-0.048730,-0.031652,0.680820,-0.849280,-0.921324,-0.426148,2.983590,1.051251,-7.231588
1790549001.3526,-0.034143,-0.015419,0.704555,-0.038519,-0.020289,0.704555,-0.884490,-1.068236,-0.304734,3.941790,0.605091,-6.610609
1790549001.3665,-0.020159,0.001946,0.720144,-0.025667,-0.004724,0.720144,-1.219594,-1.280710,-0.160251,2.370342,1.014071,-4.204315
1790549001.3805,0.000558,0.026929,0.731851,-0.007309,0.017433,0.731851,-1.849733,-1.643739,-0.129897,1.642111,0.753811,-6.300119
1790549001.3944,-0.019747,0.027081,0.726722,-0.016016,0.024187,0.726722,-0.262850,1.587093,-0.959156,4.133430,-5.492428,-21.281238
1790549001.4084,-0.019211,0.020897,0.705993,-0.018252,0.021884,0.705993,0.333294,0.381450,-1.098783,-4.796990,-0.882109,-16.740329
1790549001.4223,-0.004250,0.019311,0.676880,-0.008451,0.020083,0.676880,0.313868,-1.013599,-1.620864,3.711822,4.025651,-7.503266
1790549001.4366,-0.014644,0.024543,0.650680,-0.012786,0.023205,0.650680,-0.165718,0.779689,-1.201985,2.791950,3.542311,-6.338930
1790549001.4512,-0.014060,0.026509,0.621637,-0.013677,0.025518,0.621637,-0.095298,0.398448,-1.232338,-2.765607,1.980751,-9.521448
1790549001.4654,0.000609,0.017729,0.603462,-0.003677,0.020066,0.603462,0.585836,-0.674854,-1.125494,-2.535639,1.237151,-11.035084
1790549001.4798,0.007808,0.013785,0.580759,0.004362,0.015669,0.580759,0.344221,-0.187983,-1.154633,-1.424128,2.761531,-9.172147
1790549001.4938,0.008235,0.016138,0.569383,0.007073,0.015997,0.569383,-0.067373,0.062131,-0.829243,1.143847,3.579491,-9.637881
1790549001.5075,0.014662,0.013277,0.552051,0.012385,0.014093,0.552051,0.216737,-0.161271,-0.647122,-3.532167,2.278191,-11.306763
1790549001.5212,0.018453,0.006739,0.540395,0.016633,0.008945,0.540395,0.503274,-0.066568,-0.333873,-2.420655,2.241011,-9.676693
1790549001.5352,0.021502,0.003723,0.538179,0.020041,0.005290,0.538179,0.321153,-0.168556,0.184565,-1.500784,3.579491,-9.715504
1790549001.5491,0.021928,0.000862,0.539662,0.021362,0.002190,0.539662,0.307797,-0.011932,0.559735,-2.075704,3.430771,-9.831937
1790549001.5631,0.017867,-0.001264,0.543349,0.018916,-0.000228,0.543349,0.289585,0.317101,0.758855,-2.918919,4.360271,-10.297672
1790549001.5771,0.004826,-0.000972,0.548810,0.009053,-0.000748,0.548810,-0.029734,0.895032,1.101243,-3.187215,2.203831,-13.286133
1790549001.5910,-0.002229,0.001599,0.559649,0.001156,0.000895,0.559649,-0.272563,0.484652,1.393851,-3.570495,0.605091,-10.297672
1790549001.6050,-0.002681,-0.003981,0.576614,-0.001530,-0.002519,0.576614,0.259231,-0.107849,1.569902,-2.037376,-0.175689,-9.560259
1790549001.6192,-0.011808,-0.003926,0.609912,-0.008725,-0.003504,0.609912,0.102607,0.303745,1.645178,0.530599,1.832031,-4.398371
1790549001.6331,-0.017725,-0.006689,0.633076,-0.015025,-0.005733,0.633076,0.134175,0.127694,1.718027,0.223975,0.939711,-6.765853
1790549001.6472,-0.024020,-0.013138,0.661907,-0.021321,-0.010917,0.661907,0.363648,0.086414,1.762950,1.373815,0.939711,-9.715504
1790549001.6611,-0.028874,-0.017508,0.679026,-0.026608,-0.015531,0.679026,0.238591,0.206614,1.693744,-1.462456,1.237151,-8.745224
1790549001.6751,-0.027864,-0.017430,0.694227,-0.027487,-0.016861,0.694227,-0.068587,-0.175841,1.444845,-1.769080,1.608951,-10.258860
1790549001.6891,-0.029000,-0.019942,0.704609,-0.028546,-0.019018,0.704609,0.060112,-0.004647,1.069675,-1.040848,0.382011,-10.841028
1790549001.7032,-0.039058,-0.026204,0.721961,-0.035905,-0.024048,0.721961,0.333294,0.485866,0.923978,1.757095,0.270471,-9.133336
1790549001.7172,-0.051256,-0.033369,0.737803,-0.046650,-0.030573,0.737803,0.453494,0.667988,0.862057,1.603783,0.902531,-7.930189
1790549001.7308,-0.057873,-0.044426,0.745069,-0.054506,-0.040270,0.745069,0.749745,0.414232,0.676293,0.338959,0.865351,-8.512357
1790549001.7445,-0.059470,-0.050520,0.749918,-0.057981,-0.047445,0.749918,0.443781,0.090056,0.420109,0.338959,1.980751,-11.733686
1790549001.7584,-0.055434,-0.047305,0.751337,-0.056198,-0.047347,0.751337,-0.271349,-0.289971,0.162711,0.453943,1.311511,-14.955014
1790549001.7724,-0.049876,-0.037839,0.754417,-0.051772,-0.040691,0.754417,-0.744864,-0.451451,-0.023053,1.795423,0.382011,-12.238231
1790549001.7863,-0.042784,-0.030905,0.770728,-0.045480,-0.033841,0.770728,-0.702369,-0.669997,-0.248883,3.175230,-1.960328,-8.395923
1790549001.8001,-0.032278,-0.018249,0.785164,-0.036239,-0.022926,0.785164,-0.885705,-1.002672,-0.229457,3.520182,1.460231,-6.727042
1790549001.8140,-0.017096,-0.003199,0.796835,-0.022839,-0.009117,0.796835,-1.095751,-1.326848,-0.223386,3.366870,1.125611,-7.037532
1790549001.8278,-0.000182,0.015406,0.803316,-0.006979,0.008049,0.803316,-1.326438,-1.363272,-0.012126,1.603783,1.906391,-7.813756
1790549001.8417,0.017459,0.041916,0.809109,0.010127,0.031756,0.809109,-1.948079,-1.388769,-0.298663,1.488799,1.051251,-6.261308
1790549001.8556,-0.005566,0.032039,0.806941,-0.000858,0.031954,0.806941,0.464421,1.686653,-0.710257,5.819861,-4.451388,-21.009560
1790549001.8696,0.002233,0.026154,0.781493,0.001306,0.027894,0.781493,0.500846,-0.099350,-1.147348,-5.448566,4.397451,-13.674245
1790549001.8836,0.012893,0.030147,0.753716,0.009417,0.029471,0.753716,-0.001809,-0.504874,-1.359823,0.108991,4.211551,-5.252217
1790549001.8974,0.001784,0.033707,0.741163,0.004074,0.032436,0.741163,-0.164504,0.844038,-1.237195,1.987063,1.757671,-4.475993
1790549001.9113,-0.000889,0.033368,0.720497,0.000600,0.033089,0.720497,0.023688,0.549002,-1.058716,-1.347472,1.348691,-7.153965
1790549001.9252,0.006673,0.029706,0.705666,0.004851,0.030720,0.705666,0.237377,-0.266902,-1.022292,-1.194160,1.683311,-10.996273
1790549001.9393,0.007616,0.030767,0.683111,0.006787,0.030753,0.683111,0.001833,0.267321,-1.176488,-1.347472,3.207691,-9.482637
1790549001.9538,0.003900,0.038162,0.660007,0.004766,0.035939,0.660007,-0.345411,0.585426,-0.882666,-1.730752,3.876931,-7.231588
1790549001.9675,0.009593,0.042486,0.640190,0.008145,0.040522,0.640190,-0.249494,-0.011932,-0.698116,-4.068759,3.058971,-9.016902
1790549001.9813,0.007258,0.042959,0.626248,0.007524,0.042228,0.626248,-0.010308,0.436086,-0.460144,-2.727279,2.835891,-10.724595
1790549001.9953,0.007257,0.044021,0.620420,0.007337,0.043483,0.620420,-0.018807,0.153191,-0.008483,-2.650623,3.467951,-10.491728
1790549002.0091,0.006967,0.041945,0.621132,0.007078,0.042407,0.621132,0.181526,0.037848,0.321763,-1.654096,3.356411,-11.927742
1790549002.0230,0.005703,0.038181,0.628892,0.006115,0.039449,0.628892,0.345436,0.014779,0.653224,-1.117504,3.802571,-10.608161
1790549002.0370,0.007934,0.032134,0.644075,0.007389,0.034328,0.644075,0.532413,-0.321538,1.008968,-1.002520,4.025651,-9.987182
1790549002.0510,0.010049,0.025356,0.668931,0.009251,0.028048,0.668931,0.616189,-0.434453,1.324645,-0.005993,4.100011,-9.094525
1790549002.0649,0.007151,0.017091,0.701448,0.007781,0.020378,0.701448,0.719391,-0.185554,1.585685,1.105519,3.691031,-8.667602
1790549002.0789,0.001117,0.014430,0.727874,0.003116,0.016215,0.727874,0.256803,0.082771,1.716813,0.453943,3.802571,-11.462007
1790549002.0928,-0.001271,0.014303,0.754677,0.000045,0.014877,0.754677,0.074682,-0.183126,1.959641,-0.274288,3.728211,-10.685784
1790549002.1068,-0.009092,0.010589,0.784365,-0.006351,0.011876,0.784365,0.169385,0.151977,1.937787,0.683911,0.642271,-8.085434
1790549002.1206,-0.018709,0.003971,0.812969,-0.015001,0.006342,0.812969,0.299298,0.313458,1.906219,0.607255,-0.287229,-7.503266
1790549002.1346,-0.021114,-0.005156,0.838707,-0.019281,-0.001707,0.838707,0.498417,-0.150344,1.660962,0.568927,0.010211,-8.046623
1790549002.1485,-0.021458,-0.008799,0.850842,-0.020805,-0.006671,0.850842,0.170599,-0.101778,1.362283,-1.424128,0.976891,-10.297672
1790549002.1624,-0.024943,-0.010509,0.857507,-0.023702,-0.009358,0.857507,-0.017593,0.195686,0.889982,-1.347472,-0.175689,-12.199420
1790549002.1763,-0.031774,-0.016169,0.864859,-0.029352,-0.014126,0.864859,0.259231,0.408161,0.653224,0.147319,-0.584669,-13.907112
1790549002.1898,-0.036462,-0.021695,0.874031,-0.034329,-0.019424,0.874031,0.367290,0.221183,0.564592,0.913879,1.051251,-8.318301
1790549002.2038,-0.040860,-0.026705,0.881412,-0.038901,-0.024521,0.881412,0.372147,0.219969,0.418895,0.875551,1.720491,-8.240679
1790549002.2176,-0.044507,-0.030807,0.888938,-0.042825,-0.028921,0.888938,0.364862,0.170189,0.337547,1.028863,2.315371,-7.852567
1790549002.2316,-0.041783,-0.031655,0.890212,-0.042096,-0.030835,0.890212,-0.055231,-0.184340,0.166353,-0.120976,-0.398769,-14.993826
1790549002.2455,-0.030418,-0.022611,0.890852,-0.033922,-0.025078,0.890852,-0.736365,-0.809623,-0.076475,0.492271,0.307651,-15.692427
1790549002.2594,-0.018947,-0.009960,0.895915,-0.023439,-0.014495,0.895915,-1.019260,-0.899470,-0.214887,2.178703,-0.250049,-11.423196
1790549002.2733,-0.008378,0.003214,0.908102,-0.012896,-0.002099,0.908102,-1.003476,-0.977175,-0.251312,2.408670,0.456371,-5.368651
1790549002.2872,0.004529,0.017498,0.920972,-0.000698,0.011619,0.920972,-1.113963,-1.188436,-0.219744,2.868606,0.196111,-5.485084
1790549002.3012,0.020015,0.032264,0.927195,0.013801,0.026071,0.927195,-1.113963,-1.332919,-0.389724,2.255358,0.567911,-4.670049
1790549002.3151,0.006479,0.023641,0.905111,0.008676,0.024370,0.905111,0.588264,1.369762,-0.818316,-4.950302,2.129471,-14.722147
1790549002.3288,0.023396,0.018680,0.882168,0.018980,0.020387,0.882168,0.442567,-0.837549,-1.198342,-5.333582,6.070550,-17.244875
1790549002.3430,0.017794,0.017883,0.863140,0.018150,0.018634,0.863140,0.234949,0.484652,-1.339183,2.753622,4.657711,-7.736133
1790549002.3570,0.018197,0.018185,0.829440,0.018183,0.018320,0.829440,0.112320,0.438515,-1.352539,-1.500784,1.906391,-4.049070
1790549002.3710,0.018408,0.019010,0.816353,0.018340,0.018803,0.816353,-0.118367,0.172618,-1.187415,0.607255,1.014071,-8.706413
1790549002.3849,0.022506,0.013003,0.802228,0.021256,0.014743,0.802228,0.332080,-0.056855,-1.125494,-0.427600,0.382011,-8.939280
1790549002.3988,0.027714,0.008548,0.786505,0.025777,0.010407,0.786505,0.360005,-0.152772,-0.972512,-0.849208,2.835891,-10.064805
1790549002.4128,0.028634,0.010322,0.766870,0.027777,0.010347,0.766870,0.038258,0.210256,-0.885094,-1.539112,3.802571,-7.076343
1790549002.4264,0.033842,0.008040,0.753441,0.032023,0.008732,0.753441,0.197310,-0.162486,-0.587629,-2.190688,2.687171,-10.452916
1790549002.4413,0.035630,0.002889,0.746410,0.034548,0.004642,0.746410,0.387931,0.005066,-0.066762,-1.884064,2.203831,-8.240679
1790549002.4567,0.040447,-0.006279,0.749349,0.038678,-0.003002,0.749349,0.607690,-0.314253,0.448034,-2.152360,2.092291,-12.082986
1790549002.4711,0.036856,-0.009883,0.758045,0.037403,-0.007819,0.758045,0.404929,0.205399,0.717574,-1.730752,4.508991,-10.530539
1790549002.4857,0.027926,-0.008344,0.764630,0.030769,-0.008187,0.764630,-0.089227,0.569642,1.008968,-3.072231,2.426911,-14.256413
1790549002.5006,0.012101,-0.002757,0.775061,0.017701,-0.004386,0.775061,-0.356339,0.963024,1.276079,-1.654096,1.608951,-8.318301
1790549002.5144,0.009266,-0.003132,0.788681,0.011796,-0.003508,0.788681,-0.135365,0.093698,1.463057,-2.229015,-0.882109,-9.637881
1790549002.5281,0.013294,-0.010118,0.805397,0.012845,-0.008135,0.805397,0.427997,-0.444167,1.590542,-1.769080,0.307651,-8.434735
1790549002.5426,0.003550,-0.010548,0.853197,0.006339,-0.009824,0.853197,0.222807,0.245466,1.822443,1.603783,3.839751,-6.921098
1790549002.5566,-0.005875,-0.011143,0.878227,-0.002211,-0.010747,0.878227,0.009118,0.362024,1.846726,0.415615,1.683311,-11.384385
1790549002.5705,-0.008802,-0.013819,0.901515,-0.006825,-0.012897,0.901515,0.114749,-0.066568,1.867366,-0.350944,1.051251,-10.996273
1790549002.5845,-0.016724,-0.017571,0.933411,-0.013754,-0.016169,0.933411,0.214308,0.168975,1.856439,1.488799,1.088431,-7.852567
1790549002.5983,-0.018957,-0.018093,0.951209,-0.017396,-0.017516,0.951209,-0.038233,-0.007075,1.693744,-0.925864,0.828171,-6.959909
1790549002.6123,-0.021726,-0.020335,0.962164,-0.020427,-0.019489,0.962164,0.089252,0.103412,1.141309,-0.964192,0.939711,-9.288581
1790549002.6264,-0.026803,-0.022672,0.974884,-0.024890,-0.021717,0.974884,0.071039,0.190830,0.795279,1.258831,0.456371,-11.035084
1790549002.6403,-0.034457,-0.028742,0.983266,-0.031587,-0.026635,0.983266,0.328438,0.432444,0.615586,1.067191,0.158931,-12.315854
1790549002.6543,-0.041908,-0.034840,0.992232,-0.038811,-0.032378,0.992232,0.407357,0.408161,0.491743,1.335487,1.125611,-8.861658
1790549002.6682,-0.045190,-0.040040,0.995293,-0.043276,-0.037741,0.995293,0.404929,0.216327,0.246487,0.300631,1.794851,-8.473546
1790549002.6825,-0.044280,-0.040884,0.995688,-0.043979,-0.039941,0.995688,0.095322,-0.045928,0.064365,0.108991,2.166651,-10.452916
1790549002.6966,-0.036896,-0.035597,0.993555,-0.039021,-0.036900,0.993555,-0.435258,-0.496375,-0.161465,0.492271,0.493551,-14.450469
1790549002.7108,-0.027855,-0.024508,0.997506,-0.031205,-0.028226,0.997506,-0.884490,-0.717349,-0.302306,2.753622,-0.473129,-11.656063
1790549002.7247,-0.016151,-0.012250,1.004760,-0.020667,-0.017042,1.004760,-0.980408,-0.983246,-0.466215,2.945262,-0.175689,-7.891378
1790549002.7387,0.000069,0.001623,1.012620,-0.006151,-0.003977,1.012620,-0.993763,-1.338989,-0.404294,2.293686,0.976891,-5.523895
1790549002.7525,0.016564,0.018385,1.024725,0.009749,0.011677,1.024725,-1.181955,-1.496828,-0.297449,3.021918,1.274331,-4.708860
1790549002.7664,0.010817,0.034316,1.018151,0.010496,0.027524,1.018151,-1.112749,0.494365,-0.258596,-0.235960,2.017931,-7.503266
1790549002.7804,0.000482,0.027725,0.992479,0.003486,0.027665,0.992479,0.469278,1.187640,-1.079357,-5.295254,2.984611,-16.041728
1790549002.7942,0.026041,0.026113,0.963066,0.019275,0.026579,0.963066,0.311440,-1.263712,-1.382892,-6.675061,5.847470,-8.745224
1790549002.8082,0.020172,0.027244,0.957118,0.019903,0.027044,0.957118,0.097751,0.490723,-1.269977,2.370342,3.914111,-6.338930
1790549002.8219,0.015902,0.030284,0.927331,0.017103,0.029312,0.927331,-0.131722,0.772404,-1.282118,-2.152360,2.575631,-6.571797
1790549002.8358,0.019165,0.026638,0.911414,0.018546,0.027440,0.911414,0.134175,0.015993,-1.110924,-0.427600,0.047391,-9.793126
1790549002.8497,0.025654,0.022305,0.891311,0.023522,0.023845,0.891311,0.279872,-0.140631,-1.174060,-1.884064,1.943571,-11.384385
1790549002.8636,0.024017,0.023459,0.884782,0.023868,0.023575,0.884782,0.134175,0.272177,-0.949443,0.338959,4.174371,-6.261308
1790549002.8772,0.027801,0.026994,0.864228,0.026621,0.025968,0.864228,-0.143864,0.098555,-0.772179,-3.455511,3.765391,-8.279490
1790549002.8908,0.033616,0.022902,0.847924,0.031518,0.023822,0.847924,0.262874,-0.150344,-0.486855,-3.647151,1.794851,-11.384385
1790549002.9043,0.036080,0.018256,0.842072,0.034712,0.019926,0.842072,0.366076,-0.062926,-0.111685,-1.960720,2.575631,-10.608161
1790549002.9183,0.036395,0.014970,0.845443,0.035890,0.016456,0.845443,0.321153,-0.007075,0.355759,-1.654096,3.207691,-9.560259
1790549002.9322,0.034077,0.012216,0.854122,0.034621,0.013488,0.854122,0.316296,0.126480,0.658081,-1.692424,3.765391,-9.909560
1790549002.9462,0.031668,0.008901,0.858911,0.032554,0.010277,0.858911,0.256803,0.126480,0.835346,-2.612295,2.612811,-13.014455
1790549002.9608,0.025286,0.004415,0.869709,0.027466,0.006173,0.869709,0.298084,0.292818,1.225085,-1.999048,1.980751,-14.411658
1790549002.9748,0.017818,0.004035,0.886293,0.020712,0.004677,0.886293,0.077110,0.351097,1.480055,-1.807408,3.096151,-12.354665
1790549002.9888,0.010287,0.004660,0.902172,0.013415,0.004665,0.902172,-0.045518,0.335313,1.545619,-0.734224,1.162791,-6.416553
1790549003.0028,0.004034,0.004380,0.938041,0.006848,0.004465,0.938041,0.030973,0.008708,1.645178,1.335487,1.162791,-5.756762
1790549003.0169,0.000644,0.001322,0.970101,0.002505,0.002265,0.970101,0.271373,-0.132132,1.781162,0.530599,1.794851,-5.989630
1790549003.0308,-0.007564,-0.003128,0.996516,-0.004543,-0.001510,0.996516,0.245876,0.228468,1.829728,0.875551,1.014071,-10.646972
1790549003.0449,-0.017510,-0.009024,1.020681,-0.013620,-0.006770,1.020681,0.316296,0.385092,1.915932,0.300631,0.828171,-11.539630
1790549003.0588,-0.016528,-0.013278,1.037820,-0.015656,-0.011325,1.037820,0.199739,-0.266902,1.715599,-1.079176,0.679451,-9.094525
1790549003.0728,-0.020199,-0.017973,1.046393,-0.018836,-0.015979,1.046393,0.213094,0.176260,1.203231,-1.424128,0.196111,-10.258860
1790549003.0867,-0.025213,-0.023560,1.054269,-0.023300,-0.021286,1.054269,0.294442,0.247894,0.775853,0.223975,0.196111,-8.745224
1790549003.1007,-0.037285,-0.032784,1.069100,-0.033089,-0.029334,1.069100,0.570052,0.657060,0.653224,2.715294,0.344831,-11.539630
1790549003.1143,-0.044051,-0.039858,1.076143,-0.040762,-0.036701,1.076143,0.502060,0.417874,0.534238,0.837223,1.720491,-11.772497
1790549003.1279,-0.045876,-0.041311,1.079545,-0.044342,-0.039928,1.079545,0.097751,0.096127,0.229489,0.875551,1.794851,-12.626343
1790549003.1418,-0.041668,-0.036221,1.082634,-0.042470,-0.037333,1.082634,-0.361195,-0.354320,-0.128683,1.565455,1.385871,-9.754315
1790549003.1557,-0.034889,-0.029116,1.089300,-0.037163,-0.031581,1.089300,-0.574884,-0.598363,-0.254954,2.753622,0.233291,-9.870749
1790549003.1694,-0.025041,-0.021198,1.099579,-0.028678,-0.024313,1.099579,-0.658660,-0.876401,-0.303520,3.405198,0.010211,-9.366203
1790549003.1834,-0.009598,-0.010743,1.108791,-0.015322,-0.014814,1.108791,-0.829854,-1.264927,-0.350871,3.060246,0.196111,-8.628791
1790549003.1973,-0.001688,0.003923,1.120711,-0.005778,-0.001698,1.120711,-1.128533,-0.803553,-0.240384,4.056774,0.382011,-8.318301
1790549003.2117,0.014697,0.021120,1.124684,0.008554,0.014275,1.124684,-1.332509,-1.195721,-0.371512,1.450471,-0.287229,-8.434735
1790549003.2257,0.014079,0.027956,1.118369,0.012421,0.023851,1.118369,-0.693870,0.154405,-0.726041,1.028863,-2.257768,-16.391028
1790549003.2397,0.000305,0.018960,1.099102,0.003940,0.020427,1.099102,0.593121,1.277487,-1.160704,-0.887536,1.980751,-18.448022
1790549003.2536,0.024115,0.027746,1.066287,0.018063,0.025550,1.066287,-0.305345,-1.268569,-1.268763,-4.375383,8.412890,-8.007811
1790549003.2677,0.022579,0.024391,1.048269,0.021224,0.024739,1.048269,0.129318,0.393591,-1.204413,-0.465928,0.344831,-7.309210
1790549003.2816,0.019685,0.018485,1.027237,0.020147,0.020361,1.027237,0.481419,0.572070,-1.103639,-1.922392,2.538451,-7.930189
1790549003.2955,0.029610,0.016892,1.009053,0.026771,0.017933,1.009053,0.169385,-0.383459,-1.154633,-1.960720,2.873071,-8.978091
1790549003.3095,0.029456,0.014089,0.994618,0.028650,0.015242,0.994618,0.199739,0.189616,-1.166775,0.645583,2.352551,-10.181238
1790549003.3233,0.031955,0.011434,0.979050,0.030963,0.012577,0.979050,0.265302,0.086414,-0.960371,-1.424128,3.021791,-8.512357
1790549003.3369,0.038874,0.008397,0.963082,0.036501,0.009651,0.963082,0.245876,-0.183126,-0.784320,-2.803935,2.129471,-8.163056
1790549003.3504,0.043864,0.003112,0.952582,0.041655,0.005073,0.952582,0.381860,-0.147916,-0.455287,-2.612295,1.906391,-9.870749
1790549003.3638,0.046476,-0.000395,0.950374,0.045030,0.001246,0.950374,0.379432,-0.037429,-0.126255,-2.420655,3.505131,-8.784035
1790549003.3777,0.052212,-0.006992,0.948462,0.050057,-0.004521,0.948462,0.525129,-0.272973,0.161497,-3.723807,2.724351,-10.763406
1790549003.3916,0.041528,-0.009202,0.953148,0.044087,-0.007798,0.953148,0.204595,0.737194,0.539095,-1.730752,3.356411,-14.877392
1790549003.4055,0.035160,-0.003663,0.956797,0.037838,-0.004904,0.956797,-0.408547,0.519862,0.953117,-5.640206,1.794851,-14.023546
1790549003.4194,0.023837,0.003461,0.963784,0.028037,0.000952,0.963784,-0.551815,0.784545,1.206873,-3.110559,1.014071,-10.569350
1790549003.4333,0.013847,0.011666,0.974490,0.018104,0.008452,0.974490,-0.591882,0.638848,1.234798,-1.040848,0.753811,-4.281937
1790549003.4474,0.012752,0.016343,0.993947,0.014358,0.013976,0.993947,-0.267706,-0.047142,1.345285,-1.155832,1.497411,-4.825294
1790549003.4619,0.020991,0.002621,1.009544,0.019001,0.006028,1.009544,0.828664,-0.826621,1.472770,-0.772552,-0.361589,-13.092077
1790549003.4759,0.010863,0.003595,1.052279,0.013304,0.004325,1.052279,0.092894,0.297674,1.760522,1.987063,4.583351,-10.258860
1790549003.4899,-0.002051,0.003324,1.072283,0.002556,0.003624,1.072283,-0.088013,0.580569,1.773877,0.722239,0.270471,-11.656063
1790549003.5037,-0.008784,-0.005210,1.092926,-0.005382,-0.002560,1.092926,0.444995,0.134979,1.828514,0.645583,-0.547489,-9.055714
1790549003.5177,-0.015058,-0.008493,1.135151,-0.012155,-0.006713,1.135151,0.304155,-0.032572,1.847940,2.485326,2.798711,-7.813756
1790549003.5315,-0.020757,-0.012349,1.144452,-0.018176,-0.010658,1.144452,0.154815,0.332884,1.364711,-2.037376,0.307651,-10.025993
1790549003.5455,-0.028978,-0.016976,1.150833,-0.025737,-0.015081,1.150833,0.193668,0.494365,1.005325,-0.657568,-0.064149,-10.608161
1790549003.5594,-0.038951,-0.024843,1.156449,-0.034987,-0.021914,1.156449,0.463207,0.625493,0.785566,0.185647,0.419191,-11.539630
1790549003.5731,-0.048112,-0.031545,1.167876,-0.044174,-0.028656,1.167876,0.464421,0.518648,0.750356,1.258831,1.608951,-9.715504
1790549003.5866,-0.052493,-0.037532,1.172678,-0.049997,-0.034870,1.172678,0.404929,0.289175,0.516026,0.070663,1.199971,-9.405014
1790549003.6005,-0.051566,-0.038692,1.176217,-0.051095,-0.037545,1.176217,0.058898,-0.115134,0.230703,1.028863,1.460231,-11.694875
1790549003.6143,-0.045098,-0.032447,1.175329,-0.046897,-0.033976,1.175329,-0.502036,-0.496375,-0.093473,1.603783,0.790991,-13.402567
1790549003.6282,-0.035036,-0.022519,1.174865,-0.038594,-0.025956,1.174865,-0.793430,-0.793839,-0.271952,2.791950,0.121751,-12.975644
1790549003.6424,-0.019310,-0.009409,1.183068,-0.025095,-0.014373,1.183068,-0.939127,-1.273426,-0.407936,3.175230,0.902531,-7.542077
1790549003.6565,-0.005295,0.004558,1.199685,-0.011235,-0.001121,1.199685,-1.002262,-1.279496,-0.324160,3.635166,0.865351,-5.601518
1790549003.6704,0.009047,0.023288,1.214826,0.002963,0.015965,1.214826,-1.370147,-1.375414,-0.191819,2.983590,0.642271,-4.126693
1790549003.6844,0.003811,0.040857,1.217833,0.003557,0.033390,1.217833,-1.375004,0.154405,-0.271952,10.380891,-0.026969,-19.612357
1790549003.6985,-0.004256,0.035026,1.196838,-0.001912,0.034535,1.196838,0.398858,0.948454,-1.191058,-2.458983,2.649991,-16.507462
1790549003.7129,0.023646,0.033618,1.170726,0.015978,0.033893,1.170726,0.202167,-1.308636,-1.157062,-7.594933,3.430771,-6.921098
1790549003.7270,0.016036,0.033381,1.163207,0.016019,0.033534,1.163207,0.090466,0.502864,-1.113353,2.906934,2.055111,-5.213406
1790549003.7408,0.015638,0.035274,1.140345,0.015752,0.034752,1.140345,-0.054017,0.472511,-1.159490,-2.458983,2.687171,-7.037532
1790549003.7548,0.019626,0.029702,1.124300,0.018464,0.031217,1.124300,0.299298,-0.030144,-1.078142,-0.657568,0.605091,-11.345574
1790549003.7687,0.028750,0.024618,1.106231,0.025664,0.026597,1.106231,0.406143,-0.285114,-1.167989,-2.152360,2.538451,-8.279490
1790549003.7827,0.033597,0.022350,1.096859,0.031217,0.023624,1.096859,0.236163,-0.187983,-0.842599,-0.120976,2.649991,-7.309210
1790549003.7962,0.032925,0.023016,1.087628,0.032412,0.023198,1.087628,0.038258,0.241824,-0.616768,-1.155832,3.282051,-8.551168
1790549003.8098,0.040487,0.016756,1.076630,0.038064,0.018689,1.076630,0.425569,-0.309397,-0.448003,-3.608823,1.832031,-11.772497
1790549003.8234,0.043232,0.009853,1.073160,0.041682,0.012504,1.073160,0.563981,-0.064140,-0.125041,-2.382327,3.021791,-10.336483
1790549003.8373,0.047674,0.003174,1.077755,0.045876,0.005973,1.077755,0.542127,-0.305754,0.380042,-2.037376,2.910251,-10.763406
1790549003.8512,0.045868,-0.001044,1.091128,0.045870,0.001061,1.091128,0.458351,0.042704,0.747927,-1.270816,4.360271,-10.646972
1790549003.8652,0.035350,-0.000822,1.102192,0.038506,-0.000257,1.102192,0.060112,0.657060,1.023538,-2.075704,3.579491,-13.324944
1790549003.8791,0.024815,0.002396,1.109624,0.028922,0.001600,1.109624,-0.231282,0.720196,1.231156,-3.532167,1.794851,-11.578441
1790549003.8930,0.018817,0.003862,1.114548,0.021848,0.003183,1.114548,-0.225211,0.428802,1.329501,-3.302199,-0.324409,-8.007811
1790549003.9069,0.019416,-0.000698,1.129702,0.020146,0.000466,1.129702,0.204595,-0.280257,1.603897,-0.657568,-0.287229,-6.843476
1790549003.9208,0.014562,-0.001238,1.170386,0.016237,-0.000727,1.170386,0.284728,0.053632,1.605112,0.032335,3.207691,-5.135783
1790549003.9348,0.000262,-0.002861,1.196006,0.005054,-0.002221,1.196006,0.097751,0.654632,1.771449,1.182175,1.385871,-9.172147
1790549003.9489,-0.005756,-0.007858,1.216439,-0.002513,-0.006167,1.216439,0.255589,0.148335,1.845512,-0.504256,0.605091,-11.733686
1790549003.9631,-0.013828,-0.014936,1.241098,-0.010433,-0.012305,1.241098,0.373361,0.211470,1.902576,1.028863,0.196111,-10.724595
1790549003.9772,-0.012543,-0.018908,1.257800,-0.011910,-0.016927,1.257800,0.173027,-0.197696,1.707100,-1.654096,0.344831,-6.183686
1790549003.9913,-0.014866,-0.022913,1.268257,-0.013979,-0.021117,1.268257,0.224021,0.125266,1.146166,-1.615768,0.828171,-7.852567
1790549004.0051,-0.022646,-0.028154,1.284484,-0.020046,-0.026043,1.284484,0.311440,0.291604,0.866913,2.676966,0.716631,-9.909560
1790549004.0191,-0.035295,-0.036094,1.295386,-0.030720,-0.033079,1.295386,0.500846,0.712911,0.734572,2.332014,0.753811,-11.384385
1790549004.0326,-0.041300,-0.041801,1.302014,-0.038126,-0.039184,1.302014,0.402500,0.376593,0.546380,0.568927,1.720491,-12.044175
1790549004.0462,-0.041886,-0.042562,1.304517,-0.040758,-0.041548,1.304517,0.015189,-0.008290,0.212491,1.105519,1.088431,-12.315854
1790549004.0601,-0.038568,-0.036833,1.306473,-0.039225,-0.038247,1.306473,-0.423116,-0.313039,-0.101972,2.217030,1.311511,-11.423196
1790549004.0740,-0.033470,-0.028014,1.306931,-0.035197,-0.031084,1.306931,-0.646519,-0.435668,-0.265881,2.217030,1.162791,-10.220049
1790549004.0879,-0.018534,-0.020587,1.308673,-0.023533,-0.023736,1.308673,-0.607666,-1.187222,-0.377582,2.791950,0.121751,-9.172147
1790549004.1019,-0.006181,-0.008841,1.320537,-0.011387,-0.013310,1.320537,-0.849280,-1.164153,-0.352085,4.248414,1.014071,-6.688231
1790549004.1157,0.001228,0.007608,1.327033,-0.002556,0.001333,1.327033,-1.185598,-0.778056,-0.312019,3.788478,1.274331,-6.882287
1790549004.1296,0.016200,0.024976,1.325905,0.010573,0.017883,1.325905,-1.411428,-1.101017,-0.492926,1.412143,-0.584669,-9.210958
1790549004.1435,0.015016,0.037242,1.318637,0.013683,0.031435,1.318637,-0.996191,0.168975,-0.597342,0.837223,0.307651,-12.121798
1790549004.1574,0.004609,0.030157,1.298147,0.007331,0.030540,1.298147,0.328438,1.065012,-1.339183,-0.159304,-1.774428,-18.098721
1790549004.1713,0.015622,0.019557,1.271080,0.013135,0.022852,1.271080,1.155268,-0.220764,-1.144920,-7.096669,8.896230,-4.708860
1790549004.1852,0.020193,0.025104,1.256104,0.018075,0.024429,1.256104,-0.236138,-0.082352,-1.250551,-0.082648,3.988471,-7.503266
1790549004.1991,0.008515,0.018699,1.237447,0.011383,0.020418,1.237447,0.451066,1.066226,-1.221411,0.453943,1.460231,-7.503266
1790549004.2135,0.019424,0.016686,1.217704,0.017011,0.017806,1.217704,0.192454,-0.394387,-1.238409,-2.688951,3.207691,-10.724595
1790549004.2274,0.022218,0.016122,1.201811,0.020656,0.016627,1.201811,0.067397,0.026921,-1.221411,0.032335,2.873071,-10.879840
1790549004.2413,0.021016,0.015169,1.189006,0.020908,0.015606,1.189006,0.143888,0.258822,-1.081785,0.453943,2.761531,-7.852567
1790549004.2555,0.027680,0.014308,1.171128,0.025648,0.014697,1.171128,0.094108,-0.113920,-0.854740,-3.263871,2.426911,-8.706413
1790549004.2692,0.032803,0.011014,1.159710,0.030656,0.012119,1.159710,0.260446,-0.122419,-0.560918,-2.612295,2.389731,-9.599070
1790549004.2829,0.033946,0.008285,1.155667,0.032959,0.009435,1.155667,0.249518,0.028135,-0.252526,-1.424128,3.058971,-10.763406
1790549004.2968,0.036654,0.002688,1.155786,0.035545,0.004712,1.155786,0.431640,-0.143059,0.122644,-1.769080,2.649991,-11.423196
1790549004.3108,0.035207,-0.000808,1.161552,0.035309,0.000848,1.161552,0.330866,0.096127,0.440749,-1.577440,3.282051,-10.841028
1790549004.3247,0.027290,-0.001026,1.170830,0.029696,-0.000464,1.170830,0.063755,0.481010,0.818348,-1.347472,3.244871,-13.635434
1790549004.3385,0.016067,0.001712,1.176179,0.020155,0.001059,1.176179,-0.227640,0.788188,1.070889,-3.187215,1.497411,-12.238231
1790549004.3524,0.010844,0.005437,1.186552,0.013637,0.004124,1.186552,-0.259207,0.342598,1.228728,-2.880591,1.832031,-8.978091
1790549004.3664,0.013577,0.000627,1.197226,0.013595,0.001676,1.197226,0.228878,-0.315468,1.418134,-1.692424,-0.064149,-7.115154
1790549004.3804,0.011205,0.000981,1.234540,0.011922,0.001190,1.234540,0.140246,-0.192839,1.607540,0.683911,2.612811,-5.562707
1790549004.3943,0.003289,-0.001038,1.262618,0.005879,-0.000370,1.262618,0.186383,0.221183,1.789661,0.568927,2.241011,-8.745224
1790549004.4082,-0.004342,-0.006083,1.289805,-0.001276,-0.004369,1.289805,0.296870,0.160476,1.965712,0.990535,1.088431,-10.802217
1790549004.4222,-0.010721,-0.013756,1.311098,-0.007887,-0.010940,1.311098,0.470492,0.196900,1.907433,-0.657568,0.902531,-9.599070
1790549004.4361,-0.012201,-0.017525,1.328141,-0.010907,-0.015550,1.328141,0.203381,-0.058069,1.624538,-1.079176,0.902531,-7.736133
1790549004.4500,-0.016678,-0.023449,1.334497,-0.014947,-0.021079,1.334497,0.313868,0.272177,1.081816,-1.500784,0.196111,-9.172147
1790549004.4644,-0.028306,-0.031521,1.346481,-0.024298,-0.028389,1.346481,0.465636,0.610923,0.919121,1.757095,0.307651,-11.384385
1790549004.4785,-0.040343,-0.040742,1.359678,-0.035530,-0.037036,1.359678,0.591906,0.663131,0.882697,1.872079,0.939711,-10.685784
1790549004.4920,-0.048532,-0.048825,1.368504,-0.044631,-0.045288,1.368504,0.597977,0.534432,0.648368,0.415615,1.943571,-10.491728
1790549004.5056,-0.050316,-0.052608,1.373521,-0.048610,-0.050412,1.373521,0.289585,0.114339,0.355759,0.185647,1.980751,-11.073895
1790549004.5201,-0.046609,-0.049732,1.374320,-0.047210,-0.049936,1.374320,-0.217926,-0.276615,0.020656,1.067191,1.274331,-12.548721
1790549004.5352,-0.043115,-0.042231,1.372746,-0.044343,-0.044542,1.372746,-0.566385,-0.279043,-0.169964,2.178703,-0.064149,-12.315854
1790549004.5498,-0.028133,-0.035638,1.371100,-0.032996,-0.038309,1.371100,-0.576098,-1.105874,-0.444360,2.715294,-1.068009,-10.103616
1790549004.5644,-0.010727,-0.021581,1.380839,-0.017408,-0.026600,1.380839,-0.925771,-1.377842,-0.411578,2.638638,1.274331,-5.834385
1790549004.5793,0.002497,-0.002323,1.389590,-0.003474,-0.009606,1.389590,-1.293656,-1.077949,-0.229457,3.021918,1.162791,-7.153965
1790549004.5939,0.023215,0.021440,1.392256,0.015208,0.012126,1.392256,-1.713749,-1.500470,-0.279237,1.450471,0.530731,-8.861658
1790549004.6078,0.017854,0.039406,1.388448,0.017061,0.031222,1.388448,-1.422355,0.307387,-0.617983,5.283269,0.084571,-14.528091
1790549004.6219,-0.000141,0.034723,1.363203,0.005019,0.033673,1.363203,0.268945,1.658728,-1.399890,-1.232488,1.906391,-18.758511
1790549004.6359,0.032909,0.032568,1.337623,0.024542,0.032900,1.337623,0.264088,-1.618242,-1.601438,-6.981685,3.096151,-5.717951
1790549004.6500,0.026504,0.034689,1.334197,0.025916,0.034152,1.334197,0.045542,0.414232,-1.313686,2.561982,2.612811,-3.350469
1790549004.6641,0.019320,0.033833,1.308646,0.021299,0.033929,1.308646,0.126890,0.947240,-1.322185,-1.654096,2.389731,-6.455364
1790549004.6781,0.029124,0.032125,1.288389,0.026776,0.032666,1.288389,0.039472,-0.337322,-1.101211,-2.535639,0.939711,-10.064805
1790549004.6921,0.034794,0.028061,1.268142,0.032388,0.029442,1.268142,0.288371,-0.038643,-1.294260,-1.615768,2.092291,-8.279490
1790549004.7063,0.036651,0.022109,1.254990,0.035372,0.024309,1.254990,0.442567,0.098555,-0.909377,-0.849208,2.315371,-8.201867
1790549004.7201,0.039402,0.021867,1.244006,0.038193,0.022599,1.244006,0.071039,0.037848,-0.744253,-1.654096,3.021791,-9.055714
1790549004.7338,0.043566,0.018055,1.234003,0.041954,0.019418,1.234003,0.259231,-0.105421,-0.485641,-2.382327,2.166651,-11.423196
1790549004.7476,0.045060,0.015228,1.231500,0.044128,0.016485,1.231500,0.238591,-0.007075,-0.077689,-2.037376,2.947431,-11.229140
1790549004.7616,0.046908,0.011479,1.235339,0.046074,0.012980,1.235339,0.341793,-0.081138,0.390970,-2.842263,3.282051,-10.879840
1790549004.7755,0.037880,0.009912,1.243751,0.040338,0.010832,1.243751,0.186383,0.589068,0.721216,-1.769080,3.579491,-12.432287
1790549004.7895,0.026522,0.013677,1.251901,0.030667,0.012823,1.251901,-0.245852,0.751763,1.046606,-3.187215,3.058971,-14.566903
1790549004.8034,0.021487,0.013539,1.262225,0.024241,0.013324,1.262225,-0.069801,0.195686,1.357427,-1.615768,0.419191,-10.452916
1790549004.8173,0.018893,0.010426,1.277161,0.020498,0.011295,1.277161,0.169385,-0.033787,1.464271,-0.772552,0.642271,-7.658511
1790549004.8312,0.014933,0.013475,1.315871,0.016602,0.012821,1.315871,0.011546,-0.060498,1.582043,0.300631,2.649991,-4.359560
1790549004.8450,0.007757,0.011853,1.344462,0.010410,0.012143,1.344462,0.157244,0.124052,1.778734,0.875551,2.203831,-8.667602
1790549004.8589,0.001386,0.009080,1.372470,0.004093,0.009999,1.372470,0.194882,0.063345,1.890435,0.837223,2.166651,-10.879840
1790549004.8730,-0.003346,0.006480,1.401137,-0.001114,0.007535,1.401137,0.175456,-0.045928,1.954785,0.530599,2.278191,-10.957462
1790549004.8868,-0.013049,-0.000201,1.424783,-0.009469,0.002120,1.424783,0.374575,0.336527,1.896506,0.568927,0.493551,-8.357112
1790549004.9009,-0.016837,-0.005908,1.449107,-0.014627,-0.003500,1.449107,0.377003,-0.039857,1.619681,0.300631,0.828171,-4.243126
1790549004.9148,-0.018606,-0.011632,1.460478,-0.017412,-0.009192,1.460478,0.369718,0.012351,1.123097,-0.810880,1.385871,-9.055714
1790549004.9288,-0.027351,-0.017204,1.470105,-0.024370,-0.014800,1.470105,0.311440,0.461583,0.780709,1.220503,0.642271,-11.384385
1790549004.9427,-0.037455,-0.025788,1.476335,-0.033529,-0.022492,1.476335,0.520272,0.601210,0.584018,1.527127,0.382011,-13.324944
1790549004.9565,-0.042789,-0.033066,1.481704,-0.040011,-0.029894,1.481704,0.489918,0.318315,0.472317,0.645583,1.274331,-10.879840
1790549004.9706,-0.046841,-0.036902,1.485788,-0.044792,-0.034799,1.485788,0.292013,0.239395,0.190636,0.952207,1.906391,-9.948371
1790549004.9850,-0.042281,-0.036739,1.487262,-0.043034,-0.036157,1.487262,-0.017593,-0.347035,-0.031552,1.105519,1.385871,-10.452916
1790549005.0006,-0.033099,-0.028837,1.484825,-0.036080,-0.031033,1.484825,-0.594310,-0.622645,-0.284093,2.332014,-0.473129,-13.324944
1790549005.0146,-0.026070,-0.018970,1.484412,-0.029073,-0.022589,1.484412,-0.803143,-0.612932,-0.429791,3.750150,-0.435949,-11.345574
1790549005.0285,-0.014578,-0.009143,1.483894,-0.018927,-0.013177,1.483894,-0.823783,-0.956535,-0.513566,2.906934,-0.361589,-8.046623
1790549005.0423,-0.004347,0.004355,1.488289,-0.008721,-0.000905,1.488289,-1.001048,-1.019670,-0.424934,4.133430,0.753811,-6.028441
1790549005.0563,0.012631,0.023263,1.489031,0.006225,0.016013,1.489031,-1.368933,-1.311064,-0.448003,1.795423,1.125611,-6.571797
1790549005.0703,0.003360,0.031542,1.474523,0.004219,0.026883,1.474523,-0.653803,0.902317,-0.814674,-0.925864,1.125611,-11.190329
1790549005.0842,0.001071,0.029512,1.450473,0.002016,0.028723,1.450473,0.113534,0.615779,-1.344040,-5.256926,2.612811,-20.155714
1790549005.0983,0.016661,0.030303,1.422807,0.012268,0.029829,1.422807,0.256803,-0.606862,-1.510377,-3.340527,6.405170,-6.416553
1790549005.1121,0.005063,0.029880,1.411224,0.007224,0.029865,1.411224,0.106250,0.869535,-1.319757,2.983590,2.203831,-6.028441
1790549005.1260,0.002070,0.030185,1.388683,0.003616,0.030089,1.388683,0.049185,0.579355,-1.252979,-1.385800,2.947431,-9.249770
1790549005.1399,0.010896,0.026722,1.370800,0.008712,0.027732,1.370800,0.180312,-0.332465,-1.167989,-1.462456,1.014071,-12.471098
1790549005.1538,0.016911,0.023158,1.352959,0.014451,0.024530,1.352959,0.313868,-0.139417,-1.248122,-0.772552,2.984611,-9.560259
1790549005.1677,0.021082,0.021632,1.335702,0.019093,0.022502,1.335702,0.272587,0.024492,-1.024720,-1.769080,3.988471,-7.464455
1790549005.1816,0.025409,0.023393,1.319237,0.023514,0.023125,1.319237,0.005476,0.018422,-0.868096,-2.152360,3.356411,-6.998721
1790549005.1953,0.031748,0.016347,1.308273,0.029277,0.018380,1.308273,0.510559,-0.248690,-0.384867,-3.033903,2.389731,-11.733686
1790549005.2094,0.038462,0.009660,1.304640,0.035706,0.012276,1.304640,0.537270,-0.333680,0.026727,-3.187215,3.207691,-10.530539
1790549005.2237,0.041863,0.001691,1.309446,0.040016,0.004866,1.309446,0.616189,-0.242619,0.456533,-1.999048,3.021791,-11.384385
1790549005.2377,0.035650,0.000614,1.322029,0.036960,0.001890,1.322029,0.208238,0.347454,0.751570,-1.155832,5.141051,-13.480189
1790549005.2516,0.026268,0.001480,1.326643,0.029476,0.001603,1.326643,-0.074658,0.635206,1.001683,-3.110559,1.906391,-13.790679
1790549005.2657,0.014209,0.005499,1.334794,0.018789,0.004330,1.334794,-0.274991,0.800329,1.251796,-2.803935,1.980751,-10.181238
1790549005.2798,0.015936,0.001844,1.345872,0.016792,0.002590,1.345872,0.230092,-0.081138,1.528621,-4.413711,0.939711,-7.076343
1790549005.2936,0.012931,-0.004966,1.368897,0.014090,-0.002699,1.368897,0.528771,-0.022859,1.790875,-0.964192,1.757671,-7.580888
1790549005.3076,0.001877,-0.007153,1.397876,0.005541,-0.005817,1.397876,0.213094,0.471297,1.868580,0.147319,2.166651,-7.852567
1790549005.3215,-0.006020,-0.011641,1.422708,-0.002552,-0.009894,1.422708,0.222807,0.211470,2.030061,0.492271,0.530731,-10.957462
1790549005.3354,-0.016781,-0.020015,1.450143,-0.012512,-0.016979,1.450143,0.510559,0.402090,1.992423,1.143847,0.679451,-9.482637
1790549005.3493,-0.024676,-0.023237,1.472831,-0.021027,-0.021359,1.472831,0.205809,0.353525,1.828514,-0.542584,1.571771,-7.503266
1790549005.3631,-0.031052,-0.029792,1.488038,-0.028044,-0.027262,1.488038,0.349078,0.251537,1.338000,0.607255,0.270471,-9.948371
1790549005.3770,-0.040438,-0.035812,1.501797,-0.036720,-0.033247,1.501797,0.345436,0.482224,0.961616,1.527127,0.679451,-10.491728
1790549005.3910,-0.052410,-0.046335,1.514783,-0.047703,-0.042409,1.514783,0.652614,0.666773,0.815919,2.485326,0.307651,-12.044175
1790549005.4049,-0.061414,-0.057442,1.525960,-0.057301,-0.052932,1.525960,0.765529,0.528361,0.715145,1.258831,1.497411,-10.375294
1790549005.4185,-0.068507,-0.065409,1.533138,-0.065145,-0.061666,1.533138,0.595549,0.462798,0.429822,1.028863,1.757671,-10.258860
1790549005.4321,-0.065042,-0.066235,1.535156,-0.065073,-0.064864,1.535156,0.085609,-0.254760,0.059509,0.760567,1.980751,-12.082986
1790549005.4462,-0.057625,-0.061928,1.533369,-0.059860,-0.062809,1.533369,-0.372122,-0.546155,-0.161465,1.680439,-0.064149,-13.519000
1790549005.4603,-0.053045,-0.057637,1.536534,-0.055089,-0.059189,1.536534,-0.408547,-0.449023,-0.370298,3.711822,-1.142369,-10.530539
1790549005.4747,-0.049102,-0.047054,1.544161,-0.050898,-0.050694,1.544161,-0.738793,-0.441738,-0.346015,3.520182,0.753811,-8.124245
1790549005.4886,-0.037722,-0.035808,1.552302,-0.041675,-0.040274,1.552302,-0.863850,-0.999029,-0.217316,2.983590,0.233291,-7.425644
1790549005.5026,-0.020596,-0.020179,1.560873,-0.026919,-0.026208,1.560873,-1.185598,-1.398482,-0.076475,2.370342,0.344831,-7.348021
1790549005.5165,-0.003713,-0.002106,1.568593,-0.010675,-0.009337,1.568593,-1.396858,-1.388769,-0.121398,2.293686,0.084571,-7.309210
1790549005.5305,0.016424,0.020492,1.568492,0.008294,0.011543,1.568492,-1.773242,-1.427622,-0.369083,0.338959,-0.473129,-7.231588
1790549005.5445,0.002570,0.024221,1.554785,0.004287,0.020418,1.554785,-0.483823,1.078368,-1.015007,4.708349,-3.447528,-19.340679
1790549005.5584,0.006181,0.014806,1.535516,0.005613,0.016489,1.535516,0.618618,0.087628,-1.317328,-2.458983,1.460231,-17.865854
1790549005.5724,0.017438,0.023896,1.511779,0.013890,0.021674,1.511779,-0.266492,-0.592292,-1.373179,0.568927,6.925690,-5.562707
1790549005.5862,0.012289,0.024186,1.496938,0.012770,0.023433,1.496938,0.067397,0.506507,-1.167989,1.105519,2.166651,-5.756762
1790549005.6000,0.028075,0.013455,1.476622,0.023483,0.016448,1.476622,0.691466,-0.730704,-1.175274,-3.647151,0.605091,-10.414105
1790549005.6139,0.049768,0.002764,1.459992,0.041883,0.006869,1.459992,0.854161,-1.226074,-1.069643,-2.420655,2.724351,-7.192776
1790549005.6278,0.056489,-0.008055,1.449373,0.052107,-0.003578,1.449373,0.833521,-0.359177,-0.998009,0.223975,2.612811,-7.658511
1790549005.6415,0.062696,-0.014117,1.438596,0.059520,-0.010955,1.438596,0.574908,-0.287542,-0.803746,-0.887536,3.393591,-7.231588
1790549005.6551,0.072777,-0.019914,1.425249,0.068799,-0.017226,1.425249,0.519058,-0.469664,-0.545134,-4.107087,3.951291,-10.181238
1790549005.6690,0.061651,-0.021848,1.418851,0.063796,-0.020461,1.418851,0.149959,0.888961,-0.203960,-1.999048,3.356411,-16.080539
1790549005.6830,0.052430,-0.009542,1.415303,0.055839,-0.012818,1.415303,-0.840781,0.769976,0.336333,-5.026958,3.691031,-16.235784
1790549005.6969,0.047817,0.000302,1.412736,0.050224,-0.003634,1.412736,-0.776432,0.444585,0.632584,-4.950302,0.270471,-11.966553
1790549005.7108,0.027005,0.011148,1.419205,0.033970,0.006713,1.419205,-0.833496,1.358834,0.820776,-0.005993,0.493551,-6.494175
1790549005.7249,0.023181,0.021977,1.425312,0.026418,0.017398,1.425312,-0.750935,0.448228,0.869342,-2.918919,0.939711,-4.126693
1790549005.7389,0.019864,0.025069,1.430874,0.021830,0.022768,1.430874,-0.307773,0.136193,0.849915,-0.695896,0.307651,-6.028441
1790549005.7529,0.013673,0.020403,1.441275,0.016120,0.021112,1.441275,0.268945,0.251537,1.019895,-0.120976,0.679451,-7.891378
1790549005.7668,0.016477,0.012963,1.454909,0.016370,0.015408,1.454909,0.448638,-0.379817,1.311289,-1.845736,0.605091,-13.092077
1790549005.7808,0.007831,0.016861,1.480286,0.010393,0.016425,1.480286,-0.217926,0.309816,1.714384,-0.159304,2.761531,-9.172147
1790549005.7946,-0.004575,0.013770,1.506430,-0.000085,0.014567,1.506430,0.108678,0.439729,1.929288,1.680439,0.270471,-10.103616
1790549005.8086,-0.008677,0.004576,1.541735,-0.006100,0.007573,1.541735,0.655042,-0.217122,1.787233,1.565455,1.088431,-4.864105
1790549005.8226,-0.013628,0.000509,1.568395,-0.011369,0.002628,1.568395,0.374575,0.059702,1.548047,0.377287,2.873071,-7.348021
1790549005.8365,-0.022666,-0.002922,1.582882,-0.019277,-0.001257,1.582882,0.247090,0.468868,1.081816,0.262303,1.794851,-7.969000
1790549005.8504,-0.032272,-0.010732,1.593914,-0.028374,-0.007889,1.593914,0.476563,0.518648,0.920335,1.028863,1.088431,-13.286133
1790549005.8644,-0.044766,-0.018252,1.607727,-0.039848,-0.015143,1.607727,0.495989,0.688628,0.914265,1.872079,1.794851,-11.500819
1790549005.8781,-0.051692,-0.023342,1.617805,-0.048139,-0.020882,1.617805,0.381860,0.396020,0.705432,0.722239,2.315371,-9.909560
1790549005.8918,-0.050109,-0.025622,1.624936,-0.049518,-0.024200,1.624936,0.202167,-0.152772,0.479602,-0.005993,2.389731,-8.939280
1790549005.9059,-0.048610,-0.021791,1.634795,-0.048883,-0.022514,1.634795,-0.266492,-0.248690,0.290196,2.446998,2.203831,-11.073895
1790549005.9198,-0.040800,-0.014960,1.637520,-0.043225,-0.017226,1.637520,-0.583383,-0.622645,0.010943,2.063719,0.233291,-14.760958
1790549005.9337,-0.032455,-0.004177,1.644910,-0.035686,-0.008092,1.644910,-0.856565,-0.767128,-0.118970,3.366870,0.382011,-9.948371
1790549005.9476,-0.022869,0.007584,1.655337,-0.026714,0.002881,1.655337,-0.918486,-0.928609,-0.185748,3.213558,0.344831,-6.455364
1790549005.9617,-0.011526,0.022596,1.666348,-0.016082,0.016681,1.666348,-1.053256,-1.094947,-0.165108,2.715294,0.976891,-4.320748
1790549005.9762,0.012404,0.043529,1.671909,0.003858,0.035475,1.671909,-1.287586,-1.827074,-0.070404,1.105519,2.203831,-3.855014
1790549005.9903,-0.011807,0.037420,1.665772,-0.007108,0.036837,1.665772,0.266516,1.759501,-0.569417,4.401726,-1.662888,-19.651168
1790549006.0043,0.000505,0.029276,1.644154,-0.001779,0.031544,1.644154,0.511773,-0.436882,-1.055074,-7.364965,0.976891,-18.836133
1790549006.0182,0.004574,0.024796,1.631090,0.002668,0.026820,1.631090,0.426783,-0.274187,-1.313686,4.555037,3.839751,-9.715504
1790549006.0322,0.007564,0.021021,1.610992,0.006095,0.022761,1.610992,0.341793,0.075486,-1.209270,-0.427600,1.794851,-5.679140
1790549006.0459,0.016503,0.015575,1.589551,0.013381,0.017731,1.589551,0.349078,-0.247476,-1.159490,-1.922392,0.716631,-6.261308
1790549006.0600,0.029951,0.004395,1.575182,0.024980,0.008396,1.575182,0.846876,-0.730704,-0.970084,-1.194160,2.761531,-9.637881
1790549006.0740,0.037063,-0.004358,1.562616,0.033438,-0.000532,1.562616,0.691466,-0.371318,-1.018649,0.300631,2.612811,-7.891378
1790549006.0878,0.040316,-0.005235,1.549358,0.038253,-0.003824,1.549358,0.164528,-0.087209,-0.909377,-0.159304,3.951291,-9.870749
1790549006.1014,0.048715,-0.011352,1.535748,0.045576,-0.009094,1.535748,0.444995,-0.378603,-0.599770,-2.765607,1.906391,-10.064805
1790549006.1150,0.052465,-0.018815,1.523884,0.050398,-0.015899,1.523884,0.636830,-0.048356,-0.335087,-2.803935,2.761531,-8.085434
1790549006.1289,0.048909,-0.019385,1.528810,0.049356,-0.018339,1.528810,0.078324,0.204185,0.433465,-0.887536,2.873071,-14.605714
1790549006.1427,0.044424,-0.013868,1.528873,0.045903,-0.015210,1.528873,-0.396405,0.433658,0.767354,-6.138470,1.832031,-14.139979
1790549006.1566,0.037783,-0.008418,1.535987,0.040219,-0.010455,1.535987,-0.395191,0.474939,1.108528,-3.647151,1.311511,-11.190329
1790549006.1705,0.022013,-0.001638,1.545173,0.027475,-0.004283,1.545173,-0.443757,1.055299,1.078174,-1.155832,1.571771,-6.921098
1790549006.1845,0.014565,0.001832,1.553071,0.018438,-0.000002,1.553071,-0.412189,0.516220,1.193517,-1.769080,-0.621849,-5.485084
1790549006.1982,0.006849,0.007755,1.567170,0.010326,0.005428,1.567170,-0.452256,0.404519,1.350142,-0.887536,1.051251,-6.765853
1790549006.2122,-0.007828,0.011094,1.582453,-0.002382,0.009394,1.582453,-0.364838,0.807614,1.461843,-0.044320,0.121751,-15.343126
1790549006.2271,-0.003548,0.002433,1.600232,-0.003199,0.004521,1.600232,0.421927,-0.406528,1.444845,-3.685479,-0.770569,-13.907112
1790549006.2410,-0.006754,0.003972,1.624720,-0.005687,0.004137,1.624720,-0.106225,-0.084781,1.652463,0.300631,1.571771,-6.649420
1790549006.2550,-0.020728,0.002370,1.650419,-0.016216,0.002900,1.650419,-0.033377,0.568428,1.634251,2.446998,-0.138509,-9.016902
1790549006.2689,-0.021652,-0.006577,1.674194,-0.020021,-0.003734,1.674194,0.521486,-0.277829,1.686459,0.683911,0.382011,-6.532986
1790549006.2828,-0.021620,-0.011820,1.694907,-0.021140,-0.009394,1.694907,0.392787,-0.228049,1.336786,0.262303,2.426911,-8.939280
1790549006.2968,-0.029435,-0.013835,1.707018,-0.026947,-0.012503,1.707018,0.047971,0.397234,1.028394,0.415615,0.716631,-11.306763
1790549006.3106,-0.042115,-0.020109,1.718518,-0.037565,-0.017827,1.718518,0.379432,0.714125,0.820776,2.638638,1.199971,-13.945924
1790549006.3245,-0.053445,-0.027998,1.732960,-0.048681,-0.024947,1.732960,0.537270,0.580569,0.843845,2.446998,1.683311,-9.637881
1790549006.3382,-0.062995,-0.033232,1.744990,-0.058701,-0.030747,1.744990,0.432854,0.535646,0.667794,1.680439,2.501271,-8.395923
1790549006.3517,-0.065656,-0.038192,1.751611,-0.063570,-0.035959,1.751611,0.397644,0.179902,0.528168,-0.120976,2.092291,-8.163056
1790549006.3655,-0.062393,-0.040701,1.755818,-0.062746,-0.039279,1.755818,0.123248,-0.225621,0.416467,-0.465928,1.125611,-11.423196
1790549006.3795,-0.054455,-0.034052,1.760401,-0.056942,-0.035620,1.760401,-0.567599,-0.644500,0.197921,2.025391,0.419191,-15.381938
1790549006.3934,-0.045960,-0.022413,1.765201,-0.049255,-0.026375,1.765201,-0.963410,-0.723419,0.017014,2.868606,-0.621849,-12.509909
1790549006.4073,-0.034861,-0.010394,1.776758,-0.039179,-0.015189,1.776758,-1.054470,-1.036668,-0.151752,4.325070,-1.625708,-8.473546
1790549006.4213,-0.021027,0.005771,1.784277,-0.026473,-0.000517,1.784277,-1.155244,-1.230931,-0.094687,2.408670,1.051251,-5.135783
1790549006.4352,-0.001686,0.024685,1.791310,-0.009122,0.017124,1.791310,-1.338580,-1.603672,-0.064334,1.603783,1.125611,-4.398371
1790549006.4491,0.011627,0.043738,1.792210,0.005402,0.035754,1.792210,-1.237806,-1.047595,-0.134754,0.722239,1.943571,-4.087881
1790549006.4635,-0.020320,0.035699,1.770841,-0.012603,0.035716,1.770841,0.519058,2.596045,-0.898449,-3.953775,2.278191,-21.281238
1790549006.4779,-0.001072,0.036169,1.753912,-0.004532,0.036033,1.753912,0.115963,-0.926181,-1.131565,-5.448566,7.111590,-14.916203
1790549006.4920,-0.007177,0.036029,1.736388,-0.006383,0.036030,1.736388,0.114749,0.604852,-1.395033,2.676966,3.728211,-9.909560
1790549006.5060,-0.005754,0.040018,1.710562,-0.005943,0.038821,1.710562,-0.071015,0.534432,-1.311258,-1.845736,1.571771,-2.302567
1790549006.5200,0.001599,0.035048,1.699839,-0.000663,0.036180,1.699839,0.207023,-0.345821,-0.953086,0.223975,-0.324409,-6.067252
1790549006.5338,0.007032,0.032453,1.682470,0.004724,0.033571,1.682470,0.145102,-0.067783,-1.155847,-1.385800,1.348691,-10.491728
1790549006.5482,0.012051,0.030534,1.668247,0.009853,0.031445,1.668247,0.182741,-0.090851,-0.968870,-1.040848,2.947431,-9.870749
1790549006.5622,0.013793,0.034608,1.656496,0.012611,0.033659,1.656496,-0.124437,0.182331,-0.853526,-2.152360,4.806431,-8.784035
1790549006.5761,0.017587,0.032696,1.647239,0.016094,0.032985,1.647239,0.152387,-0.028930,-0.421292,-2.535639,2.241011,-9.133336
1790549006.5901,0.019504,0.032081,1.645574,0.018481,0.032352,1.645574,0.149959,0.059702,-0.015768,-2.842263,3.207691,-7.619700
1790549006.6043,0.018818,0.027337,1.648059,0.018717,0.028841,1.648059,0.357577,0.071844,0.367901,-1.960720,2.724351,-11.035084
1790549006.6199,0.016113,0.026390,1.657525,0.016894,0.027125,1.657525,0.159672,0.156834,0.604659,-1.960720,3.691031,-9.094525
1790549006.6348,0.018739,0.015814,1.671455,0.018185,0.019207,1.671455,0.729104,-0.327609,0.991970,-1.117504,2.501271,-11.229140
1790549006.6495,0.012272,0.009259,1.692929,0.014046,0.012243,1.692929,0.576123,0.258822,1.312503,-1.232488,4.397451,-10.375294
1790549006.6647,0.001340,0.011277,1.712875,0.005152,0.011567,1.712875,-0.080728,0.529575,1.531049,-1.730752,3.319231,-10.841028
1790549006.6791,0.000220,0.009978,1.735497,0.001699,0.010455,1.735497,0.130532,-0.132132,1.772663,-1.807408,2.612811,-8.628791
1790549006.6930,-0.009824,0.005523,1.761905,-0.006367,0.007002,1.761905,0.290799,0.341383,1.770235,0.798895,1.237151,-6.959909
1790549006.7072,-0.015720,0.001319,1.784438,-0.012914,0.003024,1.784438,0.194882,0.094913,1.793304,0.185647,0.567911,-7.037532
1790549006.7219,-0.020774,-0.007652,1.805318,-0.018416,-0.004449,1.805318,0.480205,0.073058,1.762950,-0.274288,0.382011,-10.336483
1790549006.7360,-0.028003,-0.013605,1.817720,-0.025127,-0.010858,1.817720,0.301726,0.436086,1.575972,-2.688951,0.605091,-10.297672
1790549006.7499,-0.030039,-0.017543,1.825744,-0.028565,-0.015538,1.825744,0.159672,0.103412,1.124311,-2.305671,0.493551,-12.393476
1790549006.7638,-0.035056,-0.021116,1.831341,-0.033109,-0.019442,1.831341,0.128104,0.252751,0.722430,0.453943,-0.026969,-10.297672
1790549006.7778,-0.044384,-0.029343,1.836762,-0.041001,-0.026372,1.836762,0.475349,0.533218,0.505099,1.757095,-0.064149,-10.841028
1790549006.7914,-0.054553,-0.040165,1.845878,-0.050488,-0.036027,1.845878,0.738818,0.573285,0.475959,2.255358,0.716631,-9.055714
1790549006.8049,-0.060288,-0.046643,1.853578,-0.057348,-0.043458,1.853578,0.536056,0.354739,0.286553,1.373815,2.835891,-11.151518
1790549006.8188,-0.056809,-0.044497,1.853799,-0.056970,-0.044185,1.853799,-0.156005,-0.243833,0.003658,0.722239,1.832031,-13.441378
1790549006.8327,-0.048672,-0.035616,1.851445,-0.051162,-0.038187,1.851445,-0.676872,-0.600791,-0.270738,1.872079,0.976891,-14.334035
1790549006.8466,-0.041313,-0.028677,1.852169,-0.044267,-0.031530,1.852169,-0.599167,-0.628716,-0.318089,2.753622,-0.435949,-9.599070
1790549006.8604,-0.031934,-0.020306,1.860532,-0.035634,-0.023673,1.860532,-0.655018,-0.881258,-0.331445,3.405198,0.307651,-7.076343
1790549006.8744,-0.021390,-0.008552,1.873982,-0.025663,-0.013089,1.873982,-0.815284,-1.029383,-0.265881,3.481854,1.199971,-5.601518
1790549006.8883,-0.004859,0.009790,1.876758,-0.011100,0.002927,1.876758,-1.365291,-1.262498,-0.207603,1.258831,0.790991,-7.386832
1790549006.9024,0.010333,0.030347,1.880047,0.003903,0.022121,1.880047,-1.679753,-1.183579,-0.301091,2.102047,-1.476988,-9.016902
1790549006.9163,-0.006058,0.028687,1.863863,-0.003070,0.026717,1.863863,-0.055231,1.335766,-1.080571,3.213558,-1.960328,-18.370399
1790549006.9303,-0.002592,0.023873,1.844663,-0.002735,0.024726,1.844663,0.427997,0.205399,-1.232338,-4.643678,4.285911,-13.324944
1790549006.9441,0.007661,0.029802,1.829857,0.004542,0.028280,1.829857,-0.118367,-0.377389,-1.252979,-1.845736,6.405170,-7.192776
1790549006.9580,0.001103,0.027766,1.813281,0.002135,0.027920,1.813281,0.208238,0.655846,-1.277262,1.258831,2.278191,-7.503266
1790549006.9722,0.011870,0.021939,1.792431,0.008949,0.023734,1.792431,0.383074,-0.378603,-1.362252,-1.999048,1.423051,-10.103616
1790549006.9865,0.025950,0.014771,1.775920,0.020850,0.017460,1.775920,0.472920,-0.705207,-1.210484,-1.117504,1.646131,-10.220049
1790549007.0006,0.031952,0.006753,1.758066,0.028621,0.009965,1.758066,0.617403,-0.122419,-1.289403,-1.040848,2.426911,-7.774944
1790549007.0145,0.037102,0.003871,1.746417,0.034558,0.005699,1.746417,0.302941,-0.133346,-0.900878,-1.270816,3.133331,-7.930189
1790549007.0282,0.044675,0.000936,1.734274,0.041640,0.002365,1.734274,0.275015,-0.262045,-0.770964,-2.957247,3.096151,-9.443825
1790549007.0417,0.048453,-0.005133,1.727129,0.046409,-0.002884,1.727129,0.471706,-0.118776,-0.445574,-1.845736,2.426911,-10.297672
1790549007.0556,0.043200,-0.011276,1.726786,0.044163,-0.008759,1.726786,0.459565,0.396020,0.053438,-0.964192,2.724351,-13.402567
1790549007.0696,0.034909,-0.007874,1.728162,0.037685,-0.008139,1.728162,-0.250708,0.647347,0.534238,-4.068759,2.315371,-16.158161
1790549007.0835,0.028949,0.001344,1.731703,0.031570,-0.001501,1.731703,-0.667159,0.579355,0.847487,-6.215126,1.757671,-11.112707
1790549007.0974,0.016544,0.009258,1.734984,0.021051,0.006030,1.734984,-0.676872,0.873178,0.979828,-1.539112,-0.026969,-6.106063
1790549007.1114,0.005580,0.016964,1.745099,0.010221,0.013684,1.745099,-0.605238,0.647347,1.143738,-0.427600,0.456371,-4.049070
1790549007.1253,0.002543,0.017908,1.756633,0.004846,0.016641,1.756633,-0.143864,0.043919,1.153451,-0.887536,1.125611,-12.548721
1790549007.1391,0.012423,0.004135,1.775217,0.010150,0.007887,1.775217,0.933080,-1.005100,1.318574,0.492271,1.125611,-12.160609
1790549007.1530,0.000331,0.006380,1.813137,0.003277,0.006832,1.813137,0.016403,0.440943,1.691316,2.178703,4.657711,-8.900469
1790549007.1669,-0.012444,0.009809,1.837712,-0.007728,0.008916,1.837712,-0.232496,0.610923,1.807873,-0.044320,2.947431,-11.229140
1790549007.1809,-0.019938,0.001274,1.860174,-0.016275,0.003567,1.860174,0.457137,0.173832,1.915932,0.492271,0.084571,-8.667602
1790549007.1947,-0.024166,-0.004931,1.884399,-0.021799,-0.002382,1.884399,0.374575,-0.010718,1.838227,0.147319,0.828171,-5.523895
1790549007.2086,-0.031072,-0.007959,1.903703,-0.028290,-0.006286,1.903703,0.156029,0.223612,1.385352,1.067191,1.571771,-10.181238
1790549007.2227,-0.040141,-0.014362,1.914331,-0.036586,-0.011940,1.914331,0.334508,0.460369,0.968901,1.067191,0.382011,-11.073895
1790549007.2370,-0.051134,-0.024884,1.922100,-0.046770,-0.021001,1.922100,0.629545,0.638848,0.779495,1.067191,0.493551,-12.354665
1790549007.2509,-0.060029,-0.030927,1.934061,-0.056051,-0.027949,1.934061,0.425569,0.489509,0.772210,1.373815,1.980751,-9.599070
1790549007.2646,-0.063286,-0.034954,1.939395,-0.061116,-0.032852,1.939395,0.255589,0.230896,0.530596,-0.389272,1.534591,-10.724595
1790549007.2786,-0.060670,-0.033920,1.943550,-0.060804,-0.033600,1.943550,-0.067373,-0.192839,0.253771,0.185647,1.980751,-10.375294
1790549007.2924,-0.054843,-0.029263,1.943127,-0.056631,-0.030564,1.943127,-0.386692,-0.435668,-0.006055,0.952207,0.902531,-11.694875
1790549007.3064,-0.043590,-0.020894,1.943436,-0.047502,-0.023795,1.943436,-0.693870,-0.893399,-0.128683,2.523654,-0.026969,-11.578441
1790549007.3202,-0.030623,-0.009395,1.944937,-0.035686,-0.013715,1.944937,-0.918486,-1.077949,-0.297449,3.635166,0.047391,-10.569350
1790549007.3342,-0.015504,0.004976,1.951474,-0.021559,-0.000632,1.951474,-1.041115,-1.297708,-0.295021,3.251886,1.014071,-6.688231
1790549007.3483,-0.002815,0.021057,1.960470,-0.008438,0.014550,1.960470,-1.174670,-1.192078,-0.193033,3.366870,0.790991,-5.562707
1790549007.3623,0.001474,0.036442,1.956918,-0.001499,0.029875,1.956918,-1.105464,-0.337322,-0.480784,1.373815,1.199971,-6.183686
1790549007.3763,-0.020916,0.027615,1.936859,-0.015091,0.028293,1.936859,0.639258,1.973190,-0.933659,-2.918919,2.575631,-14.838581
1790549007.3903,0.005020,0.028143,1.918304,-0.001013,0.028188,1.918304,0.098965,-1.244286,-1.528589,-7.058341,4.583351,-10.142427
1790549007.4042,0.014523,0.029547,1.903082,0.009862,0.029139,1.903082,0.109892,-0.319110,-1.430244,-1.079176,4.285911,-6.843476
1790549007.4182,0.014333,0.026356,1.883416,0.012991,0.027191,1.883416,0.326009,0.447014,-1.225054,-2.037376,2.501271,-6.222497
1790549007.4322,0.023818,0.014817,1.865446,0.020570,0.018529,1.865446,0.692680,-0.418670,-1.049003,-1.270816,-0.175689,-11.384385
1790549007.4462,0.036214,0.004410,1.850906,0.031521,0.008646,1.850906,0.732747,-0.631144,-1.114567,-1.385800,2.352551,-11.656063
1790549007.4601,0.042876,0.000844,1.843357,0.039469,0.003185,1.843357,0.400072,-0.269330,-1.010150,-0.734224,3.542311,-7.192776
1790549007.4748,0.047466,-0.001342,1.835740,0.045067,0.000016,1.835740,0.283514,-0.077496,-0.779463,-1.769080,3.691031,-7.425644
1790549007.4886,0.058735,-0.009359,1.824411,0.054634,-0.006547,1.824411,0.567624,-0.544940,-0.483213,-3.723807,1.683311,-9.405014
1790549007.5019,0.063726,-0.017912,1.826265,0.060998,-0.014502,1.826265,0.749745,-0.286328,-0.132326,-1.807408,3.616671,-10.258860
1790549007.5160,0.057034,-0.021290,1.832025,0.058223,-0.019254,1.832025,0.288371,0.442157,0.491743,-1.769080,3.170511,-15.226693
1790549007.5299,0.049376,-0.015521,1.835766,0.052030,-0.016641,1.835766,-0.398834,0.587854,0.786780,-4.452038,2.315371,-15.032637
1790549007.5439,0.041017,-0.007646,1.838538,0.044321,-0.010345,1.838538,-0.605238,0.621850,0.970115,-3.263871,0.567911,-9.754315
1790549007.5578,0.026405,0.001291,1.842079,0.031780,-0.002200,1.842079,-0.747292,0.937527,1.012610,-0.504256,-0.101329,-5.058161
1790549007.5717,0.018343,0.008934,1.848741,0.022374,0.005594,1.848741,-0.663517,0.468868,1.191089,-0.619240,-0.026969,-3.777392
1790549007.5856,0.007948,0.014829,1.867387,0.012276,0.012058,1.867387,-0.376979,0.512577,1.244511,0.108991,1.943571,-7.270399
1790549007.5996,0.005636,0.003552,1.883195,0.007628,0.006104,1.883195,0.725462,-0.081138,1.492196,-0.734224,0.976891,-15.420749
1790549007.6135,-0.003267,0.000464,1.905885,0.000002,0.002156,1.905885,0.243448,0.391163,1.623324,-0.465928,2.426911,-10.025993
1790549007.6276,-0.012801,0.007376,1.929261,-0.008960,0.005810,1.929261,-0.502036,0.386307,1.698601,0.032335,1.794851,-8.201867
1790549007.6415,-0.017267,0.004877,1.947671,-0.014775,0.005157,1.947671,0.006690,-0.039857,1.629394,1.028863,-0.250049,-8.007811
1790549007.6555,-0.019088,-0.000073,1.978238,-0.017794,0.001496,1.978238,0.431640,-0.185554,1.541976,0.492271,2.092291,-5.407462
1790549007.6695,-0.022826,-0.001837,1.997589,-0.021316,-0.000837,1.997589,0.140246,0.071844,1.250582,-0.082648,2.538451,-9.443825
1790549007.6834,-0.027646,-0.001209,2.007407,-0.025747,-0.001097,2.007407,-0.128080,0.196900,0.968901,0.185647,1.348691,-13.441378
1790549007.6974,-0.038784,-0.008172,2.016908,-0.034873,-0.006050,2.016908,0.381860,0.587854,0.891196,2.293686,0.530731,-14.916203
1790549007.7110,-0.046378,-0.013488,2.030442,-0.042927,-0.011256,2.030442,0.391573,0.393591,0.848701,0.990535,2.241011,-9.560259
1790549007.7247,-0.054069,-0.017101,2.042158,-0.050726,-0.015348,2.042158,0.285943,0.426373,0.637440,0.952207,1.906391,-7.503266
1790549007.7390,-0.053978,-0.020223,2.050763,-0.053003,-0.018760,2.050763,0.267730,-0.049570,0.381256,0.223975,1.943571,-6.765853
1790549007.7530,-0.051035,-0.018677,2.055383,-0.051625,-0.018702,2.055383,-0.159648,-0.302112,0.235559,1.795423,1.274331,-12.044175
1790549007.7669,-0.042693,-0.009024,2.053446,-0.045373,-0.011927,2.053446,-0.787359,-0.623860,-0.065548,1.527127,0.382011,-15.886483
1790549007.7808,-0.036005,0.002791,2.054595,-0.038815,-0.001624,2.054595,-0.980408,-0.617789,-0.180891,2.983590,-0.547489,-9.249770
1790549007.7946,-0.021176,0.015243,2.061469,-0.026467,0.010183,2.061469,-0.962195,-1.285567,-0.343586,2.753622,0.419191,-5.679140
1790549007.8086,-0.012836,0.031129,2.085333,-0.016925,0.024845,2.085333,-1.065398,-1.052452,-0.236742,3.175230,0.976891,-2.263755
1790549007.8225,-0.005579,0.039741,2.088969,-0.008983,0.035273,2.088969,-0.610094,-0.697922,-0.263453,4.746677,2.687171,-11.578441
1790549007.8363,-0.020524,0.032518,2.073160,-0.017062,0.033345,2.073160,0.559125,1.344265,-0.675047,-2.152360,4.323091,-18.137532
1790549007.8503,-0.002214,0.028222,2.053987,-0.006668,0.029759,2.053987,0.394001,-0.904326,-1.166775,-6.445094,6.702610,-20.310959
1790549007.8643,-0.001569,0.019468,2.035110,-0.003099,0.022556,2.035110,0.528771,0.173832,-1.358609,1.067191,0.084571,-9.870749
1790549007.8784,-0.001806,0.018857,2.013670,-0.002194,0.019966,2.013670,0.164528,0.376593,-1.388963,-0.734224,2.166651,-5.601518
1790549007.8923,0.006050,0.015095,2.001959,0.003577,0.016556,2.001959,0.244662,-0.419884,-0.994367,0.607255,1.125611,-8.007811
1790549007.9062,0.010979,0.010038,1.984919,0.008758,0.011993,1.984919,0.455922,-0.053213,-1.161918,-1.194160,2.873071,-8.240679
1790549007.9202,0.019754,0.003743,1.972367,0.016455,0.006218,1.972367,0.515415,-0.407742,-0.945801,-0.887536,2.649991,-8.706413
1790549007.9342,0.025961,0.002891,1.957511,0.023110,0.003889,1.957511,0.180312,-0.143059,-0.953086,-2.497311,4.137191,-9.676693
1790549007.9478,0.033421,-0.003661,1.946888,0.030328,-0.001396,1.946888,0.474135,-0.345821,-0.587629,-1.999048,1.906391,-10.414105
1790549007.9614,0.034885,-0.008441,1.944327,0.033518,-0.006327,1.944327,0.432854,-0.004647,-0.167536,-1.232488,2.575631,-8.124245
1790549007.9756,0.036111,-0.015605,1.946240,0.035333,-0.012822,1.946240,0.498417,-0.060498,0.426180,-2.152360,1.571771,-11.345574
1790549007.9899,0.028063,-0.014703,1.951714,0.030244,-0.014138,1.951714,-0.060088,0.546573,0.773424,-3.417183,2.575631,-17.283686
1790549008.0041,0.020466,-0.009091,1.955922,0.023400,-0.010605,1.955922,-0.434044,0.598781,1.015039,-5.946830,1.385871,-14.799770
1790549008.0179,0.010214,-0.001928,1.963847,0.014169,-0.004532,1.963847,-0.516605,0.845252,1.183804,-3.187215,1.051251,-5.717951
1790549008.0319,-0.000530,0.004098,1.970408,0.003880,0.001509,1.970408,-0.589454,0.671630,1.328287,-0.734224,-0.212869,-3.660958
1790549008.0458,-0.005404,0.008897,1.981832,-0.002619,0.006681,1.981832,-0.429187,0.285533,1.325859,-1.040848,0.307651,-3.699769
1790549008.0597,-0.005439,0.002135,1.997889,-0.004593,0.003498,1.997889,0.410999,-0.183126,1.464271,-1.500784,1.274331,-12.121798
1790549008.0738,-0.010458,-0.006482,2.017620,-0.008698,-0.003488,2.017620,0.540912,0.076700,1.629394,0.223975,1.385871,-13.286133
1790549008.0878,-0.015773,-0.005994,2.040245,-0.013651,-0.005242,2.040245,-0.084371,0.160476,1.801803,-1.424128,1.980751,-11.927742
1790549008.1018,-0.026844,-0.011877,2.061976,-0.022886,-0.009887,2.061976,0.239805,0.413018,1.940215,0.913879,-0.212869,-7.231588
1790549008.1158,-0.025416,-0.018667,2.083988,-0.024657,-0.016033,2.083988,0.356363,-0.320324,1.855225,-0.542584,0.344831,-5.019350
1790549008.1296,-0.034155,-0.021522,2.113797,-0.031306,-0.019876,2.113797,0.256803,0.332884,1.520122,1.028863,2.241011,-6.688231
1790549008.1436,-0.037199,-0.023871,2.125054,-0.035431,-0.022672,2.125054,0.062540,0.068201,1.069675,0.300631,0.790991,-12.121798
1790549008.1575,-0.047808,-0.030184,2.133213,-0.044095,-0.027931,2.133213,0.345436,0.599996,0.834131,1.833751,0.530731,-14.178791
1790549008.1711,-0.054356,-0.037456,2.142543,-0.051278,-0.034598,2.142543,0.468064,0.347454,0.775853,1.258831,1.237151,-11.656063
1790549008.1847,-0.060145,-0.041737,2.151861,-0.057485,-0.039595,2.151861,0.306583,0.328028,0.586446,0.952207,1.646131,-9.094525
1790549008.1986,-0.058305,-0.040506,2.159755,-0.058059,-0.040233,2.159755,-0.046732,-0.169770,0.286553,0.607255,2.315371,-9.560259
1790549008.2125,-0.049949,-0.032388,2.164836,-0.052382,-0.034741,2.164836,-0.549387,-0.657856,-0.002413,1.603783,2.389731,-11.190329
1790549008.2264,-0.035940,-0.022874,2.165466,-0.040873,-0.026434,2.165466,-0.760648,-1.096161,-0.157823,2.561982,0.382011,-12.277042
1790549008.2408,-0.031236,-0.011485,2.171721,-0.034127,-0.015969,2.171721,-0.851709,-0.514587,-0.169964,4.018446,0.382011,-9.482637
1790549008.2548,-0.020352,-0.000657,2.176007,-0.024485,-0.005251,2.176007,-0.844424,-0.937108,-0.169964,2.638638,0.382011,-7.852567
1790549008.2688,-0.006565,0.015149,2.193689,-0.011941,0.009029,2.193689,-1.124891,-1.315921,-0.060691,2.906934,0.865351,-4.398371
1790549008.2827,0.006751,0.034767,2.199822,0.001144,0.027045,2.199822,-1.384717,-1.093733,-0.058263,1.105519,1.348691,-5.058161
1790549008.2966,-0.013012,0.026001,2.183845,-0.008765,0.026314,2.183845,0.437710,1.589521,-0.729684,0.837223,-2.480848,-17.438931
1790549008.3106,-0.008993,0.014961,2.167681,-0.008925,0.018367,2.167681,0.867517,0.187187,-1.116995,-7.518277,4.806431,-16.701518
1790549008.3245,0.001440,0.012567,2.154578,-0.001669,0.014307,2.154578,0.275015,-0.566795,-1.312472,1.105519,3.430771,-9.909560
1790549008.3385,-0.001707,0.010747,2.145694,-0.001696,0.011815,2.145694,0.270159,0.279462,-1.095140,1.987063,2.835891,-6.571797
1790549008.3524,0.014512,0.000562,2.127822,0.009649,0.003938,2.127822,0.584622,-0.776841,-0.979797,-3.417183,-0.770569,-8.706413
1790549008.3663,0.035939,-0.013568,2.113250,0.028052,-0.008316,2.113250,1.036282,-1.192078,-1.199557,-3.110559,2.352551,-10.220049
1790549008.3803,0.048840,-0.024276,2.103764,0.042603,-0.019488,2.103764,0.901513,-0.719777,-1.214126,-0.427600,2.352551,-5.096972
1790549008.3942,0.055985,-0.031127,2.091809,0.051970,-0.027635,2.091809,0.578551,-0.260831,-1.074500,-1.845736,3.096151,-8.279490
1790549008.4078,0.065806,-0.040652,2.081492,0.061655,-0.036747,2.081492,0.709678,-0.536441,-0.840171,-1.884064,2.426911,-10.918651
1790549008.4214,0.058335,-0.042297,2.074748,0.059331,-0.040632,2.074748,0.159672,0.672844,-0.502639,-1.730752,3.319231,-13.208511
1790549008.4352,0.052649,-0.033977,2.069982,0.054654,-0.035973,2.069982,-0.618593,0.572070,0.115359,-5.525222,2.055111,-16.623896
