t,imu_roll,imu_pitch,imu_yaw,lpf_roll,lpf_pitch,lpf_yaw,gyro_x,gyro_y,gyro_z,acc_x,acc_y,acc_z
1790548688.2081,0.010977,-0.022091,-0.002834,0.007684,-0.015464,-0.002834,-0.019006,-0.005726,-0.002810,0.223975,1.348691,-9.754315
1790548688.2232,0.009301,-0.027939,-0.003580,0.008816,-0.024196,-0.003580,0.021061,0.005201,-0.005238,0.262303,1.311511,-10.064805
1790548688.2370,0.012319,-0.033072,-0.000859,0.011268,-0.030410,-0.000859,0.027131,0.011272,0.002046,0.147319,1.199971,-9.909560
1790548688.2507,0.015707,-0.035023,0.002179,0.014375,-0.033639,0.002179,0.010133,0.013700,0.003261,0.070663,1.237151,-10.025993
1790548688.2646,0.019204,-0.039564,0.004917,0.017755,-0.037787,0.004917,-0.015364,0.014915,0.003261,-0.005993,1.051251,-10.025993
1790548688.2785,0.017598,-0.041439,0.002958,0.017645,-0.040343,0.002958,-0.045717,0.029484,0.010545,0.223975,1.125611,-10.258860
1790548688.2926,0.014453,-0.043327,0.000462,0.015411,-0.042432,0.000462,-0.061501,0.107189,0.021473,0.300631,1.088431,-10.491728
1790548688.3072,0.011913,-0.044315,0.000776,0.012963,-0.043750,0.000776,-0.090641,0.164254,0.066396,0.223975,1.051251,-10.181238
1790548688.3214,0.013008,-0.042887,0.008987,0.012994,-0.043146,0.008987,-0.162275,0.195822,0.157457,-0.120976,1.125611,-9.870749
1790548688.3356,0.010333,-0.038883,0.014046,0.011132,-0.040162,0.014046,-0.255764,0.215248,0.275228,0.147319,1.199971,-9.288581
1790548688.3496,0.012455,-0.038110,0.022808,0.012058,-0.038726,0.022808,-0.287332,0.008844,0.422140,-0.082648,0.902531,-9.560259
1790548688.3635,0.017230,-0.038613,0.035671,0.015678,-0.038647,0.035671,-0.222982,-0.122284,0.587263,-0.274288,0.828171,-9.560259
1790548688.3776,0.012285,-0.037356,0.033449,0.013303,-0.037743,0.033449,-0.215697,-0.076146,0.720819,0.645583,0.902531,-8.395923
1790548688.3916,0.018493,-0.035110,0.063028,0.016936,-0.035900,0.063028,-0.148919,0.087763,0.678324,-0.925864,1.274331,-9.676693
1790548688.4056,0.022380,-0.035540,0.074613,0.020747,-0.035648,0.074613,-0.167132,-0.040936,0.526556,-0.580912,1.088431,-12.044175
1790548688.4196,0.021089,-0.038218,0.064369,0.020986,-0.037447,0.064369,-0.076071,-0.167207,0.406356,0.607255,0.828171,-11.500819
1790548688.4334,0.016312,-0.035892,0.059481,0.017714,-0.036358,0.059481,-0.090641,-0.000869,0.385715,0.875551,1.571771,-10.646972
1790548688.4473,0.011476,-0.034905,0.053522,0.013348,-0.035341,0.053522,0.039273,-0.053077,0.393000,0.990535,1.497411,-9.482637
1790548688.4610,0.001514,-0.034410,0.042072,0.005064,-0.034689,0.042072,0.051414,0.201892,0.328651,1.412143,1.423051,-9.288581
1790548688.4746,-0.004358,-0.033632,0.040858,-0.001531,-0.033949,0.040858,0.056271,0.290525,0.248517,0.568927,1.385871,-8.551168
1790548688.4886,-0.006965,-0.033104,0.044056,-0.005335,-0.033357,0.044056,0.028345,0.220105,0.182954,0.262303,1.571771,-10.375294
1790548688.5026,-0.011854,-0.028987,0.041429,-0.009899,-0.030298,0.041429,-0.124637,0.201892,0.147743,0.875551,1.943571,-10.375294
1790548688.5167,-0.016261,-0.024370,0.037453,-0.014352,-0.026149,0.037453,-0.161061,0.053767,0.146529,1.258831,1.943571,-9.987182
1790548688.5306,-0.022144,-0.018881,0.030930,-0.019806,-0.021061,0.030930,-0.125851,0.014915,0.056683,1.987063,2.464091,-10.491728
1790548688.5446,-0.023256,-0.013794,0.028400,-0.022221,-0.015974,0.028400,-0.204770,-0.348114,-0.047733,2.178703,2.166651,-10.530539
1790548688.5590,-0.029503,-0.011905,0.038077,-0.027318,-0.013126,0.038077,-0.244837,0.014915,-0.302703,2.676966,1.237151,-11.423196
1790548688.5732,-0.028988,-0.012665,0.021809,-0.028487,-0.012803,0.021809,0.199539,0.224961,-0.674231,0.070663,2.464091,-13.130889
1790548688.5872,-0.019935,-0.003621,-0.020724,-0.022501,-0.006376,-0.020724,-0.040861,-0.182991,-1.070041,-0.504256,3.058971,-8.201867
1790548688.6011,-0.007936,0.000194,-0.050863,-0.012305,-0.001777,-0.050863,0.004063,-0.365112,-1.223023,-0.580912,1.906391,-7.580888
1790548688.6151,0.008550,-0.000211,-0.071592,0.002294,-0.000681,-0.071592,0.195897,-0.412463,-0.906132,-1.654096,1.571771,-7.076343
1790548688.6292,0.011837,-0.009935,-0.080025,0.008974,-0.007158,-0.080025,0.459366,-0.074932,-0.876992,0.147319,0.567911,-11.578441
1790548688.6432,0.018002,-0.009123,-0.098372,0.015294,-0.008534,-0.098372,0.143689,-0.140496,-1.224237,-0.389272,2.687171,-11.462007
1790548688.6571,0.024802,-0.010950,-0.120993,0.021950,-0.010225,-0.120993,0.093909,-0.156280,-1.405144,-0.465928,1.385871,-10.724595
1790548688.6710,0.019610,-0.006022,-0.123494,0.020312,-0.007283,-0.123494,0.001634,0.408297,-1.299514,0.607255,2.203831,-6.843476
1790548688.6846,0.007563,-0.000331,-0.114172,0.011388,-0.002417,-0.114172,-0.101568,0.709404,-1.085825,1.412143,2.315371,-7.464455
1790548688.6983,-0.004610,-0.000225,-0.109000,0.000190,-0.000883,-0.109000,-0.131921,0.789537,-0.985051,1.718767,0.976891,-10.608161
1790548688.7123,-0.015818,0.000567,-0.113455,-0.011015,0.000132,-0.113455,-0.150134,0.849030,-0.811429,1.028863,1.088431,-10.918651
1790548688.7262,-0.022943,0.002280,-0.122237,-0.019365,0.001635,-0.122237,-0.236338,0.693620,-0.625665,0.262303,1.051251,-11.617252
1790548688.7402,-0.037189,0.004965,-0.120491,-0.031842,0.003966,-0.120491,-0.153776,0.862386,-0.364624,1.833751,1.683311,-9.599070
1790548688.7541,-0.031112,-0.004864,-0.118432,-0.031331,-0.002215,-0.118432,0.465437,-0.276480,-0.050162,-0.274288,0.530731,-15.886483
1790548688.7681,-0.025111,-0.018216,-0.112167,-0.026977,-0.013416,-0.112167,0.849105,-0.473171,0.151386,0.913879,1.311511,-13.751868
1790548688.7821,-0.029317,-0.018989,-0.124202,-0.028615,-0.017317,-0.124202,0.602635,-0.145352,0.376002,2.255358,3.542311,-6.921098
1790548688.7969,-0.036614,-0.030584,-0.118437,-0.034214,-0.026604,-0.118437,1.066437,0.160612,0.723247,1.872079,2.835891,-8.240679
1790548688.8117,-0.036733,-0.020798,-0.142452,-0.035978,-0.022540,-0.142452,-0.590867,0.288096,0.694107,-2.343999,3.319231,-15.770049
1790548688.8266,-0.031551,-0.013204,-0.137314,-0.032879,-0.016005,-0.137314,-0.573869,-0.356613,1.064421,-0.312616,1.980751,-12.626343
1790548688.8405,-0.026162,-0.010117,-0.112407,-0.028177,-0.011883,-0.112407,-0.247265,-0.683217,1.188263,0.990535,1.497411,-7.930189
1790548688.8545,-0.036408,-0.006397,-0.059069,-0.033939,-0.008043,-0.059069,-0.209626,0.112046,1.189477,2.600310,1.943571,-7.503266
1790548688.8686,-0.022591,-0.009873,-0.059125,-0.025995,-0.009324,-0.059125,-0.120994,-0.690502,1.128770,-2.688951,-0.398769,-10.841028
1790548688.8825,-0.016582,-0.009751,-0.057841,-0.019406,-0.009623,-0.057841,-0.292188,-0.139282,0.888370,-2.458983,0.010211,-10.802217
1790548688.8964,-0.022091,-0.014522,-0.035179,-0.021286,-0.013052,-0.035179,-0.133136,0.347589,0.728103,0.147319,-1.551348,-11.190329
1790548688.9105,-0.028300,-0.022450,-0.020614,-0.026196,-0.019631,-0.020614,0.276030,0.335448,0.709891,0.645583,-0.250049,-9.870749
1790548688.9246,-0.038448,-0.035709,-0.004780,-0.034772,-0.030886,-0.004780,0.590493,0.547923,0.690465,1.182175,-0.770569,-9.327392
1790548688.9385,-0.049755,-0.039102,0.002208,-0.045260,-0.036637,0.002208,0.278459,0.906095,0.559338,-0.197632,1.497411,-8.667602
1790548688.9526,-0.053806,-0.034366,0.007357,-0.051242,-0.035047,0.007357,-0.191414,0.517569,0.339578,-0.887536,2.129471,-8.434735
1790548688.9665,-0.051576,-0.028082,0.009596,-0.051476,-0.030172,0.009596,-0.482808,-0.025152,0.195095,-0.350944,1.534591,-12.315854
1790548688.9806,-0.048409,-0.020576,0.009002,-0.049329,-0.023454,0.009002,-0.606651,-0.348114,-0.023451,2.217030,1.199971,-12.898021
1790548688.9945,-0.044432,-0.013876,0.006419,-0.045901,-0.016750,0.006419,-0.612722,-0.462243,-0.144865,2.600310,0.567911,-11.772497
1790548689.0084,-0.039900,-0.002456,0.002720,-0.041700,-0.006744,0.002720,-0.884689,-0.739068,-0.178861,3.098574,0.753811,-7.309210
1790548689.0224,-0.024484,0.012075,0.000439,-0.029649,0.006429,0.000439,-1.074096,-1.316999,-0.256566,1.795423,1.088431,-7.348021
1790548689.0364,-0.035574,0.011353,-0.003826,-0.033797,0.009876,-0.003826,-0.034790,0.840531,-0.575885,1.258831,0.790991,-10.452916
1790548689.0504,-0.044038,0.011178,-0.016125,-0.040965,0.010788,-0.016125,0.155830,1.104000,-1.138033,-2.535639,3.653851,-17.128441
1790548689.0648,-0.013718,0.023136,-0.036346,-0.021892,0.019431,-0.036346,-0.265477,-1.374064,-1.196312,-5.486894,7.632110,-10.181238
1790548689.0789,-0.015305,0.021883,-0.051756,-0.017281,0.021148,-0.051756,0.335523,0.369444,-1.136819,0.108991,2.389731,-6.843476
1790548689.0929,-0.017770,0.019560,-0.070600,-0.017623,0.020036,-0.070600,0.206824,0.478717,-1.057900,-0.235960,1.348691,-7.852567
1790548689.1068,-0.018306,0.023242,-0.081822,-0.018102,0.022280,-0.081822,-0.175631,0.156969,-0.965625,1.143847,2.426911,-10.996273
1790548689.1207,-0.023582,0.022864,-0.100113,-0.021938,0.022689,-0.100113,-0.011721,0.584347,-1.169601,0.990535,1.274331,-12.936833
1790548689.1347,-0.027906,0.031442,-0.118173,-0.026116,0.028816,-0.118173,-0.394176,0.643840,-1.195098,-0.197632,2.798711,-8.667602
1790548689.1486,-0.035437,0.040089,-0.135358,-0.032641,0.036707,-0.135358,-0.477952,0.844174,-1.036045,0.032335,2.129471,-7.930189
1790548689.1623,-0.050875,0.045291,-0.154685,-0.045405,0.042716,-0.154685,-0.317685,1.413606,-0.887920,0.185647,1.608951,-8.551168
1790548689.1761,-0.042390,0.041495,-0.174393,-0.043295,0.041861,-0.174393,0.118192,-0.243698,-0.532176,-1.922392,0.493551,-12.432287
1790548689.1901,-0.035567,0.029709,-0.180637,-0.037886,0.033355,-0.180637,0.822394,-0.374825,-0.334271,0.300631,2.129471,-13.014455
1790548689.2042,-0.032900,0.025612,-0.159625,-0.034396,0.027935,-0.159625,0.557711,-0.265552,-0.107226,1.565455,4.471811,-9.948371
1790548689.2180,-0.024274,0.010619,-0.153127,-0.027310,0.015814,-0.153127,1.102861,-0.689288,0.153814,0.798895,2.017931,-9.754315
1790548689.2320,-0.013776,-0.003698,-0.132621,-0.017836,0.002155,-0.132621,1.253415,-0.888407,0.271586,0.952207,3.170511,-7.891378
1790548689.2460,-0.004445,-0.019710,-0.110717,-0.008462,-0.013150,-0.110717,1.312908,-0.898120,0.361432,1.603783,2.687171,-8.124245
1790548689.2599,-0.014904,-0.025728,-0.095741,-0.012971,-0.021955,-0.095741,0.541927,0.563707,0.419711,2.753622,4.137191,-15.925294
1790548689.2739,-0.015769,-0.015103,-0.114405,-0.014929,-0.017158,-0.114405,-0.700140,0.224961,0.545982,-3.110559,4.471811,-18.603266
1790548689.2878,-0.007139,-0.006357,-0.121651,-0.009476,-0.009597,-0.121651,-0.514376,-0.509595,0.758457,-1.347472,2.426911,-7.658511
1790548689.3020,-0.002661,-0.004331,-0.114956,-0.004705,-0.005911,-0.114956,-0.233909,-0.422177,0.787596,0.147319,0.939711,-8.978091
1790548689.3164,-0.013113,-0.010850,-0.098520,-0.010591,-0.009368,-0.098520,0.176471,0.442293,0.941792,1.527127,-0.770569,-8.124245
1790548689.3306,-0.009094,-0.014306,-0.114140,-0.009543,-0.012825,-0.114140,-0.012935,-0.140496,0.839804,-2.267343,-0.621849,-10.103616
1790548689.3446,-0.007367,-0.015286,-0.125429,-0.008020,-0.014547,-0.125429,-0.210841,0.149684,0.395428,-3.455511,-1.365448,-11.539630
1790548689.3587,-0.016527,-0.019797,-0.136841,-0.013975,-0.018222,-0.136841,0.010133,0.703333,0.345649,-0.465928,-1.551348,-10.220049
1790548689.3723,-0.025120,-0.028364,-0.138676,-0.021777,-0.025322,-0.138676,0.501861,0.501785,0.401499,1.373815,0.344831,-10.375294
1790548689.3860,-0.040744,-0.040029,-0.132661,-0.035054,-0.035617,-0.132661,0.699766,0.885454,0.542340,2.791950,-0.064149,-10.181238
1790548689.3996,-0.050802,-0.042475,-0.104848,-0.046078,-0.040418,-0.104848,0.361020,0.799250,0.361432,-0.120976,2.649991,-8.279490
1790548689.4135,-0.050390,-0.038939,-0.095715,-0.049096,-0.039383,-0.095715,-0.219340,0.047696,0.255802,-0.312616,2.017931,-11.229140
1790548689.4274,-0.048356,-0.029269,-0.095433,-0.048578,-0.032303,-0.095433,-0.720780,-0.236413,-0.013737,2.063719,1.311511,-11.694875
1790548689.4414,-0.048523,-0.022371,-0.096996,-0.048539,-0.025350,-0.096996,-0.606651,-0.178134,-0.073230,3.558510,0.158931,-11.927742
1790548689.4554,-0.045326,-0.015636,-0.090231,-0.046290,-0.018550,-0.090231,-0.603009,-0.531449,-0.035592,4.171758,0.121751,-9.831937
1790548689.4694,-0.035354,-0.004919,-0.090766,-0.038635,-0.009008,-0.090766,-0.855550,-0.890835,-0.158220,2.485326,0.456371,-8.667602
1790548689.4832,-0.024963,0.010468,-0.092556,-0.029065,0.004625,-0.092556,-1.211294,-0.911476,-0.266279,1.987063,0.456371,-7.464455
1790548689.4969,-0.036750,0.018716,-0.095694,-0.034444,0.014489,-0.095694,-0.697712,0.663266,-0.208000,5.014973,0.790991,-14.528091
1790548689.5110,-0.051697,0.010356,-0.102360,-0.046521,0.011596,-0.102360,0.568639,1.295834,-0.775005,0.108991,1.088431,-17.710609
1790548689.5249,-0.032844,0.007249,-0.101148,-0.036947,0.008553,-0.101148,0.369519,-0.951543,-1.096752,-3.187215,4.323091,-16.701518
1790548689.5389,-0.024636,0.007196,-0.122374,-0.028329,0.007603,-0.122374,0.057485,-0.638294,-1.077326,1.603783,0.828171,-4.980539
1790548689.5529,-0.026183,0.001742,-0.134659,-0.026827,0.003501,-0.134659,0.531000,0.320878,-0.909774,-0.005993,1.869211,-7.037532
1790548689.5674,-0.015405,-0.005398,-0.137017,-0.018831,-0.002728,-0.137017,0.486077,-0.372397,-0.995978,-2.650623,1.162791,-13.014455
1790548689.5814,-0.013115,-0.007044,-0.154984,-0.014830,-0.005749,-0.154984,0.226251,-0.019081,-1.207239,1.067191,2.389731,-10.957462
1790548689.5954,-0.020317,-0.001493,-0.175524,-0.018671,-0.002770,-0.175524,-0.184130,0.602559,-1.179314,1.987063,3.765391,-10.841028
1790548689.6089,-0.026113,0.008141,-0.191606,-0.023880,0.004868,-0.191606,-0.441528,0.706976,-1.135605,-0.274288,3.058971,-7.425644
1790548689.6226,-0.037141,0.013935,-0.207420,-0.033163,0.011215,-0.207420,-0.328612,1.017796,-0.991122,0.377287,1.683311,-8.318301
1790548689.6366,-0.044136,0.019408,-0.220246,-0.040844,0.016950,-0.220246,-0.283689,0.796822,-0.798073,-0.772552,1.980751,-8.628791
1790548689.6506,-0.043237,0.017663,-0.223991,-0.042519,0.017449,-0.223991,0.180113,0.042840,-0.280849,0.185647,3.356411,-15.071448
1790548689.6644,-0.041699,0.007982,-0.218548,-0.041945,0.010822,-0.218548,0.858819,-0.201203,0.031186,1.718767,3.616671,-9.521448
1790548689.6784,-0.038069,0.001189,-0.208198,-0.039232,0.004079,-0.208198,0.800540,-0.407607,0.199952,1.680439,4.694891,-7.270399
1790548689.6923,-0.028499,-0.016209,-0.197214,-0.031719,-0.010123,-0.197214,1.223061,-0.828914,0.345649,1.488799,1.497411,-9.405014
1790548689.7066,-0.013852,-0.031309,-0.189106,-0.019212,-0.024954,-0.189106,1.259485,-1.174945,0.463420,1.028863,3.133331,-6.998721
1790548689.7207,-0.033360,-0.030231,-0.175863,-0.029116,-0.028648,-0.175863,0.039273,1.174420,0.569051,3.060246,3.839751,-12.121798
1790548689.7347,-0.034647,-0.016117,-0.179427,-0.032987,-0.019876,-0.179427,-1.046170,0.122973,0.737817,-1.309144,2.389731,-15.187882
1790548689.7487,-0.018452,-0.015702,-0.186048,-0.022812,-0.016954,-0.186048,-0.243622,-1.059601,0.955148,-2.535639,-0.324409,-9.909560
1790548689.7625,-0.024614,-0.012299,-0.167328,-0.024074,-0.013696,-0.167328,-0.425744,0.237103,1.012213,0.798895,-0.026969,-6.338930
1790548689.7765,-0.019091,-0.017287,-0.162660,-0.020586,-0.016209,-0.162660,-0.012935,-0.072504,0.989144,-3.915447,-1.923148,-5.873196
1790548689.7905,-0.015698,-0.017815,-0.158988,-0.017164,-0.017333,-0.158988,-0.133136,-0.175706,0.747530,-1.615768,-0.138509,-9.366203
1790548689.8047,-0.018283,-0.016678,-0.160862,-0.017947,-0.016875,-0.160862,-0.297045,0.251672,0.443994,-1.347472,-1.142369,-11.539630
1790548689.8193,-0.026770,-0.020988,-0.161170,-0.024123,-0.019754,-0.161170,0.125477,0.522426,0.575122,0.377287,-0.435949,-11.578441
1790548689.8332,-0.034634,-0.027751,-0.159368,-0.031481,-0.025352,-0.159368,0.337952,0.450792,0.651612,0.913879,0.010211,-9.055714
1790548689.8469,-0.047705,-0.036612,-0.157080,-0.042838,-0.033234,-0.157080,0.489719,0.801679,0.718390,1.450471,-0.101329,-8.900469
1790548689.8607,-0.054106,-0.038364,-0.131349,-0.050726,-0.036825,-0.131349,0.172828,0.556422,0.571479,-0.887536,1.832031,-8.007811
1790548689.8750,-0.052175,-0.030740,-0.113999,-0.051740,-0.032565,-0.113999,-0.519233,-0.089502,0.499845,-0.619240,2.203831,-10.841028
1790548689.8892,-0.048399,-0.017515,-0.109622,-0.049402,-0.022030,-0.109622,-0.967251,-0.308047,0.306796,0.913879,1.608951,-11.656063
1790548689.9034,-0.045867,-0.010131,-0.114910,-0.046928,-0.013701,-0.114910,-0.650360,-0.320189,0.226663,2.332014,0.158931,-10.841028
1790548689.9174,-0.042148,-0.001638,-0.114588,-0.043582,-0.005257,-0.114588,-0.695283,-0.512023,0.201166,2.983590,0.605091,-8.318301
1790548689.9313,-0.029327,0.012756,-0.109184,-0.033603,0.007352,-0.109184,-1.034029,-1.171302,0.021473,3.213558,1.683311,-8.395923
1790548689.9453,-0.017514,0.030933,-0.099247,-0.022341,0.023859,-0.099247,-1.346063,-1.184658,-0.055018,3.673494,0.939711,-6.765853
1790548689.9592,-0.037410,0.024677,-0.109773,-0.032889,0.024432,-0.109773,0.449653,1.299477,-0.452043,5.743205,1.906391,-14.256413
1790548689.9731,-0.030269,0.021315,-0.113056,-0.031055,0.022250,-0.113056,0.431441,-0.193918,-0.918273,-2.037376,5.103871,-13.829490
1790548689.9870,-0.016470,0.023611,-0.113517,-0.020845,0.023203,-0.113517,0.229893,-0.787633,-0.963197,-0.082648,6.182090,-8.007811
1790548690.0010,-0.014380,0.017037,-0.128362,-0.016320,0.018886,-0.128362,0.529786,0.092620,-1.036045,-0.159304,1.534591,-7.969000
1790548690.0149,-0.013163,0.012320,-0.143024,-0.014110,0.014290,-0.143024,0.387731,0.165468,-1.004477,-0.350944,1.274331,-7.153965
1790548690.0302,-0.011247,0.009801,-0.157077,-0.012106,0.011147,-0.157077,0.182541,0.027056,-0.918273,0.722239,1.794851,-12.820399
1790548690.0451,-0.015118,0.010507,-0.175794,-0.014215,0.010699,-0.175794,0.007705,0.500571,-1.174457,0.070663,1.980751,-11.578441
1790548690.0602,-0.024455,0.018441,-0.193243,-0.021383,0.016119,-0.193243,-0.355324,0.849030,-1.140461,0.300631,2.947431,-8.667602
1790548690.0741,-0.031792,0.025176,-0.209193,-0.028669,0.022459,-0.209193,-0.344396,0.823533,-1.003263,-0.465928,2.055111,-7.115154
1790548690.0886,-0.039386,0.027766,-0.225529,-0.036171,0.026174,-0.225529,-0.110067,0.811392,-0.830855,-0.849208,1.869211,-9.560259
1790548690.1027,-0.035734,0.024002,-0.235547,-0.035865,0.024654,-0.235547,0.248105,-0.021510,-0.428974,-1.769080,1.497411,-12.121798
1790548690.1165,-0.031906,0.010793,-0.241093,-0.033094,0.014951,-0.241093,0.931667,-0.161136,-0.223784,-0.504256,1.571771,-12.742777
1790548690.1306,-0.026506,0.003238,-0.219782,-0.028482,0.006752,-0.219782,0.762901,-0.422177,0.049398,0.760567,4.062831,-7.658511
1790548690.1449,-0.021954,-0.010765,-0.209596,-0.023912,-0.005510,-0.209596,1.023942,-0.430676,0.236376,1.527127,2.352551,-10.025993
1790548690.1593,-0.014790,-0.029842,-0.193600,-0.017526,-0.022542,-0.193600,1.386970,-0.618868,0.578764,0.952207,2.724351,-9.443825
1790548690.1738,-0.023762,-0.028183,-0.185803,-0.021891,-0.026491,-0.185803,-0.054216,0.585561,0.543554,0.147319,3.988471,-15.343126
1790548690.1879,-0.021953,-0.019230,-0.181631,-0.021935,-0.021408,-0.181631,-0.579940,-0.101643,0.753600,-1.922392,4.323091,-14.722147
1790548690.2019,-0.016304,-0.020794,-0.181232,-0.017993,-0.020978,-0.181232,-0.131921,-0.535092,0.936936,0.262303,-0.770569,-6.610609
1790548690.2160,-0.030290,-0.023516,-0.160340,-0.026601,-0.022754,-0.160340,0.097551,0.672980,0.972146,2.370342,0.493551,-7.115154
1790548690.2303,-0.027045,-0.029568,-0.166853,-0.026912,-0.027524,-0.166853,0.204396,-0.136853,0.921152,-2.114032,-0.770569,-8.279490
1790548690.2443,-0.026871,-0.031520,-0.169469,-0.026884,-0.030321,-0.169469,-0.050574,0.108403,0.616402,-2.075704,-0.733389,-9.094525
1790548690.2582,-0.032473,-0.034351,-0.175627,-0.030796,-0.033142,-0.175627,-0.002008,0.527282,0.305582,-1.960720,-1.588528,-11.850119
1790548690.2725,-0.037490,-0.041793,-0.182303,-0.035482,-0.039198,-0.182303,0.317311,0.401012,0.288584,-0.504256,-1.439808,-10.103616
1790548690.2866,-0.046655,-0.051259,-0.185123,-0.043303,-0.047641,-0.185123,0.549212,0.577062,0.442780,1.067191,-0.138509,-9.482637
1790548690.3003,-0.057896,-0.063642,-0.189997,-0.053518,-0.058841,-0.189997,0.745903,0.754327,0.376002,1.105519,-0.659029,-8.628791
1790548690.3144,-0.063589,-0.068576,-0.185339,-0.060568,-0.065656,-0.185339,0.328238,0.419224,0.237590,0.453943,0.902531,-10.025993
1790548690.3295,-0.059921,-0.058454,-0.169526,-0.060115,-0.060614,-0.169526,-0.605437,-0.190275,0.099178,-0.005993,2.501271,-11.617252
1790548690.3438,-0.056832,-0.048186,-0.173097,-0.057817,-0.051915,-0.173097,-0.760847,-0.223057,0.005689,1.182175,0.716631,-12.160609
1790548690.3578,-0.053816,-0.044406,-0.180203,-0.055017,-0.046659,-0.180203,-0.399033,-0.382110,0.029972,3.175230,-0.584669,-9.793126
1790548690.3720,-0.041091,-0.037205,-0.182525,-0.045269,-0.040041,-0.182525,-0.552015,-1.024391,0.010545,2.217030,0.753811,-9.133336
1790548690.3862,-0.034797,-0.022327,-0.179665,-0.037938,-0.027642,-0.179665,-1.085023,-0.660148,-0.041663,3.481854,0.679451,-8.434735
1790548690.4004,-0.021141,-0.004918,-0.179876,-0.026180,-0.011735,-0.179876,-1.338779,-1.143377,-0.061089,2.293686,0.047391,-7.270399
1790548690.4144,-0.004934,0.016352,-0.173324,-0.011308,0.007926,-0.173324,-1.603462,-1.422630,0.028758,2.485326,0.419191,-6.067252
1790548690.4284,-0.013231,0.021558,-0.181086,-0.012654,0.017468,-0.181086,-0.422101,0.700905,-0.544318,1.028863,1.497411,-21.125994
1790548690.4427,-0.012201,0.018880,-0.164706,-0.012337,0.018456,-0.164706,0.272388,0.326949,-0.953483,-4.030431,3.430771,-14.489280
1790548690.4567,0.011683,0.021114,-0.106529,0.004477,0.020316,-0.106529,0.306384,-1.182230,-1.249734,-3.148887,5.252591,-4.243126
1790548690.4707,0.012153,0.020188,-0.120177,0.009850,0.020226,-0.120177,0.188612,0.119331,-1.068827,0.453943,1.720491,-5.058161
1790548690.4850,0.021219,0.012101,-0.143246,0.017808,0.014539,-0.143246,0.584422,-0.236413,-0.975338,-2.497311,1.311511,-7.115154
1790548690.4991,0.028869,0.005741,-0.157027,0.025551,0.008380,-0.157027,0.466651,-0.401536,-1.042116,0.645583,2.278191,-12.471098
1790548690.5131,0.027176,0.002845,-0.176287,0.026688,0.004505,-0.176287,0.318525,0.249244,-1.393003,1.680439,3.244871,-9.793126
1790548690.5268,0.016773,0.007064,-0.193268,0.019747,0.006297,-0.193268,-0.147705,0.886669,-1.220595,1.450471,3.802571,-9.521448
1790548690.5405,0.008107,0.011518,-0.209505,0.011599,0.009952,-0.209505,-0.258192,0.861172,-1.157459,-0.005993,2.278191,-9.715504
1790548690.5546,0.007973,0.010519,-0.227575,0.009061,0.010349,-0.227575,0.127905,0.323307,-0.963197,-1.807408,2.129471,-9.482637
1790548690.5689,0.001572,0.010813,-0.236629,0.003819,0.010674,-0.236629,0.104836,0.636555,-0.783503,-0.312616,2.724351,-8.163056
1790548690.5830,0.000226,0.013776,-0.240576,0.001304,0.012846,-0.240576,0.002848,0.212820,-0.555245,0.032335,3.839751,-7.658511
1790548690.5971,0.011859,0.000602,-0.241394,0.008693,0.004275,-0.241394,0.951093,-0.776706,-0.129081,-0.542584,2.724351,-14.489280
1790548690.6110,0.013360,-0.007906,-0.246969,0.011960,-0.004252,-0.246969,0.993588,-0.179348,0.323794,0.453943,6.405170,-6.649420
1790548690.6250,-0.002544,-0.005117,-0.227562,0.001807,-0.004858,-0.227562,-0.039647,0.906095,0.581192,3.098574,4.880791,-11.035084
1790548690.6389,0.004382,-0.002994,-0.241014,0.003609,-0.003553,-0.241014,-0.188986,-0.442817,0.934508,-3.417183,2.166651,-12.509909
1790548690.6529,0.006773,0.000518,-0.228178,0.005824,-0.000703,-0.228178,-0.295831,-0.327474,1.097203,-0.082648,1.460231,-9.870749
1790548690.6668,0.001439,0.000594,-0.218768,0.002754,0.000205,-0.218768,-0.145277,0.176395,1.227116,0.338959,0.084571,-7.231588
1790548690.6807,-0.007122,-0.003333,-0.214790,-0.004159,-0.002272,-0.214790,0.110907,0.462933,1.295108,-0.197632,-0.138509,-6.494175
1790548690.6947,-0.003257,-0.007262,-0.220401,-0.003527,-0.005765,-0.220401,0.148545,-0.202417,1.046209,-2.995575,0.270471,-8.978091
1790548690.7086,-0.006864,-0.011369,-0.223197,-0.005863,-0.009687,-0.223197,0.135190,0.234674,0.847089,-1.385800,-0.361589,-12.548721
1790548690.7225,-0.015097,-0.017716,-0.225864,-0.012327,-0.015307,-0.225864,0.276030,0.519998,0.734174,0.032335,-0.882109,-12.471098
1790548690.7364,-0.023279,-0.024797,-0.220703,-0.019994,-0.021950,-0.220703,0.408372,0.479931,0.821592,0.453943,0.456371,-8.784035
1790548690.7504,-0.032257,-0.035160,-0.215943,-0.028578,-0.031197,-0.215943,0.598992,0.515141,0.871372,0.760567,-0.064149,-8.551168
1790548690.7639,-0.043559,-0.042493,-0.209276,-0.039065,-0.039105,-0.209276,0.447224,0.708190,0.785168,0.990535,0.419191,-7.580888
1790548690.7775,-0.048392,-0.043339,-0.201032,-0.045594,-0.042069,-0.201032,0.000420,0.331806,0.691679,-0.005993,1.162791,-10.957462
1790548690.7914,-0.044519,-0.037032,-0.192845,-0.044841,-0.038543,-0.192845,-0.507091,-0.243698,0.502273,-0.849208,1.311511,-12.199420
1790548690.8055,-0.043534,-0.030677,-0.191576,-0.043926,-0.033037,-0.191576,-0.606651,-0.209702,0.354148,2.600310,-0.696209,-11.888930
1790548690.8197,-0.037934,-0.025266,-0.184574,-0.039731,-0.027597,-0.184574,-0.548372,-0.586086,0.272800,2.906934,-0.882109,-9.249770
1790548690.8342,-0.028042,-0.013998,-0.177108,-0.031549,-0.018078,-0.177108,-0.842195,-0.867767,0.195095,2.370342,0.642271,-7.891378
1790548690.8482,-0.017453,0.001097,-0.172225,-0.021682,-0.004655,-0.172225,-1.168799,-0.927260,0.151386,2.102047,0.382011,-7.969000
1790548690.8621,-0.003259,0.018609,-0.165048,-0.008786,0.011630,-0.165048,-1.363061,-1.217440,0.150172,2.370342,0.307651,-8.434735
1790548690.8761,0.011564,0.037454,-0.161475,0.005459,0.029707,-0.161475,-1.411627,-1.202870,0.074895,2.255358,1.274331,-11.694875
1790548690.8902,-0.006012,0.033594,-0.168651,-0.002571,0.032428,-0.168651,0.150974,1.337115,-0.408334,1.450471,-0.510309,-19.767602
1790548690.9042,0.002718,0.024027,-0.157253,0.001131,0.026547,-0.157253,0.778685,-0.255839,-0.880635,-3.647151,3.616671,-12.315854
1790548690.9181,0.018635,0.020252,-0.166491,0.013384,0.022141,-0.166491,0.331881,-1.026819,-0.921916,0.530599,1.832031,-7.115154
1790548690.9321,0.019923,0.011720,-0.153416,0.017961,0.014846,-0.153416,0.732548,0.319664,-0.824784,-1.385800,1.125611,-3.195224
1790548690.9460,0.031168,0.000838,-0.155542,0.027206,0.005041,-0.155542,0.788398,-0.427033,-0.827213,-3.225543,1.199971,-7.852567
1790548690.9598,0.038201,-0.004396,-0.166141,0.034903,-0.001565,-0.166141,0.408372,-0.439175,-0.889134,1.373815,2.798711,-13.247322
1790548690.9736,0.033109,-0.007061,-0.178008,0.033647,-0.005412,-0.178008,0.299099,0.460505,-1.164744,1.527127,3.244871,-9.754315
1790548690.9872,0.026942,-0.002916,-0.186444,0.028953,-0.003665,-0.186444,-0.165917,0.562493,-1.022689,0.875551,3.282051,-8.667602
1790548691.0008,0.017048,-0.000653,-0.199903,0.020620,-0.001557,-0.199903,-0.124637,0.923093,-0.971696,-0.235960,1.906391,-9.172147
1790548691.0148,0.009787,-0.001189,-0.212668,0.013037,-0.001299,-0.212668,0.042915,0.687549,-0.759221,-0.312616,1.423051,-9.909560
1790548691.0286,0.003432,0.001317,-0.218676,0.006313,0.000532,-0.218676,-0.089426,0.653553,-0.609881,-1.117504,2.873071,-10.258860
1790548691.0426,-0.001146,0.001898,-0.222245,0.001092,0.001489,-0.222245,0.022275,0.503000,-0.303917,-1.500784,2.426911,-9.754315
1790548691.0564,0.009720,-0.008634,-0.222424,0.007131,-0.005597,-0.222424,0.785970,-0.683217,-0.154578,-1.309144,2.241011,-11.694875
1790548691.0704,0.007869,-0.020803,-0.209669,0.007648,-0.016241,-0.209669,1.014229,0.144828,0.263087,-0.542584,3.653851,-9.560259
1790548691.0848,0.000222,-0.018649,-0.208339,0.002450,-0.017927,-0.208339,-0.131921,0.613487,0.474348,-3.187215,3.021791,-15.265504
1790548691.0988,0.005047,-0.014934,-0.201693,0.004268,-0.015832,-0.201693,-0.281261,-0.315332,0.842233,-3.110559,2.464091,-14.139979
1790548691.1128,0.004989,-0.010711,-0.185595,0.004773,-0.012247,-0.185595,-0.254550,-0.023938,0.918724,-0.925864,1.683311,-6.183686
1790548691.1269,-0.007446,-0.010977,-0.174127,-0.003780,-0.011358,-0.174127,-0.036004,0.558850,0.955148,2.063719,0.642271,-5.834385
1790548691.1408,0.001622,-0.018810,-0.176190,0.000001,-0.016574,-0.176190,0.488505,-0.561803,1.059564,-2.727279,0.828171,-7.115154
1790548691.1547,-0.001566,-0.018975,-0.175986,-0.001096,-0.018255,-0.175986,-0.053002,0.284454,0.776669,-2.612295,1.088431,-11.578441
1790548691.1685,-0.007054,-0.023280,-0.196063,-0.005266,-0.021772,-0.196063,0.087838,0.418010,0.542340,-1.309144,-1.885968,-12.665154
1790548691.1824,-0.012574,-0.030304,-0.205900,-0.010382,-0.027744,-0.205900,0.341594,0.385228,0.510772,-0.427600,-0.770569,-10.841028
1790548691.1964,-0.022798,-0.038325,-0.209241,-0.019073,-0.035151,-0.209241,0.461794,0.638984,0.570265,0.837223,0.010211,-9.055714
1790548691.2101,-0.032756,-0.049891,-0.211559,-0.028651,-0.045469,-0.211559,0.722835,0.655982,0.588477,0.568927,-0.064149,-8.551168
1790548691.2237,-0.037819,-0.054995,-0.203465,-0.035068,-0.052137,-0.203465,0.348879,0.335448,0.533841,0.377287,1.088431,-9.172147
1790548691.2374,-0.038628,-0.051818,-0.190287,-0.037560,-0.051914,-0.190287,-0.220554,0.074407,0.429424,-0.235960,1.794851,-10.685784
1790548691.2514,-0.037008,-0.046491,-0.192279,-0.037173,-0.048118,-0.192279,-0.479166,-0.185419,0.407570,1.182175,0.196111,-11.345574
1790548691.2654,-0.038642,-0.042994,-0.197352,-0.038202,-0.044531,-0.197352,-0.367465,0.000345,0.283727,2.140375,-0.250049,-10.569350
1790548691.2795,-0.031555,-0.036793,-0.201647,-0.033549,-0.039114,-0.201647,-0.561728,-0.622510,0.213307,2.102047,-0.324409,-10.103616
1790548691.2935,-0.024469,-0.025998,-0.202434,-0.027193,-0.029933,-0.202434,-0.843409,-0.655292,0.061539,2.676966,0.344831,-9.599070
1790548691.3075,-0.014944,-0.012168,-0.203692,-0.018619,-0.017497,-0.203692,-1.091094,-0.834985,-0.007667,2.638638,-0.026969,-9.249770
1790548691.3216,-0.003283,0.007653,-0.187911,-0.007884,0.000108,-0.187911,-1.441981,-1.093597,0.076109,2.906934,0.828171,-6.377742
1790548691.3362,0.006691,0.028822,-0.186959,0.002318,0.020207,-0.186959,-1.530613,-0.837413,0.111319,1.795423,0.419191,-7.580888
1790548691.3505,-0.004412,0.024216,-0.197256,-0.002393,0.023013,-0.197256,0.221394,0.781038,-0.350055,2.715294,-0.026969,-17.089630
1790548691.3646,0.003602,0.017236,-0.182633,0.001804,0.018969,-0.182633,0.606277,-0.249768,-0.828427,-3.877119,4.694891,-15.343126
1790548691.3789,0.014195,0.018805,-0.161948,0.010478,0.018854,-0.161948,0.170400,-0.571516,-0.936485,0.108991,5.289771,-7.852567
1790548691.3928,0.018428,0.016714,-0.164639,0.016043,0.017356,-0.164639,0.294242,-0.216987,-0.838140,0.607255,2.092291,-5.213406
1790548691.4067,0.030585,0.004103,-0.172223,0.026222,0.008079,-0.172223,0.810253,-0.655292,-0.555245,-2.075704,0.121751,-10.142427
1790548691.4207,0.042736,-0.007151,-0.177823,0.037782,-0.002582,-0.177823,0.833322,-0.739068,-0.716726,-0.657568,2.538451,-12.626343
1790548691.4346,0.044009,-0.010464,-0.179039,0.042141,-0.008099,-0.179039,0.376804,0.104761,-0.960768,-0.734224,3.207691,-8.046623
1790548691.4481,0.034813,-0.005135,-0.181374,0.037011,-0.006024,-0.181374,-0.237552,0.804107,-0.852710,0.223975,3.988471,-9.405014
1790548691.4617,0.028207,-0.000422,-0.188154,0.030848,-0.002102,-0.188154,-0.238766,0.721545,-0.856352,-1.270816,2.947431,-8.822846
1790548691.4757,0.026743,-0.000366,-0.204200,0.027975,-0.000887,-0.204200,-0.031148,0.381585,-0.741009,-2.382327,1.125611,-9.831937
1790548691.4897,0.016941,-0.001588,-0.209086,0.020251,-0.001378,-0.209086,0.133976,0.736115,-0.469041,0.875551,1.980751,-8.745224
1790548691.5036,0.007760,0.000298,-0.207259,0.011507,-0.000204,-0.207259,-0.065144,0.691192,-0.114511,0.223975,2.501271,-9.249770
1790548691.5175,0.005217,-0.003184,-0.202049,0.007104,-0.002290,-0.202049,0.320954,0.201892,0.050612,-0.197632,3.876931,-13.907112
1790548691.5315,0.012977,-0.017267,-0.183480,0.011215,-0.012774,-0.183480,1.221847,-0.621296,0.332293,0.262303,4.546171,-8.357112
1790548691.5454,-0.003572,-0.014420,-0.168029,0.000864,-0.013926,-0.168029,-0.097925,1.046935,0.656469,1.718767,4.248731,-12.121798
1790548691.5593,-0.002060,-0.011962,-0.167502,-0.001183,-0.012551,-0.167502,-0.222982,-0.089502,0.918724,-2.650623,1.757671,-12.199420
1790548691.5734,-0.002564,-0.013949,-0.144793,-0.002150,-0.013530,-0.144793,0.102408,-0.252197,1.349744,1.143847,1.088431,-6.649420
1790548691.5880,-0.013507,-0.018152,-0.129776,-0.010100,-0.016765,-0.129776,0.144903,0.447149,1.442019,1.335487,0.010211,-6.532986
1790548691.6021,-0.011348,-0.020626,-0.121004,-0.010974,-0.019468,-0.121004,0.050200,-0.236413,1.366742,-1.117504,0.419191,-7.969000
1790548691.6162,-0.014127,-0.023020,-0.119500,-0.013181,-0.021955,-0.119500,0.029560,0.154541,0.969718,-1.117504,-0.064149,-11.190329
1790548691.6302,-0.020592,-0.026713,-0.118344,-0.018369,-0.025285,-0.118344,0.095123,0.354874,0.906582,0.300631,-0.584669,-10.646972
1790548691.6442,-0.030594,-0.032967,-0.110094,-0.026927,-0.030663,-0.110094,0.350093,0.580705,0.917510,0.913879,0.567911,-9.987182
1790548691.6581,-0.041268,-0.042972,-0.103505,-0.036966,-0.039279,-0.103505,0.588065,0.626842,0.921152,1.182175,0.047391,-9.443825
1790548691.6717,-0.047498,-0.052564,-0.096452,-0.044338,-0.048579,-0.096452,0.588065,0.377943,0.843447,0.530599,0.307651,-9.637881
1790548691.6854,-0.051649,-0.056480,-0.088284,-0.049456,-0.054110,-0.088284,0.204396,0.297810,0.754815,-0.350944,0.790991,-10.491728
1790548691.6991,-0.050202,-0.052736,-0.077490,-0.049978,-0.053148,-0.077490,-0.301901,-0.112570,0.634614,-0.159304,1.571771,-10.336483
1790548691.7132,-0.049126,-0.046233,-0.070603,-0.049382,-0.048307,-0.070603,-0.532588,-0.161136,0.581192,1.143847,0.865351,-10.220049
1790548691.7270,-0.048523,-0.040399,-0.064478,-0.048780,-0.042772,-0.064478,-0.502235,-0.224271,0.494988,3.060246,0.642271,-10.879840
1790548691.7410,-0.041642,-0.030201,-0.060582,-0.043784,-0.033972,-0.060582,-0.832481,-0.648007,0.416069,2.523654,0.307651,-10.685784
1790548691.7550,-0.031309,-0.015500,-0.057650,-0.035051,-0.021041,-0.057650,-1.153015,-0.887193,0.318938,2.140375,0.307651,-9.676693
1790548691.7690,-0.021670,0.000973,-0.055680,-0.025684,-0.005631,-0.055680,-1.312068,-0.882336,0.257016,2.370342,-0.212869,-8.007811
1790548691.7830,-0.008855,0.018270,-0.052279,-0.013904,0.011099,-0.052279,-1.373989,-1.123951,0.259445,2.140375,-0.064149,-7.580888
1790548691.7969,-0.004102,0.035358,-0.050499,-0.007043,0.028080,-0.050499,-1.259859,-0.516880,0.101606,1.795423,0.976891,-6.261308
1790548691.8108,-0.016326,0.030244,-0.052473,-0.013541,0.029595,-0.052473,0.354950,1.110071,-0.322130,-3.302199,2.352551,-17.982287
1790548691.8251,0.000439,0.026807,-0.052815,-0.003755,0.027643,-0.052815,0.350093,-0.816773,-1.006906,-4.068759,4.620531,-14.372847
1790548691.8397,0.013535,0.026527,-0.051749,0.008348,0.026862,-0.051749,0.220180,-0.740282,-0.851495,-0.005993,4.174371,-7.736133
1790548691.8538,0.015614,0.018445,-0.058852,0.013434,0.020970,-0.058852,0.625703,0.037983,-0.675445,-0.542584,1.683311,-6.610609
1790548691.8678,0.030093,0.006699,-0.068217,0.025095,0.010980,-0.068217,0.792041,-0.754852,-0.636592,-2.267343,0.567911,-7.386832
1790548691.8818,0.038081,0.000256,-0.076859,0.034185,0.003473,-0.076859,0.486077,-0.433104,-0.829641,-0.120976,2.315371,-10.996273
1790548691.8958,0.032883,-0.001126,-0.082956,0.033274,0.000254,-0.082956,0.242034,0.458076,-1.010548,1.412143,4.025651,-9.637881
1790548691.9095,0.025705,0.004027,-0.085707,0.027976,0.002895,-0.085707,-0.182915,0.603773,-0.810215,0.952207,4.211551,-8.318301
1790548691.9231,0.021164,0.005123,-0.097432,0.023208,0.004455,-0.097432,-0.025077,0.584347,-0.677873,-1.730752,2.166651,-8.667602
1790548691.9370,0.011354,0.009381,-0.101964,0.014910,0.007903,-0.101964,-0.168346,0.864814,-0.540675,-0.695896,3.319231,-8.512357
1790548691.9510,0.001650,0.014375,-0.110361,0.005628,0.012433,-0.110361,-0.267905,0.875741,-0.589241,-0.695896,2.761531,-9.249770
1790548691.9649,-0.001158,0.009192,-0.119864,0.000878,0.010164,-0.119864,0.337952,0.294167,-0.299061,-0.312616,1.534591,-15.187882
1790548691.9787,0.009006,-0.003903,-0.122362,0.006568,0.000317,-0.122362,0.985089,-0.609155,-0.208000,-1.500784,2.501271,-11.035084
1790548691.9926,0.003675,-0.009046,-0.100234,0.004543,-0.006237,-0.100234,0.835750,0.231032,0.282513,1.450471,6.553890,-4.049070
1790548692.0065,-0.010085,-0.009416,-0.087846,-0.005697,-0.008462,-0.087846,0.057485,0.818677,0.431853,3.520182,3.319231,-15.032637
1790548692.0204,-0.006902,-0.005796,-0.087031,-0.006540,-0.006596,-0.087031,-0.255764,-0.220629,0.771813,-2.382327,3.282051,-14.062357
1790548692.0344,-0.003057,-0.002581,-0.077209,-0.004102,-0.003785,-0.077209,-0.209626,-0.343257,0.981859,-1.079176,2.575631,-9.560259
1790548692.0484,-0.013962,-0.004172,-0.063174,-0.011004,-0.004056,-0.063174,-0.054216,0.418010,1.137269,2.293686,-0.361589,-6.300119
1790548692.0623,-0.015789,-0.012853,-0.069615,-0.014353,-0.010214,-0.069615,0.429012,0.103547,1.161552,-1.462456,-0.473129,-7.813756
1790548692.0761,-0.009409,-0.015375,-0.073039,-0.010892,-0.013827,-0.073039,0.096337,-0.372397,0.960005,-2.880591,0.828171,-8.240679
1790548692.0905,-0.015085,-0.018637,-0.079749,-0.013827,-0.017194,-0.079749,0.046557,0.380371,0.674681,-1.002520,-1.253909,-12.898021
1790548692.1048,-0.019536,-0.023981,-0.083882,-0.017823,-0.021945,-0.083882,0.212895,0.295381,0.593334,-0.657568,-0.882109,-12.471098
1790548692.1206,-0.026160,-0.031211,-0.075855,-0.023659,-0.028431,-0.075855,0.380447,0.313593,0.749958,0.607255,0.605091,-8.667602
1790548692.1349,-0.040148,-0.039767,-0.064908,-0.035201,-0.036366,-0.064908,0.532214,0.805321,0.737817,1.833751,0.642271,-8.240679
1790548692.1493,-0.046520,-0.044404,-0.056109,-0.043125,-0.041992,-0.056109,0.286958,0.449577,0.674681,-0.504256,1.088431,-7.619700
1790548692.1639,-0.046340,-0.040276,-0.049179,-0.045376,-0.040791,-0.049179,-0.305544,-0.000869,0.469491,-0.389272,1.646131,-10.918651
1790548692.1791,-0.041592,-0.033664,-0.047859,-0.042727,-0.035802,-0.047859,-0.514376,-0.332330,0.371146,0.300631,0.642271,-12.432287
1790548692.1930,-0.040584,-0.029702,-0.046870,-0.041227,-0.031532,-0.046870,-0.422101,-0.207273,0.298297,2.217030,-0.473129,-9.715504
1790548692.2066,-0.035701,-0.022941,-0.042643,-0.037359,-0.025518,-0.042643,-0.579940,-0.505952,0.216950,2.561982,0.344831,-10.025993
1790548692.2207,-0.025422,-0.010749,-0.039522,-0.029003,-0.015180,-0.039522,-0.936898,-0.859268,0.046970,2.446998,0.456371,-9.676693
1790548692.2347,-0.009565,0.005400,-0.034089,-0.015396,-0.000774,-0.034089,-1.222221,-1.295145,-0.031950,2.140375,0.530731,-7.348021
1790548692.2486,0.007210,0.023888,-0.023236,0.000428,0.016489,-0.023236,-1.406771,-1.443270,0.037257,2.753622,0.530731,-7.270399
1790548692.2625,-0.002814,0.029507,-0.024923,-0.001841,0.025602,-0.024923,-0.481594,0.630485,0.029972,2.332014,0.716631,-12.199420
1790548692.2765,-0.001798,0.025194,-0.028095,-0.001811,0.025316,-0.028095,0.378018,0.245602,-0.710655,-3.570495,3.393591,-12.975644
1790548692.2906,0.016279,0.032589,-0.009325,0.010852,0.030407,-0.009325,-0.174416,-0.934545,-1.107679,-2.152360,5.847470,-6.261308
1790548692.3047,0.021721,0.030395,-0.013611,0.018460,0.030399,-0.013611,0.262675,-0.294692,-0.855138,0.760567,2.203831,-6.106063
1790548692.3188,0.026330,0.020676,-0.027161,0.023969,0.023593,-0.027161,0.696124,-0.083431,-0.743437,-1.500784,1.720491,-8.939280
1790548692.3329,0.035551,0.009839,-0.037947,0.032077,0.013965,-0.037947,0.762901,-0.505952,-0.796859,-0.312616,1.757671,-10.996273
1790548692.3472,0.040035,0.006984,-0.047990,0.037648,0.009078,-0.047990,0.260247,-0.157494,-1.054257,0.338959,3.244871,-11.423196
1790548692.3615,0.032454,0.009989,-0.054020,0.034012,0.009716,-0.054020,-0.073643,0.638984,-0.987479,1.143847,3.988471,-9.327392
1790548692.3752,0.024997,0.015257,-0.071013,0.027702,0.013594,-0.071013,-0.270334,0.850244,-1.009334,-1.615768,3.021791,-8.201867
1790548692.3889,0.016998,0.014478,-0.086802,0.020209,0.014213,-0.086802,0.079339,0.807749,-0.844211,-0.849208,2.055111,-10.375294
1790548692.4028,0.014555,0.013312,-0.099021,0.016251,0.013583,-0.099021,0.197111,0.439864,-0.716726,-1.730752,2.947431,-8.318301
1790548692.4168,0.003641,0.013365,-0.098490,0.007424,0.013430,-0.098490,0.126691,0.842959,-0.483610,0.607255,2.649991,-7.076343
1790548692.4307,0.010536,0.002031,-0.108203,0.009603,0.005451,-0.108203,0.798111,-0.365112,-0.193430,-2.075704,2.166651,-14.916203
1790548692.4446,0.005343,-0.007602,-0.089979,0.006621,-0.003686,-0.089979,0.986303,0.342733,0.122247,0.377287,6.144910,-8.395923
1790548692.4585,-0.009082,-0.004780,-0.079905,-0.004371,-0.004452,-0.079905,-0.103996,0.977729,0.446422,0.492271,4.546171,-13.247322
1790548692.4724,-0.003639,-0.006580,-0.099490,-0.003859,-0.005941,-0.099490,0.021061,-0.291049,0.848303,-4.107087,0.828171,-12.082986
1790548692.4864,-0.005478,-0.006379,-0.085984,-0.004992,-0.006247,-0.085984,-0.031148,0.003987,1.034067,-0.120976,1.460231,-7.425644
1790548692.5004,-0.015059,-0.010240,-0.077594,-0.012039,-0.009042,-0.077594,0.067198,0.416796,1.162766,1.143847,-0.621849,-5.485084
1790548692.5143,-0.014299,-0.015373,-0.070266,-0.013621,-0.013474,-0.070266,0.246891,-0.172063,1.127556,-0.235960,0.344831,-6.998721
1790548692.5282,-0.012391,-0.016019,-0.076227,-0.012760,-0.015255,-0.076227,-0.085784,-0.068861,0.836162,-2.382327,0.121751,-8.978091
1790548692.5422,-0.014209,-0.019176,-0.083455,-0.013774,-0.018000,-0.083455,0.046557,0.141185,0.657683,-1.500784,-1.068009,-12.742777
1790548692.5562,-0.017801,-0.024464,-0.085476,-0.016593,-0.022525,-0.085476,0.262675,0.248030,0.584835,-0.695896,0.084571,-11.112707
1790548692.5702,-0.027578,-0.031212,-0.079106,-0.024282,-0.028606,-0.079106,0.398659,0.566135,0.694107,1.297159,0.530731,-9.754315
1790548692.5842,-0.037472,-0.041230,-0.075755,-0.033515,-0.037443,-0.075755,0.611134,0.621986,0.691679,0.645583,0.196111,-8.512357
1790548692.5981,-0.044159,-0.047933,-0.070253,-0.040966,-0.044786,-0.070253,0.421727,0.461719,0.637043,-0.082648,0.865351,-9.405014
1790548692.6120,-0.043223,-0.047268,-0.060836,-0.042546,-0.046523,-0.060836,-0.066358,-0.013011,0.539911,-1.194160,1.571771,-10.258860
1790548692.6259,-0.039982,-0.040691,-0.052987,-0.040751,-0.042441,-0.052987,-0.490093,-0.250983,0.467063,0.108991,1.608951,-10.569350
1790548692.6400,-0.040239,-0.038733,-0.053498,-0.040393,-0.039845,-0.053498,-0.314043,-0.099215,0.436709,1.757095,-1.030829,-9.793126
1790548692.6540,-0.036714,-0.033326,-0.045078,-0.037818,-0.035282,-0.045078,-0.487665,-0.433104,0.396643,2.945262,0.084571,-10.258860
1790548692.6678,-0.026583,-0.022659,-0.038779,-0.029954,-0.026446,-0.038779,-0.862835,-0.887193,0.300725,2.370342,0.344831,-10.103616
1790548692.6818,-0.013831,-0.006839,-0.029294,-0.018668,-0.012721,-0.029294,-1.221007,-1.108167,0.227877,2.293686,0.307651,-7.697322
1790548692.6957,-0.003653,0.009127,-0.019687,-0.008157,0.002572,-0.019687,-1.285356,-0.946686,0.146529,2.868606,-0.435949,-8.318301
1790548692.7097,0.009939,0.027478,-0.009201,0.004510,0.020006,-0.009201,-1.433482,-1.206512,0.140459,3.060246,-0.026969,-8.784035
1790548692.7236,0.000947,0.032511,-0.011418,0.002016,0.028759,-0.011418,-0.577512,0.602559,-0.123010,2.715294,-3.187268,-17.089630
1790548692.7375,0.001850,0.026803,-0.015805,0.001900,0.027390,-0.015805,0.437511,0.232246,-0.743437,-3.033903,2.575631,-13.751868
1790548692.7515,0.016141,0.031305,0.001075,0.011869,0.030130,0.001075,-0.038432,-0.677146,-1.054257,-3.225543,7.483390,-10.375294
1790548692.7654,0.024224,0.027957,-0.003661,0.020518,0.028609,-0.003661,0.296671,-0.168421,-0.770148,-3.110559,1.720491,-6.300119
1790548692.7793,0.026722,0.020554,-0.007593,0.024861,0.022970,-0.007593,0.607491,0.074407,-0.652376,-1.615768,2.241011,-7.270399
1790548692.7933,0.040117,0.010695,-0.018253,0.035540,0.014378,-0.018253,0.679126,-0.706286,-0.659661,-2.152360,1.125611,-8.434735
1790548692.8075,0.046479,0.006585,-0.023982,0.043198,0.008923,-0.023982,0.351307,-0.314118,-0.935271,0.262303,3.207691,-11.112707
1790548692.8214,0.042225,0.006318,-0.027872,0.042517,0.007099,-0.027872,0.109693,0.407082,-0.879421,0.913879,3.765391,-11.190329
1790548692.8353,0.032507,0.011774,-0.028170,0.035510,0.010371,-0.028170,-0.198699,0.878170,-0.925558,-0.197632,4.062831,-7.697322
1790548692.8496,0.029201,0.012068,-0.045223,0.031093,0.011559,-0.045223,-0.023863,0.498143,-0.677873,-2.305671,1.683311,-9.637881
1790548692.8637,0.023242,0.010757,-0.053498,0.025597,0.010998,-0.053498,0.164329,0.666909,-0.522463,-1.999048,2.426911,-8.279490
1790548692.8778,0.013873,0.011494,-0.045851,0.017390,0.011345,-0.045851,0.136404,0.784681,-0.278420,-0.925864,4.620531,-9.249770
1790548692.8917,0.016785,0.003321,-0.053144,0.016967,0.005728,-0.053144,0.568639,-0.108928,-0.141222,-1.845736,2.426911,-16.934385
1790548692.9059,0.017194,-0.007140,-0.043752,0.017126,-0.003279,-0.043752,0.817538,-0.047007,0.124675,0.108991,3.914111,-13.674245
1790548692.9201,0.004474,-0.002791,-0.037403,0.008270,-0.002937,-0.037403,-0.233909,0.923093,0.434281,-1.539112,3.616671,-12.199420
1790548692.9340,0.005421,-0.004595,-0.041616,0.006276,-0.004098,-0.041616,0.044129,-0.059148,0.786382,-2.229015,0.939711,-11.888930
1790548692.9479,0.003535,-0.006327,-0.026316,0.004357,-0.005658,-0.026316,0.102408,-0.032437,1.037710,0.300631,1.348691,-7.969000
1790548692.9619,-0.006998,-0.012321,-0.029555,-0.003591,-0.010322,-0.029555,0.228679,0.547923,1.137269,0.837223,-0.733389,-7.697322
1790548692.9758,-0.007827,-0.018053,-0.028214,-0.006556,-0.015734,-0.028214,0.285743,0.047696,1.148197,-1.845736,0.307651,-8.551168
1790548692.9897,-0.005582,-0.023941,-0.032973,-0.005874,-0.021479,-0.032973,0.280887,-0.084645,0.831305,-2.880591,-0.138509,-9.948371
1790548693.0035,-0.011710,-0.027988,-0.038600,-0.009959,-0.026035,-0.038600,0.121834,0.351232,0.768170,0.377287,-0.807749,-11.888930
1790548693.0175,-0.017686,-0.036064,-0.043934,-0.015368,-0.033055,-0.043934,0.409586,0.397369,0.718390,-0.504256,-0.770569,-10.569350
1790548693.0313,-0.025795,-0.044868,-0.040059,-0.022667,-0.041325,-0.040059,0.541927,0.469004,0.758457,0.952207,0.344831,-9.172147
1790548693.0453,-0.032984,-0.055530,-0.038033,-0.029889,-0.051269,-0.038033,0.651200,0.460505,0.709891,0.223975,0.084571,-9.288581
1790548693.0589,-0.040194,-0.062725,-0.030410,-0.037102,-0.059288,-0.030410,0.476364,0.477503,0.690465,0.492271,0.865351,-9.870749
1790548693.0725,-0.041025,-0.063523,-0.021405,-0.039848,-0.062252,-0.021405,0.021061,0.070765,0.576336,-0.350944,1.125611,-10.685784
1790548693.0864,-0.041557,-0.059227,-0.016903,-0.041044,-0.060135,-0.016903,-0.377178,-0.064005,0.508344,1.565455,0.567911,-9.870749
1790548693.1008,-0.039963,-0.050886,-0.012155,-0.040288,-0.053660,-0.012155,-0.638219,-0.249768,0.345649,2.830278,0.679451,-11.384385
1790548693.1148,-0.032184,-0.043751,-0.009511,-0.034615,-0.046724,-0.009511,-0.627291,-0.723284,0.396643,3.098574,-0.212869,-11.772497
1790548693.1289,-0.025242,-0.031336,-0.006245,-0.028054,-0.035953,-0.006245,-0.974536,-0.662577,0.287370,2.523654,0.158931,-9.133336
1790548693.1429,-0.016483,-0.017362,0.001020,-0.019955,-0.022939,0.001020,-1.102021,-0.850769,0.309224,3.136902,0.010211,-8.861658
1790548693.1568,-0.006543,-0.001642,0.006820,-0.010566,-0.008031,0.006820,-1.247718,-0.932116,0.327437,2.485326,-0.064149,-8.046623
1790548693.1707,0.005434,0.017835,0.012220,0.000634,0.010075,0.012220,-1.503902,-1.071743,0.257016,2.523654,0.270471,-8.900469
1790548693.1847,0.008528,0.031579,0.014064,0.006160,0.025128,0.014064,-1.072882,-0.395466,0.073681,2.753622,0.493551,-9.637881
1790548693.1986,-0.002435,0.021280,0.006752,0.000143,0.022434,0.006752,0.585637,0.777396,-0.212857,1.565455,-0.993649,-11.229140
1790548693.2126,0.012588,0.020978,0.065886,0.008855,0.021415,0.065886,0.384089,-0.655292,-0.951055,-4.375383,6.851330,-7.425644
1790548693.2264,0.027379,0.016917,0.071740,0.021821,0.018267,0.071740,0.448439,-0.807060,-0.628093,-2.305671,3.505131,-7.891378
1790548693.2404,0.033730,0.006718,0.065827,0.030158,0.010182,0.065827,0.777471,-0.165993,-0.702156,-2.267343,1.906391,-7.619700
1790548693.2545,0.049871,-0.004999,0.062179,0.043957,-0.000445,0.062179,0.870960,-1.011036,-0.668160,-0.772552,1.980751,-8.745224
1790548693.2684,0.061361,-0.011142,0.056047,0.056140,-0.007933,0.056047,0.486077,-0.672290,-0.913417,-0.657568,2.724351,-10.685784
1790548693.2820,0.056001,-0.014477,0.052567,0.056043,-0.012513,0.052567,0.364663,0.479931,-0.981409,0.837223,3.765391,-9.599070
1790548693.2957,0.050488,-0.015044,0.046208,0.052154,-0.014285,0.046208,0.129119,0.586775,-0.864851,-0.925864,2.910251,-9.016902
1790548693.3094,0.048336,-0.015948,0.037982,0.049482,-0.015449,0.037982,0.125477,0.367016,-0.747079,-1.577440,2.352551,-8.784035
1790548693.3234,0.042381,-0.016543,0.033950,0.044511,-0.016215,0.033950,0.136404,0.579491,-0.639021,-1.079176,3.170511,-9.909560
1790548693.3377,0.031602,-0.018202,0.027872,0.035475,-0.017606,0.027872,0.212895,0.941305,-0.535819,-1.769080,3.170511,-9.909560
1790548693.3521,0.010146,-0.006578,0.032565,0.017744,-0.009886,0.032565,-0.589653,1.560517,-0.309988,-0.005993,5.512851,-10.025993
1790548693.3661,0.014628,-0.011441,0.005626,0.015563,-0.010974,0.005626,0.217752,-0.128354,0.033614,-6.598406,-0.547489,-21.281238
1790548693.3803,0.015736,-0.011024,0.007209,0.015684,-0.011009,0.007209,-0.016578,0.002773,0.460992,-3.532167,2.910251,-14.528091
1790548693.3943,0.012062,-0.000889,0.019812,0.013148,-0.003925,0.019812,-0.587225,0.336662,0.527770,-1.309144,2.055111,-4.902916
1790548693.4084,0.008480,-0.006817,0.002397,0.009881,-0.005950,0.002397,0.180113,0.109618,0.706249,0.568927,-1.105189,-6.067252
1790548693.4221,0.003599,-0.015722,0.016923,0.005483,-0.012790,0.016923,0.630560,0.158183,0.921152,1.028863,1.274331,-8.124245
1790548693.4361,-0.008793,-0.020047,0.038773,-0.004510,-0.017870,0.038773,0.303956,0.618343,1.219831,1.987063,1.869211,-9.637881
1790548693.4500,-0.008446,-0.023404,0.039859,-0.007265,-0.021744,0.039859,0.127905,-0.006940,1.035281,-3.072231,0.605091,-13.441378
1790548693.4639,-0.012484,-0.028825,0.043636,-0.010918,-0.026701,0.043636,0.261461,0.184894,0.978217,0.032335,0.121751,-11.850119
1790548693.4779,-0.025959,-0.035959,0.043934,-0.021447,-0.033182,0.043934,0.334309,0.800464,0.975788,1.220503,-0.659029,-8.900469
1790548693.4919,-0.036180,-0.046614,0.053648,-0.031760,-0.042584,0.053648,0.639059,0.592846,1.126342,0.607255,0.307651,-8.124245
1790548693.5058,-0.042970,-0.059903,0.060302,-0.039607,-0.054707,0.060302,0.805396,0.379157,1.042566,0.760567,-0.138509,-10.530539
1790548693.5194,-0.051190,-0.065804,0.070750,-0.047715,-0.062475,0.070750,0.346451,0.519998,0.943007,0.798895,0.790991,-10.724595
1790548693.5330,-0.052851,-0.065526,0.080064,-0.051310,-0.064611,0.080064,-0.095497,0.088977,0.783954,0.185647,0.939711,-10.918651
1790548693.5469,-0.054154,-0.062349,0.086725,-0.053301,-0.063028,0.086725,-0.305544,0.001559,0.605475,1.373815,0.605091,-9.715504
1790548693.5608,-0.052611,-0.058680,0.087992,-0.052818,-0.059985,0.087992,-0.378392,-0.206059,0.452493,1.795423,-0.064149,-10.957462
1790548693.5749,-0.045702,-0.049608,0.088358,-0.047837,-0.052721,0.088358,-0.762061,-0.626153,0.294655,2.753622,-0.361589,-10.918651
1790548693.5889,-0.032649,-0.036365,0.089045,-0.037205,-0.041272,0.089045,-1.043742,-1.038961,0.236376,1.948735,0.084571,-10.336483
1790548693.6037,-0.025904,-0.019871,0.096519,-0.029294,-0.026292,0.096519,-1.223435,-0.699001,0.240018,3.405198,-0.212869,-7.580888
1790548693.6177,-0.013592,-0.002336,0.100258,-0.018303,-0.009523,0.100258,-1.381274,-1.070529,0.337150,2.102047,-0.138509,-7.852567
1790548693.6318,0.002605,0.021717,0.110640,-0.003668,0.012345,0.110640,-1.775870,-1.415345,0.311653,2.332014,0.642271,-6.338930
1790548693.6457,0.008367,0.040471,0.107022,0.004757,0.032033,0.107022,-1.467478,-0.447674,-0.039234,1.258831,0.121751,-16.041728
1790548693.6598,-0.008229,0.028303,0.097727,-0.004333,0.029422,0.097727,0.819966,1.339544,-0.337913,-1.385800,1.720491,-21.281238
1790548693.6738,0.010859,0.021534,0.094331,0.006301,0.023900,0.094331,0.585637,-1.076599,-1.082182,-3.148887,6.256450,-20.233336
1790548693.6877,0.012222,0.018611,0.089154,0.010446,0.020198,0.089154,0.272388,0.104761,-0.709441,-0.734224,1.906391,-7.386832
1790548693.7015,0.018796,0.011790,0.085339,0.016291,0.014313,0.085339,0.504289,-0.170849,-0.755578,-2.650623,1.608951,-9.521448
1790548693.7156,0.033884,0.000368,0.073674,0.028606,0.004551,0.073674,0.685196,-0.862910,-0.677873,-1.807408,-0.547489,-9.637881
1790548693.7296,0.037740,-0.002873,0.071634,0.035000,-0.000646,0.071634,0.369519,-0.141710,-1.034831,0.453943,3.467951,-8.667602
1790548693.7432,0.029468,-0.001702,0.061797,0.031128,-0.001385,0.061797,0.008919,0.722759,-1.110108,1.297159,3.356411,-10.491728
1790548693.7567,0.025798,0.003361,0.062823,0.027397,0.001937,0.062823,-0.158633,0.519998,-1.104037,-0.695896,3.505131,-6.610609
1790548693.7704,0.017308,0.005186,0.051292,0.020335,0.004211,0.051292,-0.073643,0.829604,-0.957126,-0.427600,2.315371,-9.443825
1790548693.7844,0.008477,0.010612,0.047969,0.012034,0.008692,0.047969,-0.238766,0.823533,-0.766506,-0.542584,3.356411,-8.395923
1790548693.7983,-0.001453,0.016706,0.041573,0.002594,0.014302,0.041573,-0.315257,0.957089,-0.699728,-1.385800,3.096151,-8.978091
1790548693.8123,0.005773,0.010936,0.026387,0.004820,0.011946,0.026387,0.317311,-0.322617,-0.371909,-3.953775,0.196111,-19.922847
1790548693.8262,0.017653,-0.005787,0.043601,0.013803,-0.000467,0.043601,1.352974,-0.893264,0.161099,0.185647,4.434631,-10.297672
1790548693.8403,-0.002976,-0.000038,0.069256,0.002058,-0.000167,0.069256,-0.039647,1.314047,0.298297,2.255358,7.260310,-6.921098
1790548693.8548,-0.001743,-0.000264,0.059729,-0.000603,-0.000235,0.059729,-0.073643,0.018557,0.555695,-4.030431,0.865351,-13.286133
1790548693.8688,0.002028,-0.001619,0.076316,0.001239,-0.001204,0.076316,0.082982,-0.427033,1.024354,0.108991,2.166651,-10.841028
1790548693.8828,-0.002258,-0.000585,0.100873,-0.001209,-0.000770,0.100873,-0.029933,0.046482,1.188263,0.952207,1.869211,-6.261308
1790548693.8968,-0.005732,-0.003474,0.113231,-0.004375,-0.002663,0.113231,0.104836,0.071979,1.319391,-0.120976,0.605091,-7.542077
1790548693.9106,-0.001395,-0.007958,0.111865,-0.002289,-0.006370,0.111865,0.180113,-0.308047,1.137269,-2.420655,0.121751,-8.784035
1790548693.9246,-0.005383,-0.010515,0.108744,-0.004455,-0.009271,0.108744,0.022275,0.248030,0.860445,-1.194160,-0.473129,-11.073895
1790548693.9393,-0.013576,-0.016338,0.108446,-0.010840,-0.014218,0.108446,0.246891,0.465361,0.820378,0.032335,-0.473129,-12.082986
1790548693.9536,-0.016856,-0.023688,0.115458,-0.015052,-0.020847,0.115458,0.418085,0.122973,0.884728,0.223975,0.567911,-10.608161
1790548693.9676,-0.025526,-0.031803,0.125380,-0.022384,-0.028516,0.125380,0.504289,0.478717,0.922366,0.875551,0.865351,-9.676693
1790548693.9812,-0.033754,-0.035819,0.134609,-0.030343,-0.033628,0.134609,0.242034,0.521212,0.810665,0.377287,1.088431,-9.172147
1790548693.9949,-0.037487,-0.034337,0.140687,-0.035344,-0.034124,0.140687,-0.165917,0.244387,0.627330,-0.082648,1.014071,-9.560259
1790548694.0088,-0.037866,-0.028920,0.144207,-0.037109,-0.030481,0.144207,-0.464596,-0.027580,0.509558,0.530599,0.753811,-10.297672
1790548694.0233,-0.039574,-0.022615,0.148852,-0.038835,-0.024975,0.148852,-0.487665,0.002773,0.383287,1.948735,1.051251,-10.646972
1790548694.0373,-0.037934,-0.014696,0.153750,-0.038204,-0.017779,0.153750,-0.634576,-0.294692,0.317723,3.290214,0.828171,-11.190329
1790548694.0513,-0.030471,-0.002737,0.156137,-0.032791,-0.007250,0.156137,-0.927184,-0.672290,0.190238,2.217030,0.642271,-9.249770
1790548694.0653,-0.019804,0.013020,0.157701,-0.023700,0.006939,0.157701,-1.223435,-0.921189,0.114962,2.102047,0.419191,-8.085434
1790548694.0793,-0.007217,0.032195,0.158777,-0.012162,0.024618,0.158777,-1.471120,-1.060815,0.046970,2.102047,0.307651,-7.697322
1790548694.0932,-0.011618,0.042225,0.154582,-0.011781,0.036943,0.154582,-0.814269,0.222533,-0.028307,3.865134,0.828171,-17.594175
1790548694.1075,-0.007879,0.035366,0.148382,-0.009050,0.035839,0.148382,0.478792,0.059838,-0.686372,-4.337055,2.241011,-15.498371
1790548694.1215,0.011933,0.031263,0.153897,0.005638,0.032636,0.153897,0.487291,-1.000108,-1.174457,-2.803935,3.542311,-7.231588
1790548694.1355,0.016003,0.028954,0.153594,0.012893,0.030058,0.153594,0.358592,-0.131997,-1.063970,0.683911,3.691031,-7.309210
1790548694.1494,0.019570,0.026799,0.160024,0.017567,0.027777,0.160024,0.404729,-0.036079,-0.707013,-0.619240,2.426911,-3.738581
1790548694.1634,0.034243,0.016408,0.137652,0.029240,0.019819,0.137652,0.662128,-0.690502,-0.841782,-4.720334,0.605091,-12.626343
1790548694.1774,0.042941,0.008525,0.129287,0.038831,0.011913,0.129287,0.607491,-0.439175,-0.937700,-0.657568,2.984611,-11.888930
1790548694.1914,0.034883,0.013930,0.131823,0.036067,0.013325,0.131823,-0.208412,0.597703,-0.938914,2.676966,5.066691,-9.948371
1790548694.2069,0.025053,0.025590,0.122865,0.028357,0.021910,0.122865,-0.607865,0.909737,-0.810215,-1.654096,3.430771,-7.192776
1790548694.2212,0.016907,0.030851,0.104912,0.020342,0.028168,0.104912,-0.344396,0.875741,-0.692443,-2.267343,2.017931,-8.784035
1790548694.2357,0.012439,0.030790,0.090311,0.014810,0.030003,0.090311,0.058699,0.620771,-0.573457,-2.688951,2.315371,-8.201867
1790548694.2500,0.007189,0.031539,0.086860,0.009475,0.031078,0.086860,-0.027505,0.449577,-0.189788,-0.274288,1.646131,-7.192776
1790548694.2651,0.011989,0.017734,0.093252,0.011235,0.021737,0.093252,0.931667,-0.361470,0.199952,0.223975,2.426911,-10.841028
1790548694.2792,0.014102,0.012504,0.121921,0.013242,0.015274,0.121921,0.657271,-0.223057,0.359004,0.070663,5.401311,-7.231588
1790548694.2929,0.019626,0.003098,0.140448,0.017711,0.006750,0.140448,0.756831,-0.572730,0.579978,1.105519,2.873071,-9.676693
1790548694.3070,0.013531,0.001205,0.157814,0.014785,0.002868,0.157814,0.208038,0.297810,0.832520,0.223975,3.691031,-12.005364
1790548694.3212,0.010004,0.005963,0.164154,0.011438,0.005034,0.164154,-0.316471,0.214034,0.966075,-2.382327,3.207691,-12.820399
1790548694.3354,0.018440,0.003428,0.171082,0.016339,0.003910,0.171082,0.087838,-0.726926,1.115415,-0.849208,0.753811,-10.414105
1790548694.3497,0.006094,0.000476,0.188779,0.009168,0.001507,0.188779,0.150974,0.557636,1.195548,1.795423,0.790991,-7.736133
1790548694.3641,0.006295,-0.007457,0.175134,0.007157,-0.004768,0.175134,0.376804,0.011272,1.102059,-2.497311,-0.398769,-8.240679
1790548694.3781,0.006208,-0.010826,0.169961,0.006493,-0.009008,0.169961,0.110907,0.007630,0.796095,-1.654096,0.010211,-9.870749
1790548694.3921,0.000667,-0.012141,0.157145,0.002415,-0.011201,0.157145,-0.044503,0.459291,0.328651,-1.615768,-0.435949,-11.888930
1790548694.4061,-0.003838,-0.017275,0.150806,-0.001962,-0.015453,0.150806,0.250533,0.299024,0.348077,-0.005993,-0.101329,-12.238231
1790548694.4200,-0.011168,-0.023270,0.152724,-0.008406,-0.020925,0.152724,0.361020,0.415581,0.424568,1.297159,0.530731,-9.560259
1790548694.4336,-0.020946,-0.031255,0.156969,-0.017184,-0.028156,0.156969,0.511574,0.560064,0.488917,1.910407,0.344831,-8.706413
1790548694.4473,-0.026276,-0.038356,0.156989,-0.023549,-0.035296,0.156989,0.435083,0.368230,0.473134,0.032335,0.382011,-9.870749
1790548694.4609,-0.027286,-0.035080,0.163069,-0.026165,-0.035145,0.163069,-0.220554,0.090191,0.288584,-0.235960,1.757671,-9.560259
1790548694.4749,-0.024550,-0.028425,0.161266,-0.025034,-0.030441,0.161266,-0.542301,-0.198774,0.201166,0.185647,0.642271,-10.646972
1790548694.4889,-0.022491,-0.023152,0.156474,-0.023254,-0.025338,0.156474,-0.501021,-0.258267,0.031186,2.408670,-0.584669,-10.258860
1790548694.5028,-0.019014,-0.016440,0.160599,-0.020286,-0.019109,0.160599,-0.520447,-0.405179,0.043327,2.906934,0.865351,-9.715504
1790548694.5168,-0.010953,-0.005846,0.163624,-0.013753,-0.009825,0.163624,-0.800914,-0.715999,-0.001596,2.485326,0.828171,-9.210958
1790548694.5306,-0.003403,0.007486,0.168469,-0.006508,0.002293,0.168469,-1.019459,-0.741496,-0.092657,3.481854,0.605091,-8.939280
1790548694.5445,0.010456,0.023605,0.172621,0.005367,0.017211,0.172621,-1.219793,-1.170088,-0.044091,2.370342,0.716631,-7.891378
1790548694.5584,0.011200,0.035202,0.169048,0.009450,0.029805,0.169048,-0.905330,-0.107714,-0.120582,1.948735,1.051251,-13.208511
1790548694.5724,0.002384,0.026976,0.156728,0.004504,0.027825,0.156728,0.554069,0.909737,-0.634164,-3.838791,1.832031,-18.603266
1790548694.5864,0.019546,0.017489,0.151041,0.015033,0.020590,0.151041,0.750760,-0.842270,-1.106465,-4.605350,3.579491,-13.596623
1790548694.6005,0.028561,0.013426,0.145719,0.024503,0.015575,0.145719,0.379232,-0.553304,-0.999621,1.182175,2.575631,-8.124245
1790548694.6149,0.034907,0.010045,0.153991,0.031786,0.011704,0.153991,0.453295,-0.066433,-0.866065,-2.420655,3.021791,-4.864105
1790548694.6290,0.052927,-0.001795,0.140445,0.046584,0.002255,0.140445,0.800540,-0.936973,-0.726439,-3.455511,0.828171,-7.736133
1790548694.6430,0.062370,-0.011495,0.139196,0.057634,-0.007370,0.139196,0.785970,-0.519308,-0.795645,-1.040848,3.319231,-10.103616
1790548694.6569,0.056789,-0.008754,0.144783,0.057042,-0.008339,0.144783,-0.037218,0.409511,-0.822356,1.872079,4.694891,-10.025993
1790548694.6706,0.048133,-0.001478,0.146976,0.050806,-0.003536,0.146976,-0.365037,0.702119,-0.766506,0.722239,4.397451,-9.288581
1790548694.6843,0.040655,0.000434,0.132273,0.043700,-0.000757,0.132273,-0.128279,0.794394,-0.640235,-2.037376,1.832031,-8.939280
1790548694.6982,0.034700,0.000843,0.124083,0.037400,0.000363,0.124083,0.078125,0.681479,-0.539461,-2.343999,2.947431,-8.046623
1790548694.7122,0.022854,0.002952,0.118833,0.027218,0.002176,0.118833,-0.045717,1.051792,-0.343984,-1.769080,2.761531,-7.891378
1790548694.7261,0.010296,0.005722,0.125719,0.015372,0.004658,0.125719,-0.056645,0.951018,-0.031950,-0.389272,3.914111,-9.715504
1790548694.7400,0.023525,-0.013047,0.115561,0.021079,-0.007735,0.115561,1.237631,-0.899334,0.172026,-2.190688,0.047391,-17.322497
1790548694.7538,0.017605,-0.015967,0.143931,0.018647,-0.013498,0.143931,0.467865,0.265028,0.362647,1.718767,5.029511,-8.240679
1790548694.7678,0.006652,-0.010164,0.144595,0.010250,-0.011164,0.144595,-0.445170,0.782252,0.714748,-1.615768,1.757671,-12.665154
1790548694.7818,0.011661,-0.013695,0.151001,0.011238,-0.012936,0.151001,0.193469,-0.410035,1.166409,-2.190688,1.460231,-11.888930
1790548694.7958,0.002746,-0.012797,0.180011,0.005294,-0.012838,0.180011,-0.027505,0.330591,1.360671,1.527127,1.906391,-7.464455
1790548694.8098,-0.001085,-0.015957,0.180649,0.000828,-0.015021,0.180649,0.076911,0.198250,1.346102,-1.270816,0.010211,-8.357112
1790548694.8236,0.000863,-0.018365,0.183811,0.000852,-0.017362,0.183811,0.093909,-0.152637,1.132413,-1.845736,0.865351,-8.589979
1790548694.8376,-0.004227,-0.019975,0.177449,-0.002703,-0.019191,0.177449,-0.036004,0.346375,0.756029,-1.040848,-0.398769,-11.035084
1790548694.8519,-0.010228,-0.025771,0.175286,-0.007971,-0.023797,0.175286,0.260247,0.334234,0.703821,0.415615,-0.510309,-12.432287
1790548694.8664,-0.017880,-0.032026,0.177169,-0.014907,-0.029557,0.177169,0.330667,0.448363,0.675895,0.453943,0.233291,-10.646972
1790548694.8805,-0.024814,-0.039112,0.181757,-0.021842,-0.036246,0.181757,0.416871,0.391299,0.660111,0.875551,0.419191,-9.443825
1790548694.8944,-0.032085,-0.045689,0.186878,-0.029012,-0.042856,0.186878,0.407158,0.444721,0.607903,0.798895,0.679451,-9.793126
1790548694.9082,-0.036944,-0.047371,0.191801,-0.034564,-0.046017,0.191801,0.061127,0.274741,0.518057,0.952207,0.679451,-9.249770
1790548694.9223,-0.036594,-0.044055,0.196981,-0.035985,-0.044643,0.196981,-0.275190,-0.077360,0.417283,0.798895,1.088431,-10.491728
1790548694.9362,-0.035179,-0.037958,0.203189,-0.035421,-0.039963,0.203189,-0.493736,-0.227914,0.361432,2.102047,0.790991,-10.336483
1790548694.9502,-0.032083,-0.028040,0.209381,-0.033085,-0.031617,0.209381,-0.771774,-0.382110,0.250946,2.906934,0.605091,-10.414105
1790548694.9642,-0.023376,-0.014876,0.212466,-0.026289,-0.019899,0.212466,-1.030387,-0.754852,0.208451,2.178703,0.344831,-10.064805
1790548694.9782,-0.012452,0.000413,0.218711,-0.016603,-0.005681,0.218711,-1.173655,-0.956399,0.237590,2.332014,0.530731,-8.939280
1790548694.9921,-0.004749,0.017356,0.229205,-0.008305,0.010445,0.229205,-1.295070,-0.810702,0.254588,3.021918,0.493551,-7.697322
1790548695.0059,0.008375,0.035016,0.236104,0.003371,0.027645,0.236104,-1.371560,-1.148234,0.295869,1.948735,0.567911,-8.473546
1790548695.0198,0.003026,0.043797,0.241526,0.003130,0.038951,0.241526,-0.690427,0.178824,0.193881,3.711822,1.311511,-11.345574
1790548695.0337,-0.004118,0.033797,0.232303,-0.001944,0.035343,0.232303,0.614776,0.590418,-0.200715,-0.044320,0.233291,-18.564455
1790548695.0477,0.023648,0.027715,0.235794,0.015971,0.030004,0.235794,0.571067,-1.587753,-0.796859,-6.598406,5.438491,-12.432287
1790548695.0616,0.027282,0.023550,0.235194,0.023888,0.025486,0.235194,0.489719,-0.081003,-0.957126,-0.044320,4.397451,-8.473546
1790548695.0756,0.033152,0.014532,0.227300,0.030373,0.017818,0.227300,0.692481,-0.197560,-0.605025,-1.385800,1.757671,-6.843476
1790548695.0896,0.051201,0.006114,0.214603,0.044953,0.009625,0.214603,0.562568,-1.035318,-0.683944,-2.535639,1.051251,-9.055714
1790548695.1037,0.057263,-0.003337,0.207717,0.053570,0.000552,0.207717,0.705837,-0.311690,-0.847853,0.032335,2.798711,-11.267951
1790548695.1180,0.053940,-0.002701,0.203997,0.053829,-0.001725,0.203997,0.086624,0.382800,-1.033617,0.032335,4.434631,-10.181238
1790548695.1316,0.049238,0.000869,0.194875,0.050615,0.000091,0.194875,-0.188986,0.549137,-0.931629,-0.887536,2.947431,-9.288581
1790548695.1452,0.038389,0.004223,0.183973,0.042056,0.002983,0.183973,-0.204770,0.976515,-0.805358,-0.580912,2.241011,-8.900469
1790548695.1593,0.026350,0.010482,0.179563,0.031062,0.008233,0.179563,-0.316471,1.021438,-0.658447,-0.542584,3.282051,-8.240679
1790548695.1733,0.016687,0.013748,0.165711,0.021000,0.012093,0.165711,-0.176845,0.940091,-0.690015,-1.845736,2.649991,-10.103616
1790548695.1873,0.021339,0.006775,0.152529,0.021237,0.008371,0.152529,0.441154,-0.169635,-0.279635,-3.072231,1.423051,-17.244875
1790548695.2013,0.029720,-0.005627,0.165939,0.027175,-0.001427,0.165939,1.124716,-0.476813,-0.099941,-1.884064,4.992331,-8.124245
1790548695.2152,0.015890,-0.008278,0.183086,0.019276,-0.006223,0.183086,0.344022,0.855101,0.199952,2.370342,4.583351,-11.112707
1790548695.2292,0.013386,-0.006843,0.180804,0.015153,-0.006657,0.180804,-0.130707,0.215248,0.400285,-1.999048,2.017931,-15.071448
1790548695.2432,0.018853,-0.004933,0.188274,0.017743,-0.005450,0.188274,-0.073643,-0.359041,0.837376,-2.114032,2.389731,-7.658511
1790548695.2573,0.010630,-0.006563,0.200940,0.012764,-0.006229,0.200940,0.013776,0.280812,0.962433,1.872079,0.047391,-6.377742
1790548695.2711,-0.000163,-0.012610,0.215958,0.003715,-0.010696,0.215958,0.328238,0.439864,1.066849,2.485326,0.047391,-7.192776
1790548695.2851,0.005689,-0.018771,0.215407,0.005097,-0.016348,0.215407,0.359806,-0.380896,0.911439,-2.535639,0.790991,-9.754315
1790548695.2991,0.001658,-0.019039,0.212493,0.002690,-0.018232,0.212493,-0.099140,0.274741,0.638257,-0.964192,-0.064149,-11.384385
1790548695.3129,-0.005020,-0.023717,0.205104,-0.002707,-0.022072,0.205104,0.170400,0.482359,0.567837,-0.849208,-0.993649,-11.423196
1790548695.3268,-0.012006,-0.028797,0.212613,-0.009216,-0.026779,0.212613,0.322168,0.391299,0.621259,0.837223,0.939711,-8.978091
1790548695.3409,-0.023498,-0.037433,0.220891,-0.019213,-0.034237,0.220891,0.533428,0.647483,0.695322,1.910407,0.382011,-9.443825
1790548695.3546,-0.033810,-0.048772,0.227815,-0.029431,-0.044412,0.227815,0.767758,0.669337,0.684394,0.607255,0.642271,-7.891378
1790548695.3687,-0.037095,-0.052476,0.237006,-0.034796,-0.050057,0.237006,0.268745,0.220105,0.566623,-0.159304,2.017931,-10.957462
1790548695.3827,-0.035986,-0.047215,0.245183,-0.035629,-0.048068,0.245183,-0.383249,-0.091930,0.536269,-0.120976,1.757671,-10.452916
1790548695.3968,-0.036196,-0.040771,0.255692,-0.036026,-0.042960,0.255692,-0.477952,-0.098001,0.505915,1.642111,1.534591,-10.491728
1790548695.4108,-0.032964,-0.032519,0.266387,-0.033882,-0.035651,0.266387,-0.628506,-0.412463,0.359004,2.753622,0.976891,-9.366203
1790548695.4246,-0.028280,-0.023551,0.274878,-0.029961,-0.027181,0.274878,-0.724423,-0.530235,0.345649,3.290214,0.567911,-10.996273
1790548695.4387,-0.019753,-0.009455,0.281744,-0.022815,-0.014773,0.281744,-1.064383,-0.773064,0.193881,2.561982,0.679451,-9.249770
1790548695.4528,-0.008440,0.006628,0.286868,-0.012752,0.000208,0.286868,-1.246504,-0.995252,0.118604,2.638638,0.047391,-8.201867
1790548695.4667,0.006316,0.024562,0.292794,0.000595,0.017255,0.292794,-1.375203,-1.244151,0.112533,2.025391,0.382011,-7.309210
1790548695.4807,0.005952,0.035917,0.293884,0.004345,0.030318,0.293884,-0.889546,-0.062791,0.140459,2.178703,1.348691,-16.895574
1790548695.4948,-0.001904,0.029640,0.281129,-0.000029,0.029843,0.281129,0.439940,0.791965,-0.473897,-2.727279,2.352551,-15.381938
1790548695.5088,0.020265,0.024077,0.269191,0.014177,0.025807,0.269191,0.510360,-1.222296,-1.127106,-4.107087,4.955151,-13.829490
1790548695.5228,0.035237,0.022462,0.260238,0.028919,0.023466,0.260238,0.243249,-0.730569,-0.919487,-2.075704,2.538451,-6.028441
1790548695.5366,0.040663,0.015864,0.254152,0.037140,0.018145,0.254152,0.600206,-0.114999,-0.636592,-1.769080,2.352551,-5.679140
1790548695.5506,0.055650,0.002975,0.235086,0.050097,0.007526,0.235086,0.855176,-0.737854,-0.670588,-2.650623,0.456371,-6.144874
1790548695.5646,0.063844,-0.006367,0.232865,0.059720,-0.002199,0.232865,0.732548,-0.516880,-0.798073,0.530599,2.984611,-10.258860
1790548695.5785,0.054740,-0.006140,0.239037,0.056234,-0.004958,0.239037,0.176471,0.670551,-0.872136,1.642111,4.657711,-8.395923
1790548695.5925,0.045556,0.000891,0.237827,0.048759,-0.000864,0.237827,-0.327398,0.773753,-0.818714,0.185647,4.248731,-8.279490
1790548695.6061,0.036314,0.001779,0.219011,0.040047,0.000986,0.219011,-0.122208,0.883026,-0.744651,-1.155832,0.939711,-10.297672
1790548695.6204,0.031207,-0.000557,0.206748,0.033859,-0.000094,0.206748,0.208038,0.564921,-0.581956,-1.730752,2.352551,-9.482637
1790548695.6345,0.020648,0.000174,0.209398,0.024612,0.000094,0.209398,0.136404,0.851458,-0.331843,-0.427600,3.170511,-6.338930
1790548695.6484,0.018760,-0.005531,0.198833,0.020516,-0.003843,0.198833,0.391374,0.268670,-0.203144,-2.267343,2.129471,-16.313406
1790548695.6623,0.022697,-0.020325,0.196887,0.022042,-0.015380,0.196887,1.061580,-0.230342,0.065182,-1.577440,2.575631,-16.895574
1790548695.6763,0.010579,-0.016245,0.203638,0.014018,-0.015986,0.203638,-0.209626,0.870885,0.374788,-0.925864,4.174371,-14.217602
1790548695.6903,0.007249,-0.010204,0.198786,0.009280,-0.011938,0.198786,-0.528946,0.271099,0.717176,-1.922392,0.419191,-10.064805
1790548695.7043,0.007038,-0.015550,0.202385,0.007710,-0.014466,0.202385,0.240820,-0.125926,0.866516,0.415615,-0.287229,-8.473546
1790548695.7186,-0.002941,-0.020620,0.215488,0.000254,-0.018774,0.215488,0.245677,0.432579,0.987930,1.680439,0.010211,-6.571797
1790548695.7327,-0.004506,-0.024717,0.221716,-0.003078,-0.022934,0.221716,0.227465,0.104761,1.015855,-1.692424,0.976891,-9.210958
1790548695.7466,0.001286,-0.028872,0.220447,-0.000023,-0.027091,0.220447,0.210467,-0.314118,0.717176,-3.072231,0.530731,-10.025993
1790548695.7606,-0.003244,-0.032035,0.220602,-0.002278,-0.030552,0.220602,0.112121,0.288096,0.698964,-0.580912,-0.064149,-12.626343
1790548695.7744,-0.011201,-0.038767,0.225030,-0.008524,-0.036302,0.225030,0.395016,0.488430,0.752386,0.377287,0.307651,-10.181238
1790548695.7885,-0.020613,-0.049120,0.235220,-0.016986,-0.045274,0.235220,0.646344,0.509070,0.910225,1.335487,0.270471,-8.784035
1790548695.8024,-0.032448,-0.060339,0.243086,-0.027810,-0.055820,0.243086,0.690053,0.704547,0.842233,1.220503,-0.064149,-7.503266
1790548695.8161,-0.040730,-0.065021,0.252701,-0.036854,-0.062261,0.252701,0.323382,0.586775,0.705035,-0.082648,1.460231,-10.297672
1790548695.8296,-0.042512,-0.063714,0.261307,-0.040815,-0.063278,0.261307,-0.100354,0.154541,0.572693,-0.542584,1.683311,-10.491728
1790548695.8436,-0.042540,-0.057680,0.270177,-0.042022,-0.059359,0.270177,-0.428172,-0.054292,0.394214,1.067191,1.683311,-10.569350
1790548695.8577,-0.039526,-0.053496,0.276205,-0.040275,-0.055255,0.276205,-0.372322,-0.349328,0.331079,2.676966,0.270471,-11.073895
1790548695.8722,-0.037159,-0.047235,0.285148,-0.038094,-0.049641,0.285148,-0.479166,-0.331116,0.261873,3.060246,0.642271,-9.831937
1790548695.8862,-0.027278,-0.035472,0.294022,-0.030522,-0.039723,0.294022,-0.859193,-0.875052,0.071253,3.175230,0.976891,-9.560259
1790548695.9002,-0.018072,-0.019944,0.301439,-0.021807,-0.025878,0.301439,-1.176084,-0.861696,0.031186,3.366870,0.233291,-8.551168
1790548695.9142,-0.007639,-0.004793,0.307735,-0.011889,-0.011119,0.307735,-1.202795,-0.969755,0.072467,3.328542,-0.361589,-8.318301
1790548695.9283,0.007673,0.016289,0.316511,0.001804,0.008066,0.316511,-1.539112,-1.293931,0.079752,2.025391,0.753811,-6.144874
1790548695.9422,0.020895,0.038191,0.321501,0.015168,0.029154,0.321501,-1.665383,-1.132450,-0.000382,1.948735,0.344831,-6.765853
1790548695.9562,0.012093,0.033686,0.308848,0.013016,0.032326,0.308848,0.177685,0.691192,-0.629307,2.638638,-1.179549,-17.632987
1790548695.9702,0.021619,0.027230,0.295217,0.019038,0.028759,0.295217,0.571067,-0.372397,-1.175671,-2.343999,5.512851,-15.614805
1790548695.9842,0.035970,0.029603,0.296286,0.030890,0.029350,0.296286,0.262675,-0.662577,-1.220595,-1.577440,4.992331,-3.234035
1790548695.9980,0.045959,0.026674,0.280691,0.041438,0.027477,0.280691,0.470293,-0.270409,-1.049401,-2.037376,2.724351,-3.272846
1790548696.0119,0.060582,0.012028,0.265699,0.054839,0.016663,0.265699,1.030013,-0.791276,-0.789574,-2.075704,1.460231,-8.628791
1790548696.0258,0.076245,0.004270,0.258452,0.069823,0.007988,0.258452,0.636631,-0.943044,-0.936485,-1.309144,3.579491,-10.375294
1790548696.0397,0.071277,0.001189,0.251491,0.070841,0.003229,0.251491,0.296671,0.476289,-1.168387,0.952207,3.988471,-10.530539
1790548696.0532,0.060645,0.005155,0.243144,0.063704,0.004577,0.243144,-0.158633,0.969230,-1.029974,-0.312616,3.951291,-8.357112
1790548696.0668,0.058839,0.006042,0.222140,0.060298,0.005603,0.222140,-0.046931,0.452006,-0.955912,-2.688951,2.464091,-9.599070
1790548696.0808,0.055187,0.004546,0.202928,0.056720,0.004863,0.202928,0.131547,0.558850,-0.765291,-2.535639,2.166651,-8.357112
1790548696.0947,0.047005,0.003345,0.193895,0.049920,0.003800,0.193895,0.161901,0.776182,-0.592883,-1.500784,3.170511,-9.831937
1790548696.1087,0.045696,-0.000178,0.186431,0.046963,0.001016,0.186431,0.336737,0.286882,-0.280849,-2.075704,2.575631,-7.736133
1790548696.1231,0.041836,-0.009902,0.187752,0.043374,-0.006627,0.187752,0.703408,0.275955,0.063968,-0.542584,3.133331,-15.537182
1790548696.1372,0.035888,-0.003022,0.185910,0.038134,-0.004103,0.185910,-0.384463,0.577062,0.429424,-4.720334,4.360271,-11.733686
1790548696.1511,0.034790,-0.001215,0.189026,0.035793,-0.002081,0.189026,-0.197485,-0.000869,0.854374,-1.040848,0.753811,-12.121798
1790548696.1652,0.026133,-0.006980,0.199679,0.029031,-0.005510,0.199679,0.293028,0.365802,0.918724,0.875551,-0.175689,-4.514804
1790548696.1791,0.014818,-0.011459,0.213421,0.019082,-0.009674,0.213421,0.288172,0.614701,0.966075,0.722239,0.753811,-6.649420
1790548696.1931,0.015890,-0.017133,0.213225,0.016847,-0.014896,0.213225,0.313669,-0.050649,0.997643,-1.922392,0.307651,-7.231588
1790548696.2068,0.015982,-0.018611,0.216877,0.016241,-0.017496,0.216877,0.075697,-0.000869,0.756029,-1.922392,1.460231,-11.500819
1790548696.2207,0.011800,-0.021033,0.220470,0.013133,-0.019972,0.220470,0.052628,0.180038,0.765742,0.568927,-0.287229,-11.694875
1790548696.2346,0.004715,-0.026167,0.228318,0.007240,-0.024309,0.228318,0.283315,0.362159,0.805808,0.952207,0.307651,-10.142427
1790548696.2485,-0.005847,-0.035163,0.241731,-0.001921,-0.031907,0.241731,0.596564,0.583133,0.945435,1.028863,0.679451,-7.658511
1790548696.2624,-0.017201,-0.047398,0.250738,-0.012617,-0.042750,0.250738,0.773829,0.681479,0.955148,0.952207,0.084571,-10.258860
1790548696.2760,-0.027603,-0.056812,0.258451,-0.023107,-0.052594,0.258451,0.612348,0.691192,0.867730,0.338959,0.530731,-9.987182
1790548696.2910,-0.030991,-0.056568,0.271629,-0.028626,-0.055376,0.271629,-0.012935,0.166682,0.708677,0.377287,1.980751,-10.569350
1790548696.3057,-0.032405,-0.051353,0.283340,-0.031271,-0.052560,0.283340,-0.358966,-0.000869,0.509558,1.220503,1.423051,-8.939280
1790548696.3201,-0.032890,-0.047832,0.294783,-0.032404,-0.049250,0.294783,-0.311614,-0.134425,0.462206,2.715294,0.456371,-10.258860
1790548696.3346,-0.028063,-0.040757,0.303303,-0.029366,-0.043305,0.303303,-0.556871,-0.486526,0.233948,3.060246,0.344831,-11.229140
1790548696.3501,-0.016872,-0.027456,0.310481,-0.020620,-0.032211,0.310481,-0.893188,-0.838627,0.073681,2.638638,0.939711,-11.190329
1790548696.3646,-0.007347,-0.012090,0.322007,-0.011329,-0.018126,0.322007,-1.136017,-0.883551,-0.013737,3.750150,0.047391,-8.434735
1790548696.3789,0.004244,0.003827,0.331521,-0.000428,-0.002759,0.331521,-1.213722,-1.025605,0.091893,2.715294,0.010211,-7.619700
1790548696.3931,0.015372,0.025541,0.342644,0.010632,0.017051,0.342644,-1.597391,-1.028034,0.087036,2.600310,0.456371,-6.532986
1790548696.4073,0.027468,0.047320,0.346214,0.022417,0.038239,0.346214,-1.616817,-0.974611,-0.163077,2.140375,0.716631,-9.249770
1790548696.4215,0.016142,0.039917,0.333173,0.018024,0.039414,0.333173,0.370733,0.918236,-0.594097,0.990535,-1.253909,-19.534735
1790548696.4355,0.024240,0.038002,0.315731,0.022375,0.038426,0.315731,0.245677,-0.165993,-1.066399,-3.263871,3.467951,-8.978091
1790548696.4495,0.038513,0.036548,0.300139,0.033671,0.037111,0.300139,0.290600,-0.542377,-1.131962,-4.490366,4.769251,-7.891378
1790548696.4638,0.044099,0.031343,0.285168,0.040970,0.033074,0.285168,0.477578,0.011272,-0.875778,-1.730752,1.608951,-3.660958
1790548696.4777,0.058932,0.020176,0.275235,0.053543,0.024045,0.275235,0.846677,-0.825272,-0.771362,-2.190688,2.761531,-9.870749
1790548696.4916,0.067617,0.014993,0.269630,0.063395,0.017709,0.269630,0.443582,-0.488954,-0.914631,-0.044320,3.728211,-10.879840
1790548696.5052,0.059631,0.015732,0.265852,0.060760,0.016325,0.265852,0.079339,0.692406,-1.034831,0.952207,3.914111,-8.240679
1790548696.5188,0.051903,0.016472,0.255827,0.054560,0.016428,0.255827,-0.056645,0.682693,-0.819928,0.453943,2.092291,-9.948371
1790548696.5327,0.048159,0.019635,0.244121,0.050079,0.018672,0.244121,-0.095497,0.533353,-0.715512,-1.922392,3.542311,-7.736133
1790548696.5467,0.039072,0.022655,0.234351,0.042374,0.021460,0.234351,-0.093069,0.870885,-0.603810,-1.500784,3.579491,-8.357112
1790548696.5605,0.030140,0.031315,0.221027,0.033811,0.028358,0.221027,-0.317685,1.032366,-0.413190,-2.343999,3.244871,-3.078790
1790548696.5745,0.037666,0.020569,0.219413,0.036509,0.022906,0.219413,0.800540,-0.475599,-0.126653,-0.887536,2.612811,-10.724595
1790548696.5884,0.040659,0.008438,0.229427,0.039414,0.012779,0.229427,0.992374,-0.249768,0.123461,-0.044320,4.025651,-10.685784
1790548696.6025,0.023000,0.011670,0.241172,0.027924,0.012003,0.241172,-0.158633,1.130711,0.372360,1.718767,3.839751,-13.208511
1790548696.6167,0.025023,0.012496,0.239748,0.025893,0.012348,0.239748,-0.103996,-0.145352,0.748744,-2.573967,1.683311,-13.130889
1790548696.6308,0.024179,0.014116,0.252645,0.024694,0.013586,0.252645,-0.106424,-0.084645,1.047423,-0.542584,2.017931,-9.482637
1790548696.6448,0.009452,0.009299,0.262447,0.014024,0.010585,0.262447,0.138832,0.756755,1.128770,1.680439,-1.142369,-7.619700
1790548696.6588,0.013007,0.002047,0.259587,0.013312,0.004609,0.259587,0.409586,-0.225486,1.122700,-1.769080,0.270471,-5.213406
1790548696.6728,0.012197,-0.004458,0.254214,0.012532,-0.001738,0.254214,0.356164,0.126616,0.771813,-2.535639,0.233291,-8.745224
1790548696.6867,0.005062,-0.007660,0.252395,0.007303,-0.005883,0.252395,0.113335,0.492072,0.700178,-1.079176,0.047391,-11.384385
1790548696.7006,-0.003690,-0.015450,0.257207,-0.000392,-0.012580,0.257207,0.448439,0.500571,0.736602,1.028863,0.047391,-12.742777
1790548696.7146,-0.010330,-0.023585,0.266360,-0.007349,-0.020283,0.266360,0.512788,0.347589,0.842233,0.568927,0.790991,-9.443825
1790548696.7285,-0.021834,-0.031020,0.277595,-0.017488,-0.027799,0.277595,0.506717,0.704547,0.804594,0.683911,1.199971,-8.240679
1790548696.7421,-0.030326,-0.036279,0.291323,-0.026475,-0.033735,0.291323,0.388946,0.489644,0.702606,1.220503,1.646131,-8.822846
1790548696.7556,-0.032670,-0.035229,0.301058,-0.030812,-0.034781,0.301058,-0.055430,0.115688,0.503487,0.568927,2.166651,-10.181238
1790548696.7696,-0.030601,-0.030248,0.305117,-0.030664,-0.031608,0.305117,-0.439099,-0.235199,0.327437,1.642111,0.456371,-12.199420
1790548696.7835,-0.027891,-0.025686,0.310759,-0.028723,-0.027462,0.310759,-0.452455,-0.343257,0.253374,2.600310,-0.473129,-10.491728
1790548696.7974,-0.023208,-0.018903,0.321822,-0.024863,-0.021471,0.321822,-0.560514,-0.533878,0.215735,3.443526,0.382011,-10.375294
1790548696.8113,-0.014572,-0.006926,0.330728,-0.017659,-0.011289,0.330728,-0.925970,-0.793704,0.099178,2.715294,0.530731,-9.094525
1790548696.8253,-0.005146,0.008172,0.338523,-0.008900,0.002334,0.338523,-1.182154,-0.859268,0.010545,2.945262,0.010211,-8.900469
1790548696.8392,0.009703,0.026219,0.347608,0.004122,0.019054,0.347608,-1.384916,-1.264791,0.034828,2.561982,0.493551,-8.434735
1790548696.8531,0.019304,0.047432,0.362436,0.014749,0.038919,0.362436,-1.562181,-0.985539,0.100392,2.945262,0.939711,-6.222497
1790548696.8672,0.012022,0.044269,0.353013,0.012840,0.042664,0.353013,0.002848,0.573420,-0.345198,1.143847,-3.261628,-17.516553
1790548696.8820,0.019175,0.041893,0.341357,0.017275,0.042124,0.341357,0.294242,-0.207273,-0.810215,-3.378855,7.037230,-15.886483
1790548696.8964,0.029360,0.044495,0.338341,0.025735,0.043784,0.338341,0.108479,-0.541163,-0.920702,0.185647,5.921830,-6.959909
1790548696.9106,0.037421,0.040589,0.321426,0.033915,0.041547,0.321426,0.391374,-0.215772,-0.910988,-1.577440,2.055111,-4.786483
1790548696.9245,0.048961,0.029464,0.305647,0.044447,0.033089,0.305647,0.762901,-0.542377,-0.702156,-2.267343,1.237151,-8.163056
1790548696.9386,0.059024,0.023319,0.299998,0.054651,0.026250,0.299998,0.467865,-0.618868,-0.783503,0.492271,3.096151,-11.617252
1790548696.9526,0.056727,0.020529,0.291431,0.056104,0.022246,0.291431,0.234750,0.271099,-0.998407,1.105519,2.873071,-9.987182
1790548696.9662,0.051953,0.023049,0.280045,0.053198,0.022808,0.280045,-0.073643,0.567349,-0.907346,-0.772552,3.393591,-8.046623
1790548696.9799,0.044725,0.027472,0.265322,0.047267,0.026073,0.265322,-0.218125,0.800464,-0.902489,-1.309144,3.133331,-7.658511
1790548696.9939,0.030864,0.032319,0.253456,0.035785,0.030445,0.253456,-0.265477,1.181705,-0.834497,-0.120976,2.984611,-8.551168
1790548697.0079,0.019064,0.036630,0.236624,0.024080,0.034775,0.236624,-0.278833,1.094287,-0.725225,-1.232488,2.389731,-9.793126
1790548697.0216,0.024463,0.030080,0.223573,0.024348,0.031489,0.223573,0.380447,-0.232770,-0.333057,-2.420655,0.679451,-16.973196
1790548697.0355,0.026701,0.015183,0.220526,0.025995,0.020075,0.220526,1.061580,-0.112570,-0.072016,-0.772552,2.389731,-14.683336
1790548697.0495,0.024391,0.010324,0.239363,0.024872,0.013249,0.239363,0.588065,0.054981,0.173240,1.067191,4.769251,-7.386832
1790548697.0634,0.019185,0.000310,0.251311,0.020891,0.004192,0.251311,0.751974,0.217676,0.440352,1.757095,2.612811,-11.617252
1790548697.0774,0.014229,0.004904,0.263691,0.016227,0.004691,0.263691,-0.253336,0.243173,0.775455,-0.044320,4.694891,-14.489280
1790548697.0913,0.013941,0.004349,0.274441,0.014627,0.004452,0.274441,-0.023863,-0.114999,1.129984,-0.657568,1.051251,-10.103616
1790548697.1052,0.011635,0.003137,0.293796,0.012533,0.003531,0.293796,0.023489,-0.095572,1.298750,0.568927,0.642271,-6.144874
1790548697.1192,-0.002296,-0.001294,0.321477,0.002153,0.000153,0.321477,0.249319,0.568563,1.251399,2.561982,0.530731,-5.873196
1790548697.1340,-0.001598,-0.008297,0.326024,-0.000473,-0.005762,0.326024,0.353735,-0.088288,1.052279,-1.922392,0.196111,-10.879840
1790548697.1481,-0.007643,-0.012545,0.327782,-0.005492,-0.010510,0.327782,0.170400,0.398583,0.735388,-0.964192,-0.250049,-12.121798
1790548697.1622,-0.013630,-0.017767,0.328508,-0.011189,-0.015590,0.328508,0.243249,0.419224,0.677109,-1.155832,-0.175689,-11.694875
1790548697.1765,-0.019034,-0.025891,0.334909,-0.016680,-0.022801,0.334909,0.477578,0.297810,0.673467,0.338959,0.382011,-9.831937
1790548697.1905,-0.028988,-0.035143,0.344870,-0.025296,-0.031440,0.344870,0.563782,0.552779,0.689251,1.565455,0.196111,-8.628791
1790548697.2042,-0.036238,-0.042443,0.353703,-0.032955,-0.039142,0.353703,0.492148,0.447149,0.707463,0.645583,1.199971,-9.637881
1790548697.2179,-0.039995,-0.043314,0.360895,-0.037883,-0.042063,0.360895,0.033202,0.228604,0.612760,0.338959,1.534591,-10.957462
1790548697.2319,-0.037674,-0.040150,0.367589,-0.037737,-0.040724,0.367589,-0.272762,-0.208488,0.543554,0.338959,1.237151,-10.763406
1790548697.2462,-0.042275,-0.038001,0.379772,-0.040913,-0.038818,0.379772,-0.215697,0.110832,0.403927,3.405198,0.530731,-9.405014
1790548697.2604,-0.037832,-0.031504,0.389207,-0.038756,-0.033698,0.389207,-0.526518,-0.488954,0.252160,3.405198,0.530731,-10.879840
1790548697.2744,-0.033865,-0.020727,0.397290,-0.035332,-0.024618,0.397290,-0.842195,-0.485312,0.067610,4.363398,0.270471,-10.918651
1790548697.2885,-0.021724,-0.005178,0.401278,-0.025806,-0.011010,0.401278,-1.200366,-0.977040,-0.079301,2.370342,-0.026969,-9.366203
1790548697.3029,-0.003654,0.014780,0.408048,-0.010300,0.007043,0.408048,-1.462621,-1.417773,-0.048948,1.910407,0.344831,-6.261308
1790548697.3170,0.008050,0.034752,0.416467,0.002545,0.026439,0.416467,-1.486904,-1.072957,0.074895,2.561982,0.642271,-6.532986
1790548697.3313,0.001659,0.030782,0.410615,0.001925,0.029479,0.410615,0.097551,0.518783,-0.311202,0.530599,-2.592388,-19.146623
1790548697.3455,0.010475,0.023536,0.394108,0.007910,0.025319,0.394108,0.594136,-0.283764,-0.743437,-3.953775,3.579491,-11.500819
1790548697.3595,0.024298,0.029346,0.376571,0.019381,0.028138,0.376571,-0.203556,-0.669862,-1.049401,-1.960720,4.732071,-8.085434
1790548697.3740,0.034124,0.029662,0.351842,0.029701,0.029205,0.351842,0.046557,-0.180562,-0.925558,-3.187215,1.571771,-4.631238
1790548697.3885,0.045207,0.018438,0.336520,0.040555,0.021668,0.336520,0.724049,-0.441603,-0.631736,-3.915447,0.902531,-9.676693
1790548697.4028,0.054472,0.009662,0.329896,0.050297,0.013264,0.329896,0.688839,-0.509595,-0.720368,-0.504256,3.170511,-9.521448
1790548697.4169,0.052822,0.010578,0.322527,0.052065,0.011384,0.322527,0.038058,0.210391,-0.955912,1.028863,3.802571,-9.599070
1790548697.4306,0.038620,0.017896,0.320127,0.042654,0.015942,0.320127,-0.399033,0.997155,-0.796859,3.136902,4.211551,-9.249770
1790548697.4444,0.030085,0.025380,0.303042,0.033855,0.022549,0.303042,-0.481594,0.891525,-0.885491,-1.347472,2.649991,-8.784035
1790548697.4583,0.024840,0.026548,0.283683,0.027545,0.025348,0.283683,-0.130707,0.669337,-0.770148,-2.305671,1.162791,-10.918651
1790548697.4722,0.015954,0.028242,0.270294,0.019431,0.027374,0.270294,-0.046931,0.885454,-0.608667,-1.309144,2.241011,-7.231588
1790548697.4862,0.010184,0.025765,0.264070,0.012958,0.026247,0.264070,0.166758,0.503000,-0.164291,-1.079176,2.947431,-17.555364
1790548697.5001,0.020164,0.008146,0.263761,0.018002,0.013576,0.263761,1.236417,-0.691716,0.080966,-1.462456,2.501271,-20.078091
1790548697.5141,0.016064,0.004976,0.290444,0.016646,0.007556,0.290444,0.575923,0.082906,0.326222,2.408670,6.776970,-6.610609
1790548697.5281,0.010743,-0.005064,0.300830,0.012514,-0.001278,0.300830,0.748332,0.250458,0.548410,0.875551,2.166651,-9.405014
1790548697.5420,0.003338,-0.001958,0.312636,0.006090,-0.001754,0.312636,-0.140420,0.403440,0.647970,1.143847,4.657711,-13.984735
1790548697.5560,0.004699,0.002430,0.322793,0.005116,0.001175,0.322793,-0.230267,-0.163564,1.004928,-1.730752,4.657711,-12.393476
1790548697.5699,-0.000499,0.000876,0.343918,0.001185,0.000966,0.343918,0.025917,0.073193,1.227116,1.642111,0.679451,-8.434735
1790548697.5840,-0.012001,-0.003702,0.366565,-0.008045,-0.002301,0.366565,0.193469,0.465361,1.268397,1.910407,0.047391,-6.300119
1790548697.5979,-0.008165,-0.009654,0.367036,-0.008129,-0.007448,0.367036,0.266317,-0.253411,1.099631,-1.922392,-0.175689,-6.921098
1790548697.6117,-0.014222,-0.012796,0.368844,-0.012394,-0.011192,0.368844,0.059913,0.414367,0.774241,-0.925864,-0.696209,-10.142427
1790548697.6258,-0.020961,-0.017088,0.371402,-0.018391,-0.015319,0.371402,0.171614,0.447149,0.622473,-0.427600,-0.324409,-12.509909
1790548697.6401,-0.024720,-0.022878,0.381659,-0.022821,-0.020611,0.381659,0.312455,0.129044,0.751172,1.182175,0.567911,-11.112707
1790548697.6542,-0.036134,-0.030718,0.393583,-0.032140,-0.027685,0.393583,0.459366,0.621986,0.760885,2.140375,0.382011,-9.715504
1790548697.6680,-0.043731,-0.039146,0.402472,-0.040254,-0.035708,0.402472,0.518859,0.455648,0.759671,0.645583,0.530731,-8.512357
1790548697.6820,-0.045486,-0.037276,0.410188,-0.043916,-0.036806,0.410188,-0.131921,0.074407,0.548410,0.492271,1.906391,-9.521448
1790548697.6964,-0.041512,-0.027857,0.415852,-0.042233,-0.030542,0.415852,-0.704996,-0.329902,0.372360,0.837223,1.162791,-10.724595
1790548697.7105,-0.040688,-0.020102,0.422018,-0.041152,-0.023234,0.422018,-0.655217,-0.204845,0.214521,3.136902,-0.101329,-11.656063
1790548697.7245,-0.030466,-0.010135,0.429793,-0.033672,-0.014064,0.429793,-0.794843,-0.884765,0.210879,2.561982,0.493551,-9.948371
1790548697.7387,-0.021629,0.002216,0.438936,-0.025242,-0.002668,0.438936,-0.953896,-0.837413,0.187810,3.136902,0.419191,-8.628791
1790548697.7528,-0.011622,0.017317,0.447241,-0.015708,0.011321,0.447241,-1.155443,-0.924831,0.133174,2.945262,0.493551,-8.279490
1790548697.7667,0.002853,0.034281,0.455726,-0.002715,0.027393,0.455726,-1.308425,-1.251436,0.112533,2.408670,0.456371,-7.464455
1790548697.7807,-0.005734,0.044919,0.456456,-0.004828,0.039661,0.456456,-0.786344,0.550351,0.051826,1.680439,1.869211,-11.190329
1790548697.7946,-0.006112,0.038232,0.446548,-0.005727,0.038661,0.446548,0.426584,0.190965,-0.734938,0.338959,0.939711,-14.683336
1790548697.8085,0.012709,0.035405,0.419442,0.007178,0.036382,0.419442,0.441154,-0.854411,-1.170815,-3.723807,4.211551,-6.338930
1790548697.8225,0.018963,0.030638,0.405508,0.015428,0.032361,0.405508,0.391374,-0.203631,-0.918273,-0.580912,1.497411,-5.795574
1790548697.8364,0.028849,0.024676,0.390169,0.024823,0.026981,0.390169,0.387731,-0.372397,-0.771362,-2.612295,0.790991,-7.658511
1790548697.8504,0.041015,0.010490,0.382076,0.036158,0.015437,0.382076,0.981447,-0.762136,-0.722796,0.108991,1.423051,-11.656063
1790548697.8642,0.052121,0.001082,0.368662,0.047332,0.005389,0.368662,0.705837,-0.592157,-1.040902,-1.002520,2.538451,-10.957462
1790548697.8785,0.044880,0.002578,0.358715,0.045616,0.003421,0.358715,0.070840,0.585561,-0.965625,1.335487,4.657711,-8.589979
1790548697.8928,0.036077,0.009427,0.341808,0.038938,0.007625,0.341808,-0.360180,0.866028,-0.926772,-1.424128,3.691031,-9.055714
1790548697.9067,0.025930,0.012496,0.325796,0.029833,0.011035,0.325796,-0.161061,0.969230,-0.866065,-1.040848,2.538451,-9.133336
1790548697.9208,0.025074,0.012082,0.308116,0.026502,0.011768,0.308116,0.065984,0.373086,-0.785932,-2.765607,2.241011,-9.637881
1790548697.9352,0.010740,0.014796,0.302476,0.015468,0.013887,0.302476,-0.100354,1.055434,-0.439901,0.760567,3.021791,-9.405014
1790548697.9493,0.008533,0.014328,0.306499,0.010613,0.014196,0.306499,0.227465,0.137543,-0.131509,0.913879,4.806431,-8.822846
1790548697.9633,0.018114,0.000111,0.308249,0.015864,0.004336,0.308249,1.076150,-0.672290,0.008117,-0.312616,3.579491,-13.053266
1790548697.9774,0.011424,-0.000943,0.321306,0.012756,0.000641,0.321306,0.471507,0.375515,0.329865,0.837223,7.743650,-6.144874
1790548697.9915,0.001713,0.005851,0.332258,0.005026,0.004288,0.332258,-0.420887,0.552779,0.629758,1.488799,4.732071,-15.731238
1790548698.0055,0.004530,0.004643,0.345085,0.004679,0.004537,0.345085,0.086624,-0.340829,1.066849,-0.504256,2.724351,-11.927742
1790548698.0194,-0.004022,0.005405,0.367632,-0.001412,0.005144,0.367632,-0.079713,0.318450,1.269611,1.565455,1.683311,-8.706413
1790548698.0334,-0.014158,0.000008,0.388961,-0.010334,0.001549,0.388961,0.238392,0.431365,1.357029,1.297159,0.047391,-7.891378
1790548698.0477,-0.005707,-0.004846,0.388521,-0.007095,-0.002928,0.388521,0.251748,-0.547233,1.167623,-2.497311,0.753811,-6.882287
1790548698.0616,-0.009913,-0.006710,0.396930,-0.009068,-0.005575,0.396930,0.001634,0.197036,0.882299,-0.044320,-0.026969,-11.112707
1790548698.0755,-0.014312,-0.009104,0.400061,-0.012739,-0.008045,0.400061,0.038058,0.288096,0.711105,-0.964192,-0.175689,-12.548721
1790548698.0895,-0.018612,-0.014680,0.409337,-0.016850,-0.012690,0.409337,0.303956,0.193393,0.762099,0.607255,0.567911,-10.996273
1790548698.1037,-0.026954,-0.024205,0.420677,-0.023923,-0.020751,0.420677,0.563782,0.437436,0.775455,1.220503,0.196111,-9.094525
1790548698.1172,-0.037146,-0.030947,0.430142,-0.033179,-0.027888,0.430142,0.442368,0.637769,0.724461,0.875551,0.902531,-8.201867
1790548698.1309,-0.040757,-0.032163,0.433763,-0.038484,-0.030881,0.433763,0.047772,0.269884,0.575122,-0.542584,1.348691,-10.336483
1790548698.1452,-0.038878,-0.025829,0.437864,-0.038760,-0.027344,0.437864,-0.454883,-0.142924,0.391786,0.032335,1.832031,-10.763406
1790548698.1592,-0.038017,-0.019742,0.445794,-0.038240,-0.022023,0.445794,-0.521661,-0.197560,0.258230,2.523654,0.344831,-10.841028
1790548698.1732,-0.035296,-0.013057,0.455768,-0.036179,-0.015747,0.455768,-0.544730,-0.377253,0.184168,3.098574,0.605091,-9.521448
1790548698.1871,-0.027182,-0.002958,0.464584,-0.029881,-0.006795,0.464584,-0.796057,-0.741496,0.144101,2.676966,0.642271,-9.715504
1790548698.2011,-0.018927,0.010433,0.473997,-0.022213,0.005265,0.473997,-1.014603,-0.781563,0.070038,3.136902,0.790991,-9.016902
1790548698.2155,-0.009402,0.025209,0.483336,-0.013245,0.019226,0.483336,-1.128732,-0.870195,0.019044,3.290214,0.196111,-8.628791
1790548698.2296,0.003678,0.043186,0.490341,-0.001399,0.035998,0.490341,-1.363061,-1.065672,-0.012523,2.446998,0.865351,-10.918651
1790548698.2438,-0.007190,0.041866,0.483827,-0.005452,0.040106,0.483827,0.025917,0.858743,-0.369481,0.683911,1.088431,-17.749420
1790548698.2579,0.000696,0.035775,0.465658,-0.001149,0.037074,0.465658,0.504289,-0.224271,-0.798073,-3.417183,3.430771,-12.160609
1790548698.2719,0.023650,0.035121,0.432963,0.016210,0.035707,0.432963,0.373162,-1.128807,-1.065184,-4.107087,5.141051,-4.670049
1790548698.2858,0.014773,0.032577,0.431978,0.015204,0.033516,0.431978,0.368305,0.573420,-0.722796,1.948735,2.464091,-4.398371
1790548698.3000,0.036528,0.025186,0.411088,0.030131,0.027685,0.411088,0.538285,-1.143377,-0.657233,-5.601878,2.278191,-10.375294
1790548698.3142,0.052081,0.008877,0.395568,0.045496,0.014519,0.395568,1.099219,-0.825272,-0.762863,-3.110559,1.088431,-11.500819
1790548698.3282,0.056689,0.002070,0.390273,0.053331,0.005805,0.390273,0.649986,-0.242484,-0.955912,0.798895,4.211551,-8.163056
1790548698.3421,0.048022,0.008025,0.388056,0.049615,0.007359,0.388056,-0.241194,0.631699,-0.869708,2.217030,5.141051,-8.900469
1790548698.3560,0.039082,0.012004,0.369339,0.042242,0.010611,0.369339,-0.277618,0.891525,-0.912203,-1.347472,2.278191,-10.724595
1790548698.3703,0.025796,0.014344,0.354839,0.030730,0.013224,0.354839,-0.134350,1.096715,-0.773790,-0.197632,1.943571,-8.512357
1790548698.3865,0.021153,0.017494,0.339087,0.024026,0.016213,0.339087,-0.118566,0.489644,-0.562530,-1.500784,2.835891,-8.667602
1790548698.4016,0.004074,0.021414,0.332659,0.010060,0.019854,0.332659,-0.175631,1.199917,-0.435045,0.722239,2.798711,-8.745224
1790548698.4162,0.009582,0.016670,0.321472,0.009725,0.017625,0.321472,0.392588,-0.186633,-0.159434,-2.190688,2.501271,-8.201867
1790548698.4309,0.014752,0.002782,0.331780,0.013244,0.007235,0.331780,1.101647,-0.418534,0.130745,0.913879,5.289771,-10.802217
1790548698.4453,-0.001877,0.010619,0.345676,0.002659,0.009604,0.345676,-0.379606,1.004440,0.409998,2.217030,5.587211,-11.073895
1790548698.4598,-0.000332,0.010543,0.355362,0.000566,0.010261,0.355362,-0.090641,-0.229128,0.928437,-0.389272,0.865351,-12.509909
1790548698.4738,0.001393,0.009925,0.375839,0.001145,0.010026,0.375839,0.047772,-0.372397,1.144554,0.645583,1.534591,-6.222497
1790548698.4878,-0.012776,0.007723,0.409449,-0.008599,0.008414,0.409449,0.074483,0.552779,1.320605,2.600310,0.605091,-5.795574
1790548698.5018,-0.009686,0.004658,0.411275,-0.009360,0.005785,0.411275,0.160687,-0.232770,1.275681,-2.612295,1.608951,-9.133336
1790548698.5158,-0.005400,0.001510,0.412960,-0.006588,0.002793,0.412960,0.092695,-0.311690,0.888370,-1.884064,0.121751,-9.948371
1790548698.5297,-0.013111,-0.000826,0.420222,-0.011154,0.000259,0.420222,-0.006865,0.442293,0.652827,0.722239,-0.956469,-11.229140
1790548698.5436,-0.017491,-0.006528,0.430604,-0.015590,-0.004491,0.430604,0.316097,0.176395,0.690465,0.990535,0.567911,-10.064805
1790548698.5576,-0.025896,-0.015449,0.443356,-0.022804,-0.012161,0.443356,0.515216,0.427723,0.748744,1.565455,0.010211,-9.482637
1790548698.5715,-0.035919,-0.024496,0.456097,-0.031985,-0.020796,0.456097,0.543142,0.550351,0.766956,1.527127,0.344831,-9.016902
1790548698.5850,-0.041088,-0.030172,0.461955,-0.038357,-0.027359,0.461955,0.344022,0.348804,0.726889,-0.197632,0.939711,-10.452916
1790548698.5986,-0.041256,-0.027488,0.467948,-0.040386,-0.027449,0.467948,-0.197485,-0.023938,0.579978,0.108991,2.129471,-10.220049
1790548698.6125,-0.039118,-0.020799,0.474765,-0.039498,-0.022794,0.474765,-0.519233,-0.224271,0.429424,0.875551,1.348691,-9.987182
1790548698.6264,-0.037519,-0.013939,0.486823,-0.038113,-0.016596,0.486823,-0.578726,-0.309261,0.240018,3.290214,0.419191,-10.025993
1790548698.6406,-0.030852,-0.005481,0.495990,-0.033031,-0.008816,0.495990,-0.672215,-0.604298,0.214521,2.293686,0.642271,-10.336483
1790548698.6547,-0.021560,0.005796,0.505940,-0.025001,0.001412,0.505940,-0.879833,-0.815559,0.167170,2.446998,0.605091,-9.676693
1790548698.6685,-0.012771,0.018025,0.517082,-0.016440,0.013041,0.517082,-0.990320,-0.839842,0.125889,2.830278,0.196111,-8.551168
1790548698.6823,-0.000808,0.031214,0.528615,-0.005497,0.025762,0.528615,-1.074096,-1.077813,0.168384,2.561982,0.196111,-8.589979
1790548698.6963,0.006139,0.050410,0.537768,0.002648,0.043016,0.537768,-1.428625,-0.734211,0.090679,2.600310,0.902531,-6.765853
1790548698.7107,-0.004828,0.040675,0.532882,-0.002585,0.041377,0.532882,0.571067,0.867242,-0.250495,-0.389272,0.010211,-20.272147
1790548698.7253,0.003005,0.029970,0.516272,0.001328,0.033392,0.516272,0.770186,-0.247340,-0.715512,-3.302199,2.947431,-13.713056
1790548698.7394,0.021815,0.028680,0.490188,0.015669,0.030094,0.490188,0.216537,-0.907833,-0.651162,-3.877119,2.649991,-6.106063
1790548698.7535,0.031581,0.021123,0.466041,0.026807,0.023815,0.466041,0.585637,-0.209702,-0.677873,-4.337055,1.683311,-5.834385
1790548698.7678,0.048632,0.005771,0.455319,0.042085,0.011184,0.455319,1.064009,-0.936973,-0.475111,-3.532167,1.534591,-10.064805
1790548698.7819,0.059200,-0.007323,0.449564,0.054065,-0.001771,0.449564,1.037297,-0.635866,-0.628093,-0.619240,3.505131,-9.482637
1790548698.7959,0.059434,-0.012624,0.445406,0.057823,-0.009368,0.445406,0.492148,0.006416,-0.782289,1.335487,3.839751,-9.793126
1790548698.8096,0.050894,-0.009572,0.445528,0.052973,-0.009511,0.445528,-0.082142,0.552779,-0.635378,2.753622,4.360271,-9.870749
1790548698.8234,0.044578,-0.006324,0.428759,0.047097,-0.007280,0.428759,-0.205984,0.698477,-0.704584,-2.152360,2.352551,-10.220049
1790548698.8372,0.041961,-0.007787,0.412189,0.043502,-0.007635,0.412189,0.101194,0.438650,-0.634164,-2.382327,1.571771,-9.715504
1790548698.8513,0.032671,-0.006707,0.400915,0.035920,-0.006985,0.400915,-0.010507,0.825961,-0.471469,-1.232488,2.352551,-8.434735
1790548698.8654,0.020859,-0.003834,0.396087,0.025378,-0.004780,0.396087,-0.154990,0.901238,-0.191002,-0.274288,2.538451,-10.530539
1790548698.8794,0.017156,-0.004552,0.391082,0.019623,-0.004620,0.391082,0.120620,0.368230,-0.131509,-1.347472,3.282051,-11.850119
1790548698.8938,0.006376,-0.010192,0.385943,0.010350,-0.008521,0.385943,0.371948,0.821105,0.073681,-1.347472,1.757671,-14.683336
1790548698.9083,0.002477,-0.003874,0.385933,0.004839,-0.005268,0.385933,-0.396604,0.358517,0.473134,-2.650623,2.798711,-10.724595
1790548698.9223,0.001452,-0.002956,0.395251,0.002468,-0.003649,0.395251,-0.118566,-0.027580,0.861659,-0.235960,1.051251,-8.784035
1790548698.9366,-0.009135,-0.011009,0.414332,-0.005654,-0.008801,0.414332,0.433869,0.465361,1.173694,1.450471,-0.026969,-7.076343
1790548698.9510,-0.020681,-0.017241,0.431487,-0.016173,-0.014709,0.431487,0.374376,0.606202,1.228330,0.798895,1.237151,-8.939280
1790548698.9652,-0.015344,-0.020694,0.438609,-0.015593,-0.018899,0.438609,0.186184,-0.329902,1.029211,-2.267343,1.162791,-7.852567
1790548698.9790,-0.016486,-0.023423,0.448369,-0.016218,-0.022066,0.448369,0.079339,-0.043364,0.810665,0.760567,0.158931,-11.073895
1790548698.9928,-0.024676,-0.028164,0.457626,-0.022139,-0.026334,0.457626,0.208038,0.452006,0.747530,1.335487,-0.287229,-10.258860
1790548699.0066,-0.031910,-0.037757,0.467655,-0.028978,-0.034330,0.467655,0.568639,0.402226,0.870158,0.798895,0.047391,-9.637881
1790548699.0205,-0.038594,-0.050118,0.477279,-0.035710,-0.045382,0.477279,0.784756,0.392513,0.859231,0.568927,0.270471,-9.754315
1790548699.0341,-0.047565,-0.057861,0.489130,-0.044009,-0.054117,0.489130,0.517645,0.539424,0.822806,1.258831,1.088431,-9.366203
1790548699.0477,-0.050475,-0.060468,0.498251,-0.048535,-0.058563,0.498251,0.123048,0.159397,0.764528,0.492271,0.976891,-10.569350
1790548699.0613,-0.049697,-0.056266,0.505388,-0.049349,-0.056955,0.505388,-0.316471,-0.066433,0.561766,0.032335,1.497411,-8.667602
1790548699.0754,-0.048848,-0.051754,0.514600,-0.048998,-0.053314,0.514600,-0.406318,-0.190275,0.450065,2.255358,0.307651,-10.452916
1790548699.0892,-0.040777,-0.046618,0.523621,-0.043243,-0.048627,0.523621,-0.464596,-0.725712,0.332293,2.906934,0.158931,-12.199420
1790548699.1031,-0.034257,-0.036969,0.534537,-0.036953,-0.040467,0.534537,-0.746277,-0.662577,0.208451,3.405198,0.679451,-9.831937
1790548699.1171,-0.022907,-0.025330,0.544466,-0.027121,-0.029871,0.544466,-0.918685,-1.000108,0.147743,3.060246,0.196111,-9.405014
1790548699.1310,-0.013424,-0.011803,0.555474,-0.017533,-0.017224,0.555474,-1.058312,-0.902977,0.147743,2.830278,0.158931,-7.464455
1790548699.1451,-0.001072,0.005233,0.566280,-0.006010,-0.001504,0.566280,-1.288999,-1.098454,0.168384,2.523654,0.419191,-7.309210
1790548699.1593,0.017449,0.028026,0.575589,0.010412,0.019167,0.575589,-1.679953,-1.490622,0.033614,1.833751,0.419191,-6.261308
1790548699.1733,0.012965,0.030463,0.573850,0.012199,0.027074,0.573850,-0.293402,0.301452,-0.339127,2.485326,-0.250049,-14.722147
1790548699.1873,0.018221,0.021080,0.560828,0.016415,0.022878,0.560828,0.714336,-0.081003,-0.681516,-4.298727,3.653851,-15.420749
1790548699.2012,0.031073,0.024404,0.544514,0.026676,0.023946,0.544514,-0.014150,-0.689288,-1.088253,-0.810880,5.773111,-9.405014
1790548699.2150,0.036163,0.023543,0.532618,0.033317,0.023664,0.532618,0.208038,-0.218201,-0.847853,0.032335,2.501271,-5.485084
1790548699.2290,0.049025,0.011867,0.518577,0.044313,0.015406,0.518577,0.806610,-0.614011,-0.721582,-3.455511,1.311511,-10.103616
1790548699.2432,0.065005,-0.000527,0.506022,0.058798,0.004253,0.506022,0.930453,-0.907833,-0.889134,-1.462456,2.538451,-8.473546
1790548699.2571,0.074912,-0.007425,0.489759,0.070077,-0.003922,0.489759,0.586851,-0.444031,-1.099180,-1.845736,3.356411,-8.512357
1790548699.2707,0.075916,-0.009623,0.480233,0.074165,-0.007913,0.480233,0.285743,0.037983,-0.958340,0.108991,3.914111,-8.861658
1790548699.2842,0.076443,-0.009903,0.463349,0.075759,-0.009306,0.463349,0.073269,0.199464,-1.079754,-1.654096,3.282051,-10.064805
1790548699.2982,0.071381,-0.012356,0.447874,0.072695,-0.011441,0.447874,0.167972,0.560064,-0.862423,-2.037376,2.984611,-14.605714
1790548699.3120,0.061522,-0.002891,0.432185,0.064873,-0.005456,0.432185,-0.685570,0.975301,-0.496966,-4.643678,2.873071,-14.372847
1790548699.3260,0.053849,0.013953,0.417373,0.057156,0.008130,0.417373,-1.230720,0.847816,-0.296633,-5.486894,1.943571,-12.393476
1790548699.3404,0.045425,0.026499,0.402661,0.048945,0.020988,0.402661,-0.957538,0.917022,-0.208000,-3.263871,0.233291,-5.989630
1790548699.3549,0.024372,0.046407,0.420128,0.031744,0.038781,0.420128,-1.052241,1.470671,-0.254138,0.223975,1.906391,-1.953266
1790548699.3688,0.036476,0.043058,0.405852,0.035057,0.041775,0.405852,0.175257,-0.611583,-0.295418,-3.685479,1.051251,-10.181238
