t,imu_roll,imu_pitch,imu_yaw,lpf_roll,lpf_pitch,lpf_yaw,gyro_x,gyro_y,gyro_z,acc_x,acc_y,acc_z
1790548077.6633,-0.009108,-0.035212,0.000085,-0.006376,-0.024649,0.000085,0.033007,0.013432,0.002099,0.070663,1.311511,-9.870749
1790548077.6794,-0.023476,-0.035285,0.006207,-0.018346,-0.032094,0.006207,-0.021629,-0.007208,-0.002757,0.377287,1.274331,-9.831937
1790548077.6933,-0.013208,-0.036456,0.001926,-0.014749,-0.035147,0.001926,-0.011916,-0.009637,-0.005186,-0.082648,1.274331,-10.103616
1790548077.7073,-0.020474,-0.037373,0.004579,-0.018757,-0.036705,0.004579,0.017223,0.002505,0.000885,0.415615,1.237151,-9.831937
1790548077.7216,-0.017959,-0.039936,0.003779,-0.018198,-0.038967,0.003779,0.022080,0.006147,0.004528,0.070663,1.199971,-10.336483
1790548077.7355,-0.022623,-0.039900,0.004930,-0.021296,-0.039620,0.004930,-0.016773,0.004933,-0.001543,0.453943,1.237151,-9.948371
1790548077.7498,-0.018299,-0.037460,0.003504,-0.019198,-0.038108,0.003504,-0.047126,-0.004780,-0.003971,-0.082648,1.423051,-10.258860
1790548077.7644,-0.018872,-0.035867,0.004045,-0.018970,-0.036539,0.004045,-0.045912,0.002505,0.019097,0.223975,1.385871,-10.181238
1790548077.7784,-0.014568,-0.032618,0.003517,-0.015888,-0.033795,0.003517,-0.050769,-0.022992,0.074948,-0.197632,1.571771,-10.220049
1790548077.7924,-0.013423,-0.025133,0.007997,-0.014162,-0.027732,0.007997,-0.094478,-0.061845,0.163580,0.070663,1.869211,-9.443825
1790548077.8064,-0.009445,-0.019063,0.011266,-0.010860,-0.021663,0.011266,-0.126046,-0.144406,0.295922,-0.159304,1.794851,-9.366203
1790548077.8202,-0.018616,-0.013411,0.035873,-0.016289,-0.015887,0.035873,-0.073837,-0.080057,0.458617,1.105519,1.869211,-9.055714
1790548077.8342,-0.021644,-0.018515,0.046385,-0.020037,-0.017727,0.046385,0.144708,0.076567,0.594601,0.300631,1.125611,-10.103616
1790548077.8481,-0.021609,-0.023217,0.050069,-0.021138,-0.021570,0.050069,0.181132,0.103279,0.554534,-0.120976,1.162791,-10.064805
1790548077.8621,-0.012194,-0.026640,0.042286,-0.014877,-0.025119,0.042286,0.071860,-0.114053,0.413693,-1.117504,1.088431,-10.181238
1790548077.8760,-0.008172,-0.033840,0.031771,-0.010184,-0.031223,0.031771,-0.007060,0.045000,0.218217,-0.695896,0.233291,-10.181238
1790548077.8900,-0.009345,-0.040185,0.026309,-0.009596,-0.037496,0.026309,0.124068,0.136060,0.183006,-0.082648,0.530731,-10.220049
1790548077.9039,-0.008025,-0.045007,0.025723,-0.008496,-0.042754,0.025723,0.151993,0.058355,0.203647,-0.350944,0.753811,-10.064805
1790548077.9176,-0.012738,-0.045851,0.027298,-0.011465,-0.044922,0.027298,0.100999,0.240477,0.135655,0.300631,1.125611,-8.706413
1790548077.9312,-0.013796,-0.043117,0.037223,-0.013097,-0.043658,0.037223,0.085215,0.087495,0.101659,0.070663,1.720491,-8.745224
1790548077.9451,-0.015731,-0.040625,0.043692,-0.014941,-0.041535,0.043692,0.008724,0.089923,0.078590,0.262303,1.757671,-9.909560
1790548077.9591,-0.018054,-0.038006,0.049874,-0.017120,-0.039065,0.049874,-0.034985,-0.010851,0.073734,0.683911,1.757671,-10.181238
1790548077.9729,-0.017520,-0.031364,0.062572,-0.017400,-0.033674,0.062572,-0.132116,-0.310744,0.152653,0.952207,2.464091,-10.103616
1790548077.9869,-0.012723,-0.024629,0.071547,-0.014126,-0.027342,0.071547,-0.246246,-0.505007,0.170865,0.568927,2.241011,-10.220049
1790548078.0009,-0.012368,-0.011962,0.082667,-0.012895,-0.016576,0.082667,-0.283884,-0.302245,0.135655,0.875551,3.282051,-8.667602
1790548078.0153,-0.017152,-0.018823,0.095675,-0.015875,-0.018149,0.095675,0.433674,0.098422,-0.052537,1.412143,1.832031,-13.984735
1790548078.0292,-0.014039,-0.013159,0.049990,-0.014590,-0.014656,0.049990,0.483454,0.030430,-0.335432,-0.504256,5.141051,-10.064805
1790548078.0434,-0.008852,-0.007853,0.025385,-0.010573,-0.009894,0.025385,0.024508,-0.103126,-0.704531,-0.427600,2.910251,-9.249770
1790548078.0574,-0.000175,-0.007281,0.004581,-0.003295,-0.008065,0.004581,0.056076,-0.383592,-1.077273,-0.235960,1.794851,-9.172147
1790548078.0714,0.002545,-0.003826,-0.015220,0.000793,-0.005098,-0.015220,0.050005,0.066854,-1.157406,-0.274288,2.315371,-8.046623
1790548078.0852,0.003026,-0.005885,-0.028687,0.002356,-0.005649,-0.028687,0.097357,0.119062,-1.078487,0.032335,1.274331,-9.094525
1790548078.0992,0.004251,-0.010523,-0.060502,0.003682,-0.009061,-0.060502,0.155635,0.219836,-1.202330,-0.427600,0.753811,-9.133336
1790548078.1132,0.004912,-0.010609,-0.082383,0.004543,-0.010145,-0.082383,0.033007,0.197982,-1.366239,-0.197632,1.757671,-10.297672
1790548078.1272,0.002445,-0.006588,-0.090557,0.003074,-0.007655,-0.090557,-0.196466,0.314539,-1.564144,0.377287,1.980751,-9.715504
1790548078.1407,0.000122,-0.004306,-0.109224,0.001008,-0.005310,-0.109224,-0.185539,0.391030,-1.548360,0.108991,1.423051,-9.172147
1790548078.1543,-0.001705,-0.006938,-0.119554,-0.000891,-0.006450,-0.119554,-0.089621,0.227121,-1.426946,0.645583,0.270471,-10.530539
1790548078.1682,-0.001496,-0.011262,-0.127200,-0.001315,-0.009818,-0.127200,0.128924,0.045000,-1.151336,0.530599,0.605091,-9.405014
1790548078.1822,0.001037,-0.013668,-0.132935,0.000332,-0.012513,-0.132935,0.137423,-0.128623,-0.989855,0.453943,1.385871,-10.297672
1790548078.1961,0.002033,-0.012039,-0.132944,0.001523,-0.012181,-0.132944,-0.005845,-0.075200,-0.825946,0.645583,2.352551,-10.996273
1790548078.2100,0.000960,-0.006734,-0.144498,0.001129,-0.008368,-0.144498,-0.177040,0.200410,-0.851443,0.032335,2.761531,-10.142427
1790548078.2240,-0.007110,0.000273,-0.137003,-0.004638,-0.002319,-0.137003,-0.331236,0.499089,-0.646253,1.105519,2.835891,-10.763406
1790548078.2378,-0.002229,-0.003272,-0.135647,-0.002952,-0.002986,-0.135647,0.209058,-0.353239,-0.244372,0.300631,2.166651,-15.925294
1790548078.2520,-0.009460,-0.005124,-0.100428,-0.007508,-0.004482,-0.100428,0.098571,0.120277,0.428263,1.872079,1.497411,-10.181238
1790548078.2669,-0.010938,-0.014712,-0.108213,-0.009909,-0.011643,-0.108213,0.467670,0.166414,0.831358,-0.695896,0.307651,-6.882287
1790548078.2811,-0.023518,-0.023820,-0.085084,-0.019435,-0.020167,-0.085084,0.439745,0.643572,1.002552,0.492271,0.196111,-6.300119
1790548078.2952,-0.020255,-0.033114,-0.120811,-0.020009,-0.029230,-0.120811,0.296476,0.100850,1.004981,-2.229015,-0.696209,-8.512357
1790548078.3092,-0.016745,-0.040482,-0.133436,-0.017725,-0.037106,-0.133436,0.226056,0.054713,0.856855,-2.727279,-0.584669,-11.267951
1790548078.3232,-0.016351,-0.046816,-0.131702,-0.016763,-0.043903,-0.131702,0.177490,0.006147,0.839857,-0.849208,-0.547489,-12.238231
1790548078.3371,-0.021760,-0.055903,-0.125834,-0.020261,-0.052303,-0.125834,0.427603,0.270830,0.841071,0.377287,-0.250049,-10.646972
1790548078.3509,-0.036055,-0.063178,-0.109889,-0.031317,-0.059915,-0.109889,0.511379,0.694566,0.825288,1.565455,0.790991,-7.619700
1790548078.3648,-0.042690,-0.068327,-0.096355,-0.039278,-0.065803,-0.096355,0.519878,0.540370,0.685661,-0.350944,1.720491,-8.046623
1790548078.3785,-0.045234,-0.070716,-0.082116,-0.043447,-0.069242,-0.082116,0.377823,0.287828,0.604314,-0.504256,2.017931,-8.124245
1790548078.3922,-0.045919,-0.074624,-0.075433,-0.045177,-0.073009,-0.075433,0.345042,0.134846,0.544821,-0.504256,1.646131,-11.073895
1790548078.4063,-0.044783,-0.076952,-0.055121,-0.044901,-0.075769,-0.055121,0.404535,-0.109196,0.471972,0.338959,2.947431,-10.802217
1790548078.4201,-0.040514,-0.082791,-0.056055,-0.041830,-0.080685,-0.056055,0.335328,-0.252465,0.539964,-0.312616,0.419191,-10.452916
1790548078.4341,-0.037146,-0.082829,-0.046387,-0.038551,-0.082185,-0.046387,-0.156399,-0.443085,0.476829,1.872079,-0.250049,-12.277042
1790548078.4480,-0.035818,-0.080581,-0.031754,-0.036638,-0.081062,-0.031754,-0.390729,-0.456441,0.338417,2.945262,-0.844929,-10.336483
1790548078.4618,-0.036564,-0.069289,-0.010579,-0.036586,-0.072821,-0.010579,-0.932236,-0.577855,0.261926,4.095102,0.084571,-7.619700
1790548078.4757,-0.029894,-0.055614,-0.003927,-0.031901,-0.060776,-0.003927,-1.090074,-1.002805,0.064020,3.443526,0.196111,-7.658511
1790548078.4897,-0.021589,-0.048711,0.006577,-0.024682,-0.052330,0.006577,-0.712476,-1.097508,0.062806,3.520182,-0.473129,-8.279490
1790548078.5036,-0.023587,-0.048061,-0.000057,-0.023916,-0.049342,-0.000057,-0.072623,-0.207542,-0.035539,2.676966,0.790991,-8.667602
1790548078.5180,-0.027643,-0.054821,-0.031766,-0.026525,-0.053177,-0.031766,0.665575,0.522158,-0.405852,-1.539112,2.910251,-11.656063
1790548078.5321,-0.016294,-0.052845,-0.076766,-0.019364,-0.052944,-0.076766,0.153207,-0.444300,-0.986212,-1.999048,3.356411,-10.142427
1790548078.5461,-0.014479,-0.056887,-0.076930,-0.015945,-0.055704,-0.076930,0.223627,-0.135907,-0.858727,1.028863,0.567911,-11.035084
1790548078.5601,-0.003356,-0.062997,-0.082585,-0.007132,-0.060809,-0.082585,0.416676,-0.498936,-0.396139,-1.807408,0.679451,-8.434735
1790548078.5740,0.009765,-0.077015,-0.075876,0.004695,-0.072153,-0.075876,0.841626,-0.774546,-0.451990,-1.347472,-0.510309,-11.500819
1790548078.5879,0.021799,-0.084375,-0.100623,0.016668,-0.080708,-0.100623,0.737209,-0.634920,-0.779808,-1.500784,2.389731,-8.939280
1790548078.6015,0.031122,-0.090537,-0.113394,0.026786,-0.087589,-0.113394,0.573300,-0.729623,-0.869655,0.568927,1.832031,-9.405014
1790548078.6151,0.033040,-0.093075,-0.117237,0.031163,-0.091429,-0.117237,0.369324,-0.336241,-0.759168,1.373815,1.943571,-7.580888
1790548078.6290,0.039168,-0.104035,-0.125964,0.036767,-0.100253,-0.125964,0.774848,-0.373879,-0.477487,-0.657568,0.605091,-9.443825
1790548078.6430,0.024007,-0.105715,-0.137746,0.027835,-0.104076,-0.137746,0.175062,1.106160,-0.472630,-0.235960,2.129471,-17.632987
1790548078.6570,0.022948,-0.101150,-0.151151,0.024414,-0.102028,-0.151151,-0.413797,0.366747,-0.492057,-3.263871,-0.101329,-12.548721
1790548078.6709,0.028508,-0.097766,-0.149928,0.027280,-0.099045,-0.149928,-0.480575,-0.021778,-0.464131,-3.647151,-1.514168,-10.025993
1790548078.6847,0.026068,-0.090475,-0.145843,0.026431,-0.093046,-0.145843,-0.839961,0.665426,-0.492057,-2.075704,-0.993649,-4.243126
1790548078.6987,0.020658,-0.075146,-0.154394,0.022390,-0.080516,-0.154394,-1.102216,0.643572,-0.489628,-1.692424,0.753811,-7.619700
1790548078.7126,0.012330,-0.066438,-0.169317,0.015348,-0.070661,-0.169317,-0.952876,0.900970,-0.430135,-2.305671,-1.848788,-8.745224
1790548078.7265,0.004647,-0.058033,-0.172645,0.007858,-0.061821,-0.172645,-0.802323,0.938608,-0.442277,-3.532167,-0.919289,-10.569350
1790548078.7404,0.012990,-0.059820,-0.171378,0.011450,-0.060420,-0.171378,-0.000989,-0.304673,-0.160596,-4.452038,-0.361589,-15.498371
1790548078.7545,0.012005,-0.064628,-0.188714,0.011838,-0.063366,-0.188714,0.150779,-0.076414,0.439190,0.837223,-0.844929,-10.841028
1790548078.7690,0.009399,-0.068377,-0.190248,0.010131,-0.066874,-0.190248,0.218771,0.002505,0.588530,1.258831,0.642271,-11.811308
1790548078.7833,0.010234,-0.073215,-0.161842,0.010203,-0.071312,-0.161842,0.321973,0.153058,0.400338,-1.922392,0.419191,-7.464455
1790548078.7971,0.001762,-0.079672,-0.160290,0.004294,-0.077164,-0.160290,0.453100,0.580436,0.299564,0.032335,0.716631,-9.909560
1790548078.8111,-0.013702,-0.089388,-0.160754,-0.008303,-0.085721,-0.160754,0.735995,0.917968,0.314134,2.102047,1.348691,-11.462007
1790548078.8251,-0.028864,-0.097781,-0.143359,-0.022696,-0.094163,-0.143359,0.739638,0.990816,0.431906,0.913879,2.017931,-9.443825
1790548078.8387,-0.039524,-0.103684,-0.118144,-0.034476,-0.100827,-0.118144,0.619438,0.763772,0.502326,0.300631,2.203831,-8.706413
1790548078.8524,-0.047399,-0.109167,-0.095321,-0.043522,-0.106665,-0.095321,0.547803,0.601077,0.556962,-0.082648,1.869211,-8.473546
1790548078.8663,-0.055224,-0.116944,-0.087302,-0.051713,-0.113861,-0.087302,0.536876,0.531871,0.553320,0.530599,0.530731,-9.676693
1790548078.8802,-0.044457,-0.123105,-0.072505,-0.046634,-0.120331,-0.072505,0.457957,-0.728409,0.702659,-0.542584,1.385871,-14.993826
1790548078.8942,-0.036026,-0.119136,-0.069014,-0.039208,-0.119495,-0.069014,-0.339735,-0.769690,0.565461,2.178703,0.158931,-11.811308
1790548078.9085,-0.034884,-0.112558,-0.087524,-0.036181,-0.114639,-0.087524,-0.691836,-0.386021,0.606742,3.558510,-1.848788,-10.258860
1790548078.9229,-0.034322,-0.103774,-0.095256,-0.034880,-0.107034,-0.095256,-0.844818,-0.372665,0.509611,3.136902,-1.588528,-8.007811
1790548078.9370,-0.024570,-0.089282,-0.096520,-0.027663,-0.094607,-0.096520,-1.096145,-0.893532,0.309277,1.872079,0.121751,-8.628791
1790548078.9510,-0.015023,-0.075361,-0.091505,-0.018815,-0.081135,-0.091505,-1.076719,-1.099936,0.306849,4.516709,-0.026969,-9.405014
1790548078.9652,-0.001179,-0.063278,-0.090514,-0.006470,-0.068635,-0.090514,-0.775612,-1.345193,0.425835,2.791950,1.385871,-7.192776
1790548078.9790,-0.007499,-0.064350,-0.091810,-0.007190,-0.065636,-0.091810,0.075502,0.234406,0.184221,3.175230,1.311511,-13.519000
1790548078.9930,-0.013702,-0.069016,-0.103335,-0.011749,-0.068002,-0.103335,0.403320,0.472378,-0.410709,0.415615,2.538451,-15.265504
1790548079.0070,-0.008099,-0.069651,-0.116094,-0.009194,-0.069157,-0.116094,0.091286,-0.377522,-0.651109,0.722239,2.017931,-14.605714
1790548079.0218,-0.003394,-0.071598,-0.123806,-0.005134,-0.070866,-0.123806,0.147136,-0.370237,-0.385212,0.798895,0.828171,-7.658511
1790548079.0359,0.004742,-0.080657,-0.122285,0.001780,-0.077720,-0.122285,0.612153,-0.534146,-0.211590,-0.274288,0.419191,-8.046623
1790548079.0500,0.015760,-0.092000,-0.122271,0.011566,-0.087716,-0.122271,0.836769,-0.598496,-0.483558,-1.730752,1.088431,-9.249770
1790548079.0639,0.028824,-0.097082,-0.136518,0.023647,-0.094272,-0.136518,0.529591,-0.861964,-0.621970,-0.580912,2.166651,-7.930189
1790548079.0773,0.032293,-0.100366,-0.152479,0.029699,-0.098538,-0.152479,0.366896,-0.299817,-0.816233,0.722239,2.241011,-9.715504
1790548079.0913,0.034799,-0.106594,-0.164869,0.033269,-0.104177,-0.164869,0.464028,-0.189330,-0.766453,0.262303,0.976891,-9.210958
1790548079.1052,0.029645,-0.112317,-0.181177,0.030732,-0.109875,-0.181177,0.569658,0.461450,-0.629255,-0.810880,2.203831,-8.318301
1790548079.1192,0.016559,-0.114456,-0.188575,0.020811,-0.113081,-0.188575,0.119211,1.063665,-0.558834,-2.382327,0.493551,-17.865854
1790548079.1332,0.020206,-0.105770,-0.177870,0.020388,-0.107964,-0.177870,-0.695478,0.072925,-0.643824,-5.065286,-0.212869,-12.665154
1790548079.1471,0.017873,-0.093938,-0.173325,0.018627,-0.098146,-0.173325,-1.039080,0.395887,-0.591616,-1.884064,-1.105189,-7.580888
1790548079.1609,0.013967,-0.081979,-0.169493,0.015365,-0.086829,-0.169493,-1.108287,0.471164,-0.483558,-0.849208,-0.882109,-4.398371
1790548079.1748,0.005829,-0.067979,-0.171438,0.008689,-0.073634,-0.171438,-1.064577,0.846334,-0.581903,-1.999048,0.233291,-7.736133
1790548079.1888,-0.005975,-0.058175,-0.174646,-0.001576,-0.062812,-0.174646,-0.854531,1.147441,-0.522410,-2.305671,-0.696209,-7.658511
1790548079.2026,-0.000192,-0.063698,-0.183094,-0.000607,-0.063432,-0.183094,0.257623,-0.315600,-0.383998,-1.500784,-1.328269,-18.952567
1790548079.2166,-0.002822,-0.064238,-0.188490,-0.002158,-0.063996,-0.188490,0.077930,-0.054560,0.287423,3.980118,2.241011,-14.722147
1790548079.2305,-0.006933,-0.066434,-0.184415,-0.005500,-0.065702,-0.184415,0.137423,0.177341,0.569104,0.913879,0.865351,-11.267951
1790548079.2444,-0.004924,-0.070578,-0.173130,-0.005097,-0.069115,-0.173130,0.341399,-0.084913,0.323847,-0.772552,1.088431,-7.270399
1790548079.2585,-0.016531,-0.077657,-0.178557,-0.013101,-0.075094,-0.178557,0.515021,0.603505,0.221859,2.446998,0.939711,-8.861658
1790548079.2728,-0.033172,-0.086967,-0.180799,-0.027151,-0.083405,-0.180799,0.661933,0.966534,0.326275,2.906934,1.088431,-11.112707
1790548079.2868,-0.042028,-0.096096,-0.169422,-0.037565,-0.092289,-0.169422,0.789418,0.656927,0.526609,-0.312616,2.315371,-8.551168
1790548079.3005,-0.053296,-0.099443,-0.159295,-0.048577,-0.097297,-0.159295,0.381466,0.756487,0.679591,0.760567,2.501271,-9.016902
1790548079.3140,-0.058030,-0.104645,-0.147717,-0.055194,-0.102441,-0.147717,0.450672,0.381317,0.746368,-0.312616,1.608951,-8.395923
1790548079.3280,-0.064036,-0.112038,-0.137884,-0.061383,-0.109159,-0.137884,0.533234,0.429883,0.686875,0.108991,0.976891,-8.667602
1790548079.3430,-0.054761,-0.117107,-0.126335,-0.056748,-0.114723,-0.126335,0.245482,-0.529289,0.724514,-1.539112,-0.250049,-12.509909
1790548079.3585,-0.043361,-0.110843,-0.116737,-0.047377,-0.112007,-0.116737,-0.455078,-0.868035,0.563033,2.178703,0.233291,-11.267951
1790548079.3734,-0.042476,-0.100858,-0.102611,-0.043946,-0.104203,-0.102611,-0.836319,-0.377522,0.611599,4.325070,-1.402628,-9.210958
1790548079.3881,-0.036359,-0.086948,-0.098066,-0.038636,-0.092124,-0.098066,-0.963804,-0.746621,0.402766,3.788478,0.605091,-7.813756
1790548079.4033,-0.023294,-0.073661,-0.093677,-0.027897,-0.079200,-0.093677,-0.867886,-1.125433,0.391839,2.983590,1.014071,-8.279490
1790548079.4179,-0.014231,-0.062539,-0.083826,-0.018331,-0.067537,-0.083826,-0.779254,-0.984593,0.382126,4.401726,0.753811,-8.706413
1790548079.4319,-0.017427,-0.063328,-0.063534,-0.017698,-0.064591,-0.063534,-0.128474,0.036501,0.025168,4.171758,-1.997508,-14.993826
1790548079.4459,-0.026046,-0.064342,-0.086873,-0.023541,-0.064416,-0.086873,0.219985,0.673925,-0.357287,0.032335,3.467951,-12.742777
1790548079.4599,-0.018720,-0.062403,-0.104627,-0.020166,-0.063007,-0.104627,-0.032557,-0.325314,-0.739742,-1.730752,2.501271,-11.423196
1790548079.4741,-0.015743,-0.064298,-0.114188,-0.017070,-0.063911,-0.114188,0.160492,-0.246394,-0.530909,1.067191,0.976891,-7.813756
1790548079.4882,-0.006423,-0.074161,-0.115594,-0.009617,-0.071086,-0.115594,0.705642,-0.519576,-0.265012,-0.964192,0.605091,-6.261308
1790548079.5021,0.001978,-0.083929,-0.133036,-0.001500,-0.080076,-0.133036,0.805201,-0.490437,-0.596473,-0.849208,2.092291,-9.715504
1790548079.5165,0.014426,-0.093641,-0.149257,0.009648,-0.089572,-0.149257,0.709284,-0.808542,-0.932790,-0.044320,1.311511,-10.724595
1790548079.5303,0.019926,-0.098756,-0.164329,0.016843,-0.096000,-0.164329,0.455529,-0.507435,-0.976499,1.987063,1.869211,-8.939280
1790548079.5440,0.024082,-0.105513,-0.164064,0.021910,-0.102659,-0.164064,0.440959,-0.418803,-0.875725,2.293686,0.307651,-11.462007
1790548079.5580,0.034515,-0.114853,-0.185226,0.030733,-0.111195,-0.185226,0.756636,-0.654346,-0.606186,-1.309144,1.943571,-10.918651
1790548079.5723,0.012682,-0.116687,-0.176604,0.018097,-0.115039,-0.176604,0.051219,1.374485,-0.626826,2.791950,-0.212869,-12.005364
1790548079.5864,0.012864,-0.106183,-0.181791,0.014434,-0.108840,-0.181791,-0.803537,0.274473,-0.638968,-4.337055,-0.064149,-11.423196
1790548079.6004,0.018248,-0.094031,-0.177576,0.017104,-0.098474,-0.177576,-1.014798,-0.075200,-0.710602,-3.378855,-1.068009,-8.318301
1790548079.6143,0.014448,-0.082194,-0.163606,0.015245,-0.087078,-0.163606,-1.228487,0.605933,-0.623184,-1.999048,-2.183408,-4.204315
1790548079.6284,0.008529,-0.065945,-0.169879,0.010544,-0.072285,-0.169879,-1.219988,0.667855,-0.602544,-2.114032,0.158931,-7.658511
1790548079.6424,-0.002939,-0.053039,-0.177105,0.001106,-0.058813,-0.177105,-1.096145,1.052738,-0.541836,-2.037376,-1.179549,-8.318301
1790548079.6566,0.005620,-0.056601,-0.178668,0.004266,-0.057265,-0.178668,0.183561,-0.417588,-0.476273,-3.762135,0.233291,-18.991378
1790548079.6707,0.004140,-0.064624,-0.186094,0.004178,-0.062416,-0.186094,0.553874,0.020717,-0.028254,1.412143,0.939711,-12.315854
1790548079.6846,-0.000637,-0.060953,-0.189432,0.000808,-0.061392,-0.189432,-0.102977,0.265974,0.394267,0.377287,2.426911,-7.231588
1790548079.6988,-0.003918,-0.064484,-0.184739,-0.002500,-0.063556,-0.184739,0.175062,0.167628,0.401552,0.300631,-0.026969,-8.279490
1790548079.7130,-0.008122,-0.072614,-0.181555,-0.006436,-0.069896,-0.181555,0.426389,0.269616,0.260712,0.070663,-0.733389,-6.416553
1790548079.7269,-0.021104,-0.079901,-0.187921,-0.016703,-0.076900,-0.187921,0.523520,0.797768,0.267996,1.795423,0.902531,-10.220049
1790548079.7409,-0.026683,-0.087452,-0.185921,-0.023689,-0.084286,-0.185921,0.646149,0.415313,0.288637,-0.274288,2.278191,-9.560259
1790548079.7546,-0.035840,-0.091966,-0.186593,-0.032195,-0.089662,-0.186593,0.457957,0.607148,0.444047,0.683911,2.426911,-8.900469
1790548079.7686,-0.041836,-0.094930,-0.181715,-0.038944,-0.093350,-0.181715,0.301332,0.409242,0.565461,0.147319,2.092291,-9.249770
1790548079.7831,-0.048981,-0.101957,-0.175049,-0.045970,-0.099375,-0.175049,0.485882,0.440810,0.567889,0.645583,0.902531,-9.055714
1790548079.7973,-0.053375,-0.107437,-0.168440,-0.051154,-0.105019,-0.168440,0.436102,0.309683,0.576388,0.032335,1.683311,-9.793126
1790548079.8116,-0.040711,-0.106042,-0.160852,-0.043844,-0.105735,-0.160852,-0.019201,-0.919029,0.648023,0.415615,2.761531,-12.393476
1790548079.8257,-0.030531,-0.101964,-0.150588,-0.034525,-0.103095,-0.150588,-0.385872,-0.832825,0.558176,1.642111,-0.547489,-12.005364
1790548079.8396,-0.027972,-0.095038,-0.140150,-0.029938,-0.097455,-0.140150,-0.643270,-0.398162,0.543607,2.906934,-1.253909,-9.948371
1790548079.8539,-0.023833,-0.085160,-0.134485,-0.025665,-0.088849,-0.134485,-0.844818,-0.558429,0.326275,3.175230,-1.142369,-7.852567
1790548079.8680,-0.014873,-0.069682,-0.143443,-0.018110,-0.075432,-0.143443,-1.054864,-0.858322,0.167223,2.600310,1.237151,-7.930189
1790548079.8820,-0.003772,-0.052742,-0.144964,-0.008074,-0.059549,-0.144964,-1.204204,-1.113292,0.124728,2.945262,0.679451,-5.989630
1790548079.8961,-0.007198,-0.053814,-0.118422,-0.007460,-0.055534,-0.118422,-0.121189,0.160343,0.079804,1.795423,-2.220588,-14.139979
1790548079.9100,-0.018105,-0.061003,-0.143683,-0.014912,-0.059363,-0.143683,0.674074,0.903398,-0.482343,-0.887536,3.430771,-10.879840
1790548079.9239,-0.006739,-0.059415,-0.160132,-0.009191,-0.059399,-0.160132,0.005082,-0.579069,-0.802877,-2.765607,3.133331,-11.656063
1790548079.9379,-0.006671,-0.059649,-0.165052,-0.007427,-0.059574,-0.165052,-0.024058,-0.064273,-0.590402,1.795423,0.419191,-9.715504
1790548079.9519,-0.003623,-0.066796,-0.158179,-0.004764,-0.064630,-0.158179,0.427603,-0.115267,-0.421636,-0.849208,-0.175689,-10.414105
1790548079.9657,0.008787,-0.076673,-0.162277,0.004721,-0.073060,-0.162277,0.709284,-0.711411,-0.699675,-1.539112,0.716631,-8.163056
1790548079.9794,0.020811,-0.082396,-0.176327,0.015984,-0.079595,-0.176327,0.468884,-0.719910,-0.846586,-1.347472,1.497411,-8.745224
1790548079.9930,0.024868,-0.086101,-0.205120,0.022203,-0.084149,-0.205120,0.397250,-0.324099,-0.936433,1.105519,2.612811,-9.094525
1790548080.0066,0.030626,-0.089756,-0.224390,0.028099,-0.088074,-0.224390,0.313474,-0.410304,-0.953431,0.453943,1.571771,-9.210958
1790548080.0206,0.035793,-0.095881,-0.237884,0.033485,-0.093539,-0.237884,0.430032,-0.389663,-0.870869,0.837223,0.976891,-9.521448
1790548080.0350,0.030864,-0.103355,-0.249013,0.031650,-0.100410,-0.249013,0.533234,0.338822,-0.517554,0.338959,1.423051,-13.130889
1790548080.0492,0.011032,-0.094988,-0.267080,0.017218,-0.096615,-0.267080,-0.513357,1.415766,-0.529695,0.262303,2.910251,-14.644525
1790548080.0633,0.012279,-0.084176,-0.247829,0.013760,-0.087908,-0.247829,-0.941949,0.134846,-0.597687,-2.612295,-1.439808,-9.016902
1790548080.0772,0.008957,-0.076855,-0.223952,0.010398,-0.080171,-0.223952,-0.821749,0.473592,-0.594045,-1.845736,-2.257768,-6.261308
1790548080.0912,0.002620,-0.067438,-0.223147,0.004954,-0.071258,-0.223147,-0.931022,0.733418,-0.370642,-2.037376,-1.662888,-5.019350
1790548080.1052,-0.005123,-0.055745,-0.222702,-0.002100,-0.060399,-0.222702,-1.003870,0.780770,-0.388855,-1.845736,-1.030829,-6.688231
1790548080.1190,-0.004684,-0.051899,-0.220314,-0.003909,-0.054449,-0.220314,-0.326379,0.093565,-0.267440,-1.845736,0.567911,-13.868301
1790548080.1330,0.001102,-0.060263,-0.217221,-0.000401,-0.058519,-0.217221,0.484668,-0.412732,0.172079,-0.504256,-0.956469,-15.265504
1790548080.1470,-0.006210,-0.066629,-0.211170,-0.004467,-0.064196,-0.211170,0.467670,0.422598,0.711158,0.530599,1.311511,-10.957462
1790548080.1610,-0.007065,-0.069571,-0.206219,-0.006285,-0.067959,-0.206219,0.321973,-0.003566,0.709944,-0.005993,1.980751,-7.231588
1790548080.1749,-0.005600,-0.069995,-0.196751,-0.005806,-0.069384,-0.196751,0.056076,0.034072,0.230358,-2.037376,1.162791,-8.473546
1790548080.1888,-0.019543,-0.074817,-0.213434,-0.015422,-0.073187,-0.213434,0.318330,0.823265,0.218217,3.175230,0.567911,-12.238231
1790548080.2029,-0.030821,-0.085806,-0.211096,-0.026201,-0.082021,-0.211096,0.757850,0.758915,0.327489,0.722239,0.605091,-12.082986
1790548080.2166,-0.041379,-0.089805,-0.209822,-0.036826,-0.087470,-0.209822,0.414248,0.726133,0.543607,0.415615,2.612811,-9.016902
1790548080.2302,-0.050226,-0.094375,-0.201671,-0.046206,-0.092303,-0.201671,0.376609,0.627788,0.660164,0.108991,1.571771,-9.016902
1790548080.2441,-0.051384,-0.100502,-0.190545,-0.049830,-0.098042,-0.190545,0.454314,0.116634,0.617669,-0.465928,1.014071,-7.619700
1790548080.2582,-0.054486,-0.104449,-0.183719,-0.053089,-0.102527,-0.183719,0.258837,0.184626,0.513253,0.837223,0.939711,-13.907112
1790548080.2723,-0.043012,-0.106369,-0.175432,-0.046035,-0.105216,-0.175432,0.139852,-0.875320,0.635881,0.990535,1.571771,-13.829490
1790548080.2870,-0.033431,-0.099682,-0.169364,-0.037212,-0.101342,-0.169364,-0.540068,-0.716267,0.487756,1.067191,-0.510309,-12.238231
1790548080.3011,-0.032367,-0.090652,-0.183672,-0.033821,-0.093859,-0.183672,-0.747686,-0.365380,0.412479,3.750150,-0.770569,-8.085434
1790548080.3152,-0.022642,-0.079927,-0.184858,-0.025995,-0.084106,-0.184858,-0.893383,-0.886247,0.170865,2.025391,-0.770569,-6.688231
1790548080.3292,-0.013353,-0.066110,-0.197027,-0.017146,-0.071509,-0.197027,-0.934664,-0.882605,0.173293,2.446998,1.348691,-7.425644
1790548080.3432,-0.003496,-0.053999,-0.205078,-0.007591,-0.059252,-0.205078,-0.826606,-0.868035,0.023954,2.638638,1.794851,-10.685784
1790548080.3570,-0.011164,-0.060083,-0.192482,-0.010092,-0.059834,-0.192482,0.264908,0.497875,-0.404638,2.906934,-2.518028,-15.925294
1790548080.3709,-0.021818,-0.063455,-0.206065,-0.018300,-0.062369,-0.206065,0.329258,0.916754,-0.770095,-0.849208,2.129471,-9.909560
1790548080.3849,-0.010231,-0.059607,-0.213981,-0.012652,-0.060436,-0.213981,-0.221963,-0.647061,-0.881796,-1.615768,2.017931,-11.811308
1790548080.3989,-0.009247,-0.061127,-0.229329,-0.010268,-0.060920,-0.229329,0.137423,-0.133479,-0.521196,1.450471,1.051251,-7.697322
1790548080.4127,-0.009518,-0.071423,-0.230737,-0.009743,-0.068272,-0.230737,0.691072,0.045000,-0.455632,0.338959,0.084571,-8.240679
1790548080.4267,0.001367,-0.079042,-0.252842,-0.001966,-0.075811,-0.252842,0.657076,-0.704126,-0.925505,-0.005993,2.501271,-10.025993
1790548080.4403,0.008911,-0.086038,-0.273070,0.005648,-0.082970,-0.273070,0.542947,-0.503792,-1.139194,0.568927,1.385871,-10.530539
1790548080.4540,0.012198,-0.090121,-0.291577,0.010233,-0.087976,-0.291577,0.324401,-0.310744,-0.966786,2.140375,1.311511,-10.375294
1790548080.4679,0.023661,-0.097275,-0.297996,0.019633,-0.094485,-0.297996,0.483454,-0.689556,-0.890295,-1.232488,0.456371,-9.249770
1790548080.4819,0.035055,-0.106207,-0.314722,0.030429,-0.102690,-0.314722,0.686216,-0.764833,-0.778594,-0.389272,1.385871,-8.706413
1790548080.4959,0.022973,-0.107498,-0.336651,0.025210,-0.106056,-0.336651,0.238197,0.863332,-0.590402,0.377287,3.579491,-11.423196
1790548080.5098,0.017682,-0.097645,-0.324743,0.019940,-0.100168,-0.324743,-0.770755,0.626574,-0.613471,-5.371910,-0.026969,-15.110259
1790548080.5237,0.018304,-0.086937,-0.308835,0.018795,-0.090906,-0.308835,-0.922523,0.150630,-0.484772,-2.957247,-1.514168,-10.957462
1790548080.5384,0.012575,-0.080128,-0.277601,0.014441,-0.083362,-0.277601,-0.768327,0.683638,-0.442277,-2.267343,-2.257768,-4.553616
1790548080.5528,0.003188,-0.065202,-0.291545,0.006564,-0.070650,-0.291545,-0.889741,0.758915,-0.353644,-0.772552,2.129471,-5.989630
1790548080.5669,-0.013220,-0.052985,-0.291582,-0.007285,-0.058284,-0.291582,-0.937092,1.344132,-0.255299,-1.270816,-0.026969,-5.795574
1790548080.5808,-0.005196,-0.060898,-0.291433,-0.005823,-0.060114,-0.291433,0.444601,-0.512291,-0.172737,-1.309144,-1.737248,-19.728791
1790548080.5950,-0.002688,-0.064258,-0.297625,-0.003629,-0.063014,-0.297625,0.280692,-0.382378,0.565461,2.408670,1.757671,-10.297672
1790548080.6092,-0.010109,-0.064454,-0.292472,-0.008165,-0.064022,-0.292472,0.013581,0.352178,0.842286,1.258831,0.902531,-8.589979
1790548080.6232,0.000437,-0.065462,-0.274119,-0.002144,-0.065030,-0.274119,0.097357,-0.565714,0.536322,-3.340527,1.199971,-8.046623
1790548080.6371,-0.013294,-0.068230,-0.287744,-0.009949,-0.067270,-0.287744,0.233341,0.741917,0.369984,2.868606,1.237151,-8.085434
1790548080.6513,-0.027766,-0.076731,-0.289531,-0.022421,-0.073893,-0.289531,0.579371,0.890043,0.326275,2.255358,0.679451,-11.462007
1790548080.6651,-0.039461,-0.083840,-0.290444,-0.034349,-0.080856,-0.290444,0.659504,0.805053,0.491399,0.300631,2.649991,-7.736133
1790548080.6788,-0.048828,-0.086683,-0.285303,-0.044484,-0.084935,-0.285303,0.294048,0.669069,0.646809,-0.044320,2.575631,-10.103616
1790548080.6925,-0.053740,-0.091385,-0.278146,-0.050963,-0.089450,-0.278146,0.402106,0.352178,0.690518,-0.120976,2.055111,-9.560259
1790548080.7064,-0.057293,-0.095751,-0.273653,-0.055394,-0.093861,-0.273653,0.434888,0.235620,0.558176,0.223975,2.910251,-9.094525
1790548080.7203,-0.049507,-0.102228,-0.260544,-0.051273,-0.099718,-0.260544,0.357183,-0.507435,0.628597,-1.347472,-0.696209,-13.324944
1790548080.7342,-0.040343,-0.098793,-0.252268,-0.043622,-0.099071,-0.252268,-0.282670,-0.728409,0.542392,1.220503,0.679451,-13.363756
1790548080.7482,-0.040576,-0.093345,-0.237252,-0.041490,-0.095063,-0.237252,-0.546139,-0.235467,0.525394,4.056774,-1.551348,-9.909560
1790548080.7620,-0.038169,-0.087548,-0.225519,-0.039165,-0.089803,-0.225519,-0.603203,-0.367809,0.344487,2.370342,-1.514168,-7.503266
1790548080.7762,-0.029056,-0.075059,-0.224513,-0.032089,-0.079482,-0.224513,-0.924951,-0.810970,0.264354,1.987063,0.196111,-7.386832
1790548080.7912,-0.018434,-0.060029,-0.229642,-0.022530,-0.065865,-0.229642,-1.022082,-0.942098,0.102873,3.405198,0.605091,-8.240679
1790548080.8055,-0.005856,-0.047300,-0.231212,-0.010859,-0.052869,-0.231212,-0.905525,-1.075653,0.090732,2.561982,0.790991,-8.434735
1790548080.8195,-0.011696,-0.048846,-0.228444,-0.011445,-0.050053,-0.228444,0.020866,0.315753,-0.295366,4.286742,-0.473129,-18.176343
1790548080.8336,-0.022275,-0.056351,-0.240066,-0.019026,-0.054462,-0.240066,0.557516,0.874259,-0.760382,-0.389272,1.683311,-13.480189
1790548080.8478,-0.003727,-0.058841,-0.240978,-0.008317,-0.057527,-0.240978,0.166563,-1.086581,-0.856299,-2.305671,0.939711,-11.073895
1790548080.8619,-0.002816,-0.064772,-0.249860,-0.004466,-0.062599,-0.249860,0.387537,-0.161404,-0.431349,1.412143,0.233291,-6.183686
1790548080.8758,0.002522,-0.077560,-0.247908,0.000426,-0.073072,-0.247908,0.891406,-0.282819,-0.359715,-1.117504,0.567911,-10.452916
1790548080.8898,0.019541,-0.086502,-0.262223,0.013807,-0.082473,-0.262223,0.726282,-1.001591,-0.810162,-2.343999,1.980751,-8.434735
1790548080.9035,0.027690,-0.093185,-0.288613,0.023525,-0.089972,-0.288613,0.551446,-0.632492,-1.001996,1.258831,1.757671,-8.939280
1790548080.9172,0.028807,-0.097973,-0.313682,0.027222,-0.095572,-0.313682,0.430032,-0.158976,-0.824732,1.757095,2.129471,-9.521448
1790548080.9314,0.041414,-0.106648,-0.320156,0.037156,-0.103326,-0.320156,0.564801,-0.801257,-0.781022,-0.964192,0.233291,-8.861658
1790548080.9455,0.035261,-0.117487,-0.295252,0.035829,-0.113239,-0.295252,0.511379,0.423812,-0.597687,0.607255,-3.670608,-12.005364
1790548080.9595,0.017265,-0.112773,-0.309424,0.022835,-0.112912,-0.309424,-0.287526,1.391483,-0.541836,-2.152360,2.389731,-15.498371
1790548080.9734,0.024684,-0.101137,-0.311870,0.024129,-0.104669,-0.311870,-0.846032,-0.174760,-0.717887,-7.211653,0.828171,-11.811308
1790548080.9876,0.021702,-0.092835,-0.301529,0.022430,-0.096385,-0.301529,-0.867886,0.377675,-0.677820,-1.462456,-2.555208,-6.610609
1790548081.0018,0.012411,-0.082172,-0.298977,0.015416,-0.086436,-0.298977,-0.972303,0.789269,-0.470202,-1.194160,-1.960328,-7.348021
1790548081.0157,0.006858,-0.070322,-0.296962,0.009425,-0.075156,-0.296962,-0.895812,0.637501,-0.408281,-2.535639,0.196111,-7.503266
1790548081.0297,-0.004535,-0.059193,-0.296692,-0.000347,-0.063982,-0.296692,-0.816892,1.021170,-0.357287,-2.535639,0.679451,-9.521448
1790548081.0443,0.004006,-0.065253,-0.294338,0.002700,-0.064872,-0.294338,0.352326,-0.401805,-0.182450,-4.682006,-0.175689,-16.080539
1790548081.0584,0.001908,-0.064879,-0.302158,0.002146,-0.064877,-0.302158,0.037864,-0.016921,0.566675,1.680439,2.017931,-9.987182
1790548081.0728,-0.009758,-0.064438,-0.308237,-0.006187,-0.064569,-0.308237,0.018437,0.625360,0.725728,1.910407,1.757671,-9.560259
1790548081.0869,-0.003841,-0.069724,-0.300941,-0.004545,-0.068177,-0.300941,0.341399,-0.090984,0.261926,-4.222071,0.196111,-6.144874
1790548081.1008,-0.012994,-0.075679,-0.310847,-0.010459,-0.073428,-0.310847,0.411819,0.528228,0.191505,1.642111,0.567911,-8.706413
1790548081.1148,-0.026590,-0.083602,-0.316455,-0.021751,-0.080550,-0.316455,0.597583,0.873045,0.220645,1.603783,1.460231,-10.491728
1790548081.1286,-0.039378,-0.092036,-0.313359,-0.034090,-0.088590,-0.313359,0.668003,0.922824,0.287423,0.185647,1.720491,-9.987182
1790548081.1424,-0.048178,-0.096261,-0.309666,-0.043951,-0.093959,-0.309666,0.404535,0.630216,0.369984,0.223975,2.501271,-9.987182
1790548081.1562,-0.052694,-0.101794,-0.305686,-0.050071,-0.099444,-0.305686,0.479811,0.312111,0.368770,0.415615,2.278191,-10.452916
1790548081.1704,-0.053772,-0.109586,-0.303912,-0.052662,-0.106543,-0.303912,0.617009,0.030430,0.301992,0.875551,1.757671,-8.822846
1790548081.1845,-0.046945,-0.113654,-0.298692,-0.048660,-0.111521,-0.298692,0.308617,-0.535360,0.452546,1.220503,1.683311,-13.829490
1790548081.1985,-0.040934,-0.111114,-0.297338,-0.043252,-0.111236,-0.297338,-0.225605,-0.569356,0.408837,2.753622,0.121751,-11.772497
1790548081.2127,-0.038907,-0.106410,-0.298378,-0.040210,-0.107857,-0.298378,-0.441722,-0.348382,0.342059,3.405198,-1.068009,-9.482637
1790548081.2268,-0.034535,-0.098844,-0.297750,-0.036238,-0.101548,-0.297750,-0.690622,-0.497722,0.130798,2.638638,-1.476988,-7.736133
1790548081.2408,-0.027640,-0.086779,-0.304973,-0.030219,-0.091210,-0.304973,-0.907953,-0.667702,-0.035539,2.753622,-0.026969,-8.628791
1790548081.2548,-0.019176,-0.074899,-0.316103,-0.022489,-0.079792,-0.316103,-0.860602,-0.832825,-0.121743,3.596838,0.493551,-8.473546
1790548081.2690,-0.011275,-0.061750,-0.329717,-0.014639,-0.067163,-0.329717,-0.856959,-0.791544,-0.067107,3.136902,1.460231,-7.076343
1790548081.2833,-0.023331,-0.066706,-0.322397,-0.020724,-0.066843,-0.322397,0.233341,0.775913,-0.399782,2.753622,-1.142369,-12.354665
1790548081.2981,-0.035760,-0.071442,-0.337932,-0.031249,-0.070062,-0.337932,0.383894,0.964105,-0.832016,-0.465928,2.278191,-14.838581
1790548081.3122,-0.013579,-0.076855,-0.339293,-0.018880,-0.074817,-0.339293,0.440959,-1.350050,-0.737313,-3.148887,2.129471,-12.665154
1790548081.3261,-0.014582,-0.082104,-0.355267,-0.015871,-0.079918,-0.355267,0.421533,-0.046061,-0.411923,2.523654,1.311511,-9.521448
1790548081.3402,-0.005925,-0.091573,-0.357287,-0.008909,-0.088077,-0.357287,0.703213,-0.445514,-0.583117,-1.884064,1.088431,-9.288581
1790548081.3541,0.010643,-0.096665,-0.376601,0.004777,-0.094089,-0.376601,0.504094,-1.070797,-0.757954,-1.002520,2.315371,-7.813756
1790548081.3677,0.015150,-0.103472,-0.396175,0.012039,-0.100657,-0.396175,0.561159,-0.339883,-0.901222,0.760567,1.497411,-8.900469
1790548081.3813,0.020121,-0.109580,-0.411232,0.017696,-0.106903,-0.411232,0.484668,-0.341097,-0.759168,0.070663,1.162791,-9.133336
1790548081.3953,0.033542,-0.117733,-0.420039,0.028788,-0.114484,-0.420039,0.573300,-0.827968,-0.793164,-1.730752,0.679451,-9.676693
1790548081.4093,0.024850,-0.127413,-0.436417,0.026031,-0.123534,-0.436417,0.751779,0.573152,-0.689962,1.795423,3.021791,-18.021098
1790548081.4234,0.020561,-0.120285,-0.428622,0.022202,-0.121260,-0.428622,-0.504858,0.564653,-0.527267,-4.911974,0.865351,-10.996273
1790548081.4388,0.024191,-0.104960,-0.420670,0.023595,-0.109850,-0.420670,-1.069434,-0.015707,-0.492057,-4.183743,-0.547489,-10.608161
1790548081.4533,0.022529,-0.092782,-0.414321,0.022849,-0.097903,-0.414321,-0.992943,0.297541,-0.529695,-2.343999,-1.402628,-8.473546
1790548081.4679,0.010522,-0.076904,-0.424369,0.014220,-0.083203,-0.424369,-1.043937,0.879115,-0.481129,-0.274288,1.125611,-6.494175
1790548081.4826,-0.001020,-0.068134,-0.418965,0.003552,-0.072655,-0.418965,-0.754971,1.036954,-0.409495,-2.650623,-1.328269,-6.921098
1790548081.4978,-0.002942,-0.066178,-0.419640,-0.000994,-0.068121,-0.419640,-0.168541,0.295113,-0.324505,-3.378855,0.382011,-14.217602
1790548081.5117,-0.002735,-0.074852,-0.416005,-0.002212,-0.072833,-0.416005,0.558731,-0.007208,0.189077,-0.695896,-0.250049,-18.098721
1790548081.5254,-0.009734,-0.074342,-0.411617,-0.007478,-0.073889,-0.411617,0.003868,0.401958,0.586102,0.952207,1.534591,-9.521448
1790548081.5399,-0.014217,-0.078783,-0.402757,-0.012195,-0.077315,-0.402757,0.221199,0.275687,0.571532,-0.120976,-0.398769,-8.784035
1790548081.5544,-0.016623,-0.082565,-0.394121,-0.015295,-0.080990,-0.394121,0.329258,0.331537,0.257069,-2.343999,1.571771,-7.503266
1790548081.5685,-0.032764,-0.090483,-0.396421,-0.027523,-0.087635,-0.396421,0.550232,1.009029,0.340845,2.255358,0.679451,-10.375294
1790548081.5829,-0.041151,-0.100950,-0.390299,-0.037063,-0.096955,-0.390299,0.763921,0.563438,0.451332,0.300631,1.720491,-11.656063
1790548081.5965,-0.051870,-0.106673,-0.384785,-0.047428,-0.103758,-0.384785,0.522306,0.738275,0.556962,0.798895,2.761531,-10.452916
1790548081.6102,-0.057603,-0.110557,-0.375312,-0.054550,-0.108517,-0.375312,0.332900,0.456594,0.661378,-0.580912,1.832031,-9.754315
1790548081.6242,-0.062282,-0.116867,-0.366547,-0.059963,-0.114362,-0.366547,0.432460,0.329109,0.612813,0.185647,0.716631,-9.366203
1790548081.6380,-0.054836,-0.122701,-0.356793,-0.056374,-0.120199,-0.356793,0.406963,-0.541431,0.649237,0.147319,1.088431,-13.635434
1790548081.6520,-0.046286,-0.119148,-0.349146,-0.049313,-0.119463,-0.349146,-0.281456,-0.696841,0.570318,1.757095,0.605091,-12.238231
1790548081.6660,-0.042538,-0.114200,-0.344617,-0.044570,-0.115779,-0.344617,-0.480575,-0.444300,0.603100,2.945262,-1.216729,-10.181238
1790548081.6799,-0.038919,-0.106567,-0.342514,-0.040614,-0.109330,-0.342514,-0.654197,-0.477081,0.476829,3.098574,-0.807749,-8.434735
1790548081.6938,-0.029860,-0.095119,-0.342514,-0.033086,-0.099383,-0.342514,-0.856959,-0.832825,0.252213,2.485326,0.270471,-8.318301
1790548081.7078,-0.022785,-0.081150,-0.345847,-0.025876,-0.086620,-0.345847,-1.012369,-0.762405,0.142940,4.133430,0.605091,-9.133336
1790548081.7218,-0.011571,-0.067428,-0.352046,-0.015863,-0.073186,-0.352046,-0.921309,-1.035587,0.042166,3.750150,1.832031,-9.094525
1790548081.7357,-0.018176,-0.071723,-0.344650,-0.017482,-0.072162,-0.344650,0.194488,0.349749,-0.156953,3.328542,-1.216729,-13.014455
1790548081.7497,-0.029792,-0.074706,-0.361806,-0.026099,-0.073943,-0.361806,0.351112,1.027241,-0.660822,-1.845736,2.687171,-9.210958
1790548081.7636,-0.016226,-0.073964,-0.368020,-0.019188,-0.073957,-0.368020,-0.067767,-0.820684,-0.872083,-1.040848,0.382011,-9.366203
1790548081.7776,-0.014613,-0.075245,-0.382623,-0.015986,-0.074859,-0.382623,0.173848,-0.212398,-0.498127,1.872079,1.571771,-7.386832
1790548081.7917,-0.007731,-0.086349,-0.383286,-0.010207,-0.082902,-0.383286,0.739638,-0.446728,-0.445919,-0.005993,-0.026969,-9.715504
1790548081.8061,0.005158,-0.094338,-0.403966,0.000548,-0.090907,-0.403966,0.682573,-0.773332,-0.836873,-1.040848,2.575631,-9.016902
1790548081.8198,0.013080,-0.101640,-0.422733,0.009320,-0.098420,-0.422733,0.613367,-0.600924,-0.980142,1.220503,1.980751,-9.637881
1790548081.8335,0.014804,-0.107702,-0.434937,0.013159,-0.104918,-0.434937,0.479811,-0.213613,-0.881796,1.833751,1.199971,-8.551168
1790548081.8476,0.024528,-0.116610,-0.443042,0.021117,-0.113102,-0.443042,0.591512,-0.661631,-0.816233,-0.044320,0.084571,-9.676693
1790548081.8615,0.022536,-0.129614,-0.459502,0.022110,-0.124661,-0.459502,1.044387,0.115420,-0.476273,0.607255,2.464091,-10.685784
1790548081.8755,0.008985,-0.130349,-0.463462,0.012922,-0.128642,-0.463462,0.050005,0.860903,-0.619541,2.791950,0.753811,-13.907112
1790548081.8895,0.008674,-0.118192,-0.465554,0.009948,-0.121327,-0.465554,-0.931022,0.225907,-0.668107,-3.877119,-0.547489,-12.471098
1790548081.9036,0.006471,-0.106244,-0.456130,0.007514,-0.110769,-0.456130,-1.019654,0.310897,-0.651109,-1.424128,-1.439808,-6.727042
1790548081.9181,0.000295,-0.094363,-0.440687,0.002461,-0.099285,-0.440687,-1.076719,0.619289,-0.476273,-1.807408,-2.406488,-6.106063
1790548081.9321,-0.006379,-0.080410,-0.443615,-0.003727,-0.086073,-0.443615,-1.107072,0.704279,-0.597687,-2.343999,-0.844929,-7.852567
1790548081.9461,-0.019792,-0.067268,-0.449825,-0.014972,-0.072910,-0.449825,-0.938307,1.123158,-0.478701,-1.385800,0.753811,-8.240679
1790548081.9600,-0.013874,-0.076361,-0.449992,-0.014204,-0.075325,-0.449992,0.528377,-0.250037,-0.271083,-3.762135,-1.997508,-15.847672
1790548081.9739,-0.013388,-0.079191,-0.446329,-0.013633,-0.078031,-0.446329,0.232126,-0.001138,0.203647,-0.695896,1.348691,-9.793126
1790548081.9880,-0.014738,-0.077555,-0.441235,-0.014406,-0.077698,-0.441235,-0.027700,0.106921,0.518110,-0.580912,1.832031,-7.348021
1790548082.0021,-0.009434,-0.080783,-0.436648,-0.010925,-0.079858,-0.436648,0.117997,-0.439443,0.406409,0.492271,-0.882109,-9.599070
1790548082.0159,-0.015422,-0.084323,-0.436225,-0.014073,-0.082983,-0.436225,0.222413,0.341250,0.304421,0.683911,0.158931,-5.446273
1790548082.0298,-0.024253,-0.089676,-0.433682,-0.021199,-0.087668,-0.433682,0.386322,0.575580,0.356629,0.645583,0.753811,-8.551168
1790548082.0442,-0.033945,-0.097159,-0.432698,-0.030121,-0.094312,-0.432698,0.598797,0.622931,0.435548,0.722239,2.203831,-10.064805
1790548082.0582,-0.046520,-0.100848,-0.435879,-0.041600,-0.098887,-0.435879,0.416676,0.828121,0.519324,0.798895,2.761531,-7.580888
1790548082.0719,-0.051881,-0.105196,-0.431999,-0.048797,-0.103303,-0.431999,0.414248,0.404386,0.604314,-0.235960,2.129471,-8.007811
1790548082.0858,-0.056886,-0.111008,-0.425679,-0.054459,-0.108696,-0.425679,0.426389,0.330323,0.544821,0.568927,1.088431,-9.831937
1790548082.0997,-0.056446,-0.114325,-0.422887,-0.055850,-0.112636,-0.422887,0.341399,0.000076,0.481685,-0.389272,2.761531,-10.336483
1790548082.1136,-0.046450,-0.113286,-0.414624,-0.049270,-0.113091,-0.414624,-0.106619,-0.651918,0.649237,-1.500784,0.716631,-12.665154
1790548082.1275,-0.036888,-0.108605,-0.405959,-0.040602,-0.109951,-0.405959,-0.413797,-0.803686,0.469544,2.178703,-0.435949,-11.888930
1790548082.1414,-0.034682,-0.101287,-0.398040,-0.036458,-0.103886,-0.398040,-0.623844,-0.398162,0.393053,3.673494,-0.733389,-8.900469
1790548082.1554,-0.026259,-0.090729,-0.391667,-0.029319,-0.094676,-0.391667,-0.886099,-0.821898,0.191505,2.600310,-0.956469,-6.765853
1790548082.1693,-0.015429,-0.076441,-0.396488,-0.019596,-0.081911,-0.396488,-0.985658,-1.018589,0.155081,2.868606,1.088431,-6.843476
1790548082.1833,-0.002941,-0.061716,-0.400096,-0.007938,-0.067774,-0.400096,-1.018440,-1.107221,-0.028254,2.791950,1.199971,-7.425644
1790548082.1973,-0.018975,-0.067694,-0.400086,-0.015664,-0.067718,-0.400086,0.365682,1.061237,-0.337861,3.558510,-0.101329,-15.925294
1790548082.2112,-0.029935,-0.070341,-0.426246,-0.025653,-0.069554,-0.426246,0.340185,0.909469,-0.855085,-0.350944,3.876931,-13.053266
1790548082.2251,-0.018343,-0.068200,-0.438283,-0.020536,-0.068606,-0.438283,-0.126046,-0.710197,-0.874511,-0.580912,1.311511,-11.966553
1790548082.2390,-0.018526,-0.070272,-0.446123,-0.019129,-0.069772,-0.446123,0.207844,-0.124980,-0.476273,2.293686,1.237151,-6.843476
1790548082.2529,-0.014683,-0.080031,-0.451394,-0.016017,-0.076953,-0.451394,0.699571,-0.192972,-0.445919,-0.542584,0.679451,-9.405014
1790548082.2672,0.004628,-0.091420,-0.460862,-0.001566,-0.087080,-0.460862,0.795488,-1.159429,-0.817447,-2.458983,0.679451,-10.608161
1790548082.2813,0.015549,-0.097308,-0.483743,0.010415,-0.094240,-0.483743,0.524735,-0.732051,-0.942503,0.262303,2.352551,-8.939280
1790548082.2954,0.019040,-0.102142,-0.500123,0.016452,-0.099771,-0.500123,0.400892,-0.268249,-0.910936,0.990535,1.608951,-8.745224
1790548082.3097,0.027999,-0.108403,-0.517716,0.024535,-0.105813,-0.517716,0.493167,-0.613065,-0.873297,0.338959,1.646131,-9.094525
1790548082.3239,0.018641,-0.116902,-0.512833,0.020409,-0.113575,-0.512833,0.493167,0.601077,-0.770095,2.408670,-1.365448,-16.352217
1790548082.3379,0.003409,-0.110868,-0.531060,0.008509,-0.111680,-0.531060,-0.384658,1.192364,-0.702103,-1.922392,2.203831,-16.158161
1790548082.3518,0.007012,-0.100356,-0.535673,0.007461,-0.103753,-0.535673,-0.814464,0.008575,-0.692390,-5.755190,-0.435949,-14.139979
1790548082.3659,0.005081,-0.091704,-0.506069,0.005795,-0.095319,-0.506069,-0.940735,0.395887,-0.575832,-1.960720,-2.443668,-4.437182
1790548082.3799,-0.000309,-0.079576,-0.508462,0.001522,-0.084299,-0.508462,-1.040295,0.597434,-0.417994,-1.769080,-1.253909,-5.679140
1790548082.3939,-0.010753,-0.065795,-0.516187,-0.007070,-0.071346,-0.516187,-0.972303,0.875473,-0.470202,-1.002520,0.902531,-7.891378
1790548082.4078,-0.021415,-0.053407,-0.526094,-0.017112,-0.058789,-0.526094,-0.850888,0.964105,-0.473844,-2.229015,1.608951,-10.025993
1790548082.4218,-0.014188,-0.060800,-0.528251,-0.015065,-0.060197,-0.528251,0.404535,-0.379950,-0.256513,-3.685479,-2.369308,-21.281238
1790548082.4358,-0.013023,-0.061374,-0.524573,-0.013636,-0.061021,-0.524573,0.011153,-0.154120,0.308063,1.105519,0.902531,-14.838581
1790548082.4497,-0.015488,-0.060568,-0.517851,-0.014932,-0.060704,-0.517851,-0.041056,0.071711,0.620098,0.645583,1.125611,-7.736133
1790548082.4635,-0.013437,-0.063952,-0.515333,-0.013885,-0.062978,-0.515333,0.255195,0.081424,0.340845,-3.915447,1.088431,-8.473546
1790548082.4774,-0.018640,-0.069968,-0.512558,-0.017214,-0.067871,-0.512558,0.380252,0.400743,0.220645,-0.542584,0.121751,-9.637881
1790548082.4914,-0.027295,-0.079331,-0.507673,-0.024271,-0.075893,-0.507673,0.674074,0.629002,0.338417,-0.389272,1.125611,-10.841028
1790548082.5052,-0.037835,-0.086802,-0.501020,-0.033766,-0.083529,-0.501020,0.591512,0.681210,0.577603,0.952207,1.906391,-9.909560
1790548082.5189,-0.047039,-0.088470,-0.492743,-0.043057,-0.086987,-0.492743,0.281906,0.690923,0.729370,-0.504256,2.873071,-7.153965
1790548082.5324,-0.047800,-0.091577,-0.484027,-0.046377,-0.090200,-0.484027,0.202987,0.123919,0.747582,-1.232488,0.716631,-8.085434
1790548082.5465,-0.055118,-0.097986,-0.474240,-0.052496,-0.095651,-0.474240,0.414248,0.427455,0.743940,1.067191,0.493551,-8.551168
1790548082.5606,-0.061365,-0.103140,-0.463287,-0.058704,-0.100893,-0.463287,0.357183,0.377675,0.756081,0.990535,1.237151,-10.646972
1790548082.5747,-0.050008,-0.107186,-0.454574,-0.052617,-0.105298,-0.454574,0.181132,-0.746621,0.796148,-2.037376,-0.621849,-15.614805
1790548082.5887,-0.038972,-0.100327,-0.447088,-0.043066,-0.101818,-0.447088,-0.518213,-0.886247,0.513253,1.833751,0.753811,-12.665154
1790548082.6027,-0.035236,-0.087549,-0.442403,-0.037585,-0.091830,-0.442403,-0.962589,-0.450370,0.487756,2.715294,0.196111,-9.405014
1790548082.6166,-0.032091,-0.073019,-0.443175,-0.033739,-0.078662,-0.443175,-1.161709,-0.509863,0.350558,3.328542,-0.659029,-6.804665
1790548082.6305,-0.019914,-0.058397,-0.441057,-0.024062,-0.064477,-0.441057,-1.104644,-1.036801,0.172079,2.255358,0.233291,-8.861658
1790548082.6444,-0.010659,-0.044444,-0.440419,-0.014680,-0.050454,-0.440419,-0.980802,-0.894746,0.271639,3.481854,1.571771,-9.831937
1790548082.6582,-0.020114,-0.051855,-0.437891,-0.018484,-0.051435,-0.437891,0.416676,0.627788,-0.088961,1.757095,-1.105189,-12.703965
1790548082.6722,-0.024896,-0.052430,-0.451927,-0.022972,-0.052132,-0.451927,0.172633,0.497875,-0.664465,-1.232488,3.505131,-11.267951
1790548082.6862,-0.014390,-0.050190,-0.457414,-0.016965,-0.050772,-0.457414,-0.170969,-0.546287,-0.697247,-2.114032,0.790991,-10.336483
1790548082.7001,-0.012778,-0.053918,-0.464556,-0.014034,-0.052974,-0.464556,0.251553,-0.042418,-0.583117,-0.005993,0.753811,-10.336483
1790548082.7140,-0.004594,-0.062876,-0.468510,-0.007426,-0.059906,-0.468510,0.614581,-0.444300,-0.523624,-1.232488,0.419191,-8.551168
1790548082.7280,0.009240,-0.074755,-0.476738,0.004240,-0.070300,-0.476738,0.853767,-0.831611,-0.784665,-1.424128,0.939711,-9.288581
1790548082.7417,0.016014,-0.081819,-0.496086,0.012482,-0.078363,-0.496086,0.640078,-0.565714,-1.004425,1.833751,2.352551,-7.386832
1790548082.7553,0.022777,-0.084165,-0.513948,0.019689,-0.082424,-0.513948,0.270979,-0.506221,-1.069988,1.220503,2.538451,-9.016902
1790548082.7691,0.027671,-0.089392,-0.528226,0.025276,-0.087302,-0.528226,0.370539,-0.333813,-1.038421,0.683911,1.051251,-9.870749
1790548082.7831,0.025222,-0.095478,-0.541318,0.025238,-0.093025,-0.541318,0.444601,0.241691,-0.825946,-0.427600,1.423051,-11.733686
1790548082.7973,0.010578,-0.094957,-0.552104,0.014976,-0.094377,-0.552104,-0.059268,1.104946,-0.696032,-0.657568,0.790991,-14.178791
1790548082.8116,0.009200,-0.084785,-0.559272,0.010933,-0.087662,-0.559272,-0.819321,0.354606,-0.755525,-3.647151,-1.030829,-9.793126
1790548082.8258,0.007232,-0.073199,-0.568330,0.008343,-0.077538,-0.568330,-0.955305,0.364319,-0.823517,-1.692424,-0.844929,-6.183686
1790548082.8397,-0.002901,-0.063482,-0.575727,0.000472,-0.067699,-0.575727,-0.878814,0.829336,-0.524838,-0.389272,-1.068009,-5.446273
1790548082.8537,-0.007765,-0.056563,-0.578246,-0.005294,-0.059904,-0.578246,-0.682123,0.705493,-0.619541,-5.103614,-2.518028,-9.249770
1790548082.8679,-0.004668,-0.055473,-0.583098,-0.004856,-0.056802,-0.583098,-0.197680,-0.018136,-0.466560,-4.145415,-1.737248,-16.313406
1790548082.8819,-0.001905,-0.058660,-0.585236,-0.002790,-0.058102,-0.585236,0.094928,-0.146835,0.076162,-1.232488,-1.402628,-12.277042
1790548082.8958,-0.007714,-0.060819,-0.582367,-0.006237,-0.060004,-0.582367,0.103427,0.332751,0.555748,0.530599,0.270471,-10.996273
1790548082.9098,-0.006346,-0.064281,-0.573818,-0.006313,-0.062998,-0.573818,0.324401,-0.196615,0.560605,0.607255,1.906391,-8.046623
1790548082.9236,-0.004548,-0.069411,-0.560525,-0.005077,-0.067487,-0.560525,0.409391,-0.042418,0.304421,-1.615768,1.348691,-8.589979
1790548082.9375,-0.017189,-0.074013,-0.564873,-0.013556,-0.072056,-0.564873,0.294048,0.796554,0.300778,1.833751,0.456371,-12.005364
1790548082.9515,-0.025424,-0.082049,-0.558535,-0.021864,-0.079051,-0.558535,0.555088,0.561010,0.485328,0.070663,0.790991,-12.238231
1790548082.9654,-0.039451,-0.090000,-0.553041,-0.034175,-0.086715,-0.553041,0.606082,0.862117,0.747582,1.757095,1.497411,-8.978091
1790548082.9790,-0.052054,-0.093775,-0.537543,-0.046690,-0.091657,-0.537543,0.406963,0.886400,0.745154,0.262303,2.464091,-7.231588
1790548082.9926,-0.057754,-0.101484,-0.523837,-0.054435,-0.098536,-0.523837,0.541733,0.486947,0.694160,-1.002520,0.642271,-7.969000
1790548083.0066,-0.063098,-0.108665,-0.514174,-0.060499,-0.105626,-0.514174,0.479811,0.403172,0.575174,-0.389272,0.790991,-14.877392
1790548083.0205,-0.058003,-0.111833,-0.504080,-0.058752,-0.109971,-0.504080,0.217557,-0.456441,0.730585,2.102047,1.646131,-14.528091
1790548083.0346,-0.049067,-0.107034,-0.497544,-0.051972,-0.107915,-0.497544,-0.412583,-0.657989,0.553320,0.415615,-0.101329,-13.014455
1790548083.0488,-0.047193,-0.101839,-0.508057,-0.048627,-0.103662,-0.508057,-0.558280,-0.310744,0.505968,2.370342,-1.848788,-7.852567
1790548083.0634,-0.045199,-0.091013,-0.516340,-0.046227,-0.094808,-0.516340,-0.844818,-0.434586,0.447689,3.711822,-0.547489,-6.649420
1790548083.0776,-0.034386,-0.076200,-0.516197,-0.037938,-0.081782,-0.516197,-1.068220,-0.959096,0.431906,2.561982,0.605091,-8.163056
1790548083.0916,-0.022730,-0.061470,-0.513255,-0.027293,-0.067564,-0.513255,-1.088860,-1.163072,0.356629,4.555037,0.493551,-8.046623
1790548083.1056,-0.019461,-0.056936,-0.514345,-0.021810,-0.060124,-0.514345,-0.288741,-0.480724,0.326275,3.558510,1.646131,-9.055714
1790548083.1194,-0.033774,-0.069536,-0.510166,-0.030185,-0.066712,-0.510166,0.794274,0.978675,-0.070749,1.948735,-1.328269,-13.053266
1790548083.1332,-0.030705,-0.069880,-0.507723,-0.030549,-0.068929,-0.507723,0.124068,0.024359,-0.781022,-3.187215,2.798711,-12.277042
1790548083.1472,-0.029500,-0.071178,-0.522396,-0.029815,-0.070504,-0.522396,0.080359,-0.139550,-0.755525,2.906934,0.419191,-12.277042
1790548083.1610,-0.023852,-0.074449,-0.533944,-0.025641,-0.073266,-0.533944,0.260052,-0.488009,-0.431349,2.217030,1.125611,-10.297672
1790548083.1749,-0.012297,-0.083863,-0.530067,-0.016300,-0.080684,-0.530067,0.654648,-0.691984,-0.468988,-1.577440,0.382011,-10.452916
1790548083.1888,0.000544,-0.094426,-0.535400,-0.004509,-0.090303,-0.535400,0.844054,-0.792758,-0.641396,-1.309144,1.757671,-8.706413
1790548083.2024,0.009538,-0.098039,-0.554332,0.005324,-0.095718,-0.554332,0.465242,-0.644633,-0.856299,0.377287,2.724351,-6.455364
1790548083.2160,0.014503,-0.102028,-0.571447,0.011749,-0.100135,-0.571447,0.359611,-0.359310,-0.946146,0.683911,1.794851,-9.521448
1790548083.2299,0.019204,-0.108810,-0.585493,0.016968,-0.106207,-0.585493,0.512593,-0.313172,-0.855085,0.185647,1.125611,-9.521448
1790548083.2439,0.011637,-0.116409,-0.591735,0.013236,-0.113349,-0.591735,0.427603,0.562224,-0.923077,0.453943,-1.439808,-12.587532
1790548083.2579,0.009713,-0.111643,-0.589558,0.010770,-0.112155,-0.589558,-0.410155,0.324252,-0.686319,-3.685479,-0.696209,-13.829490
1790548083.2717,0.008381,-0.103404,-0.581940,0.009098,-0.106029,-0.581940,-0.758614,0.306040,-0.645038,-2.957247,-2.034688,-9.909560
1790548083.2856,0.006096,-0.092166,-0.578584,0.006996,-0.096325,-0.578584,-0.945591,0.378889,-0.556406,-2.075704,-1.068009,-6.804665
1790548083.2998,0.001139,-0.077902,-0.578146,0.002896,-0.083429,-0.578146,-1.047579,0.553725,-0.499341,-2.305671,0.158931,-8.279490
1790548083.3143,-0.001996,-0.068449,-0.581497,-0.000528,-0.072943,-0.581497,-0.819321,0.455380,-0.357287,-3.455511,-2.034688,-9.055714
1790548083.3283,-0.009823,-0.054060,-0.577799,-0.007035,-0.059725,-0.577799,-1.033010,0.730990,-0.248014,-2.458983,0.976891,-10.685784
1790548083.3424,-0.001015,-0.054574,-0.576243,-0.002821,-0.056119,-0.576243,-0.058054,-0.569356,0.081018,-1.884064,-0.770569,-16.235784
1790548083.3564,-0.006169,-0.058980,-0.589833,-0.005165,-0.058122,-0.589833,0.244268,0.120277,0.703873,3.788478,-0.101329,-13.480189
1790548083.3705,-0.011044,-0.060426,-0.580572,-0.009280,-0.059735,-0.580572,0.375395,0.170056,1.021979,1.067191,4.694891,-6.959909
1790548083.3844,-0.007802,-0.061515,-0.552187,-0.008246,-0.060981,-0.552187,0.218771,0.094780,0.504754,-3.493839,1.757671,-4.204315
1790548083.3984,-0.016146,-0.065502,-0.550170,-0.013776,-0.064145,-0.550170,0.263694,0.514873,0.430691,0.760567,0.679451,-9.366203
1790548083.4124,-0.029810,-0.075621,-0.553873,-0.025000,-0.072178,-0.553873,0.716569,0.830550,0.367556,2.906934,1.199971,-13.130889
1790548083.4262,-0.044523,-0.083355,-0.547452,-0.038666,-0.080002,-0.547452,0.710498,0.915540,0.662593,1.603783,2.947431,-7.503266
1790548083.4398,-0.058538,-0.089826,-0.536448,-0.052576,-0.086879,-0.536448,0.551446,0.993245,0.694160,0.377287,2.278191,-9.133336
1790548083.4534,-0.067423,-0.098580,-0.526326,-0.062969,-0.095070,-0.526326,0.637650,0.624146,0.685661,0.300631,0.976891,-7.969000
1790548083.4673,-0.070377,-0.106095,-0.515485,-0.068155,-0.102788,-0.515485,0.699571,0.276901,0.556962,-0.849208,3.356411,-8.318301
1790548083.4813,-0.064778,-0.112967,-0.509903,-0.065791,-0.109913,-0.509903,0.366896,-0.362952,0.700231,-0.887536,-0.993649,-13.480189
1790548083.4952,-0.052123,-0.108383,-0.501748,-0.056223,-0.108842,-0.501748,-0.391943,-0.904459,0.609170,-0.197632,0.233291,-13.363756
1790548083.5094,-0.050927,-0.100866,-0.513198,-0.052516,-0.103259,-0.513198,-0.700335,-0.392091,0.589744,5.321597,-1.923148,-9.172147
1790548083.5249,-0.046720,-0.088941,-0.513468,-0.048459,-0.093236,-0.513468,-0.910381,-0.507435,0.446475,3.903462,-1.439808,-8.512357
1790548083.5397,-0.037597,-0.074411,-0.513197,-0.040856,-0.080058,-0.513197,-1.006299,-0.846181,0.286209,3.635166,0.642271,-8.706413
1790548083.5548,-0.025762,-0.058435,-0.510068,-0.030290,-0.064922,-0.510068,-1.056078,-1.086581,0.299564,3.865134,0.902531,-6.688231
1790548083.5693,-0.017543,-0.046675,-0.509453,-0.021367,-0.052149,-0.509453,-0.769541,-0.745407,0.278924,2.791950,2.055111,-10.142427
1790548083.5844,-0.034108,-0.057089,-0.513353,-0.030286,-0.055607,-0.513353,0.659504,1.097661,-0.235873,1.680439,0.865351,-19.845224
1790548083.5983,-0.029677,-0.060872,-0.522940,-0.029860,-0.059293,-0.522940,0.374181,-0.143192,-0.757954,-1.654096,2.873071,-12.199420
1790548083.6121,-0.023527,-0.059668,-0.532023,-0.025427,-0.059556,-0.532023,-0.081122,-0.547502,-0.699675,2.063719,0.567911,-6.455364
1790548083.6262,-0.017450,-0.061586,-0.539265,-0.019843,-0.060977,-0.539265,0.204201,-0.396948,-0.314792,0.070663,1.385871,-6.649420
1790548083.6402,-0.013011,-0.073048,-0.542352,-0.015061,-0.069426,-0.542352,0.811272,-0.200257,-0.472630,-0.964192,0.567911,-8.939280
1790548083.6542,0.005099,-0.082450,-0.550474,-0.000949,-0.078543,-0.550474,0.761492,-1.110864,-0.689962,-1.615768,1.794851,-7.464455
1790548083.6678,0.014292,-0.086231,-0.564711,0.009719,-0.083925,-0.564711,0.394821,-0.700483,-0.845372,1.105519,2.352551,-8.163056
1790548083.6815,0.012432,-0.088089,-0.576772,0.011618,-0.086840,-0.576772,0.167777,0.087495,-0.878154,1.603783,1.348691,-8.939280
1790548083.6955,0.021260,-0.092216,-0.590318,0.018367,-0.090603,-0.590318,0.314688,-0.480724,-0.903651,-1.615768,1.274331,-9.831937
1790548083.7095,0.017374,-0.098756,-0.602124,0.017672,-0.096310,-0.602124,0.573300,0.306040,-0.541836,-0.005993,2.575631,-9.831937
1790548083.7233,0.003907,-0.096568,-0.609709,0.008036,-0.096490,-0.609709,-0.141829,0.960463,-0.498127,1.105519,1.646131,-15.653616
1790548083.7374,-0.000117,-0.083798,-0.614730,0.002329,-0.087606,-0.614730,-0.932236,0.533085,-0.578261,-4.183743,0.493551,-11.733686
1790548083.7513,-0.002082,-0.073418,-0.614871,-0.000759,-0.077674,-0.614871,-0.890955,0.352178,-0.601329,-2.497311,-1.439808,-9.327392
1790548083.7652,-0.010587,-0.060391,-0.621567,-0.007639,-0.065576,-0.621567,-0.916452,0.737061,-0.393711,-0.772552,0.753811,-5.834385
1790548083.7792,-0.017324,-0.048045,-0.622834,-0.014418,-0.053304,-0.622834,-0.974731,0.739489,-0.374285,-2.305671,-0.361589,-6.532986
1790548083.7931,-0.023323,-0.038147,-0.626858,-0.020652,-0.042695,-0.626858,-0.734331,0.539156,-0.249228,-0.925864,0.753811,-9.443825
1790548083.8073,-0.009726,-0.043338,-0.623889,-0.013004,-0.043145,-0.623889,0.247910,-0.910530,0.093160,-1.539112,-1.105189,-15.459560
1790548083.8218,-0.015721,-0.047723,-0.614469,-0.014906,-0.046349,-0.614469,0.297690,0.217408,0.723300,2.715294,1.571771,-12.820399
1790548083.8359,-0.018288,-0.050628,-0.603897,-0.017273,-0.049344,-0.603897,0.179918,0.077782,0.784007,0.453943,0.976891,-10.724595
1790548083.8499,-0.023782,-0.056222,-0.599970,-0.021830,-0.054159,-0.599970,0.422747,0.316968,0.331132,0.645583,1.162791,-7.231588
1790548083.8638,-0.038116,-0.063332,-0.597705,-0.033230,-0.060580,-0.597705,0.506522,0.868188,0.265568,2.791950,1.051251,-10.181238
1790548083.8779,-0.051243,-0.073090,-0.592910,-0.045839,-0.069337,-0.592910,0.688644,0.854833,0.456188,1.182175,1.051251,-9.831937
1790548083.8916,-0.064080,-0.082087,-0.586061,-0.058608,-0.078262,-0.586061,0.745708,0.836620,0.645595,1.412143,2.798711,-9.676693
1790548083.9052,-0.074845,-0.086769,-0.577952,-0.069974,-0.084217,-0.577952,0.402106,0.721277,0.733013,0.837223,2.129471,-8.473546
1790548083.9191,-0.077030,-0.094258,-0.569105,-0.074913,-0.091246,-0.569105,0.535662,0.251404,0.682019,-1.309144,1.199971,-7.891378
1790548083.9329,-0.079991,-0.106036,-0.560667,-0.078467,-0.101599,-0.560667,0.869551,0.133632,0.569104,1.757095,1.832031,-11.384385
1790548083.9469,-0.073058,-0.110296,-0.550515,-0.074681,-0.107687,-0.550515,0.223627,-0.534146,0.669877,1.067191,0.121751,-14.993826
1790548083.9609,-0.064985,-0.104520,-0.542520,-0.067894,-0.105470,-0.542520,-0.479361,-0.577855,0.546035,0.108991,0.158931,-9.443825
1790548083.9748,-0.064211,-0.095544,-0.524716,-0.065316,-0.098521,-0.524716,-0.803537,-0.313172,0.610384,3.865134,-1.216729,-8.434735
1790548083.9887,-0.060478,-0.084523,-0.510193,-0.061930,-0.088722,-0.510193,-0.965018,-0.546287,0.495041,3.558510,-1.253909,-7.037532
1790548084.0027,-0.047050,-0.070131,-0.501949,-0.051514,-0.075708,-0.501949,-1.104644,-1.092651,0.400338,1.795423,0.121751,-8.900469
1790548084.0166,-0.036222,-0.056495,-0.498828,-0.040810,-0.062259,-0.498828,-0.990515,-1.056227,0.448904,3.213558,0.865351,-7.115154
1790548084.0305,-0.031654,-0.050752,-0.496310,-0.034401,-0.054204,-0.496310,-0.399228,-0.503792,0.390625,2.025391,1.274331,-8.007811
1790548084.0448,-0.048731,-0.061209,-0.507625,-0.044432,-0.059108,-0.507625,0.834341,1.021170,-0.076820,4.708349,3.096151,-11.500819
1790548084.0591,-0.042133,-0.060499,-0.524943,-0.042823,-0.060081,-0.524943,0.080359,-0.299817,-0.624398,-1.654096,3.505131,-12.548721
1790548084.0729,-0.033741,-0.060850,-0.527482,-0.036466,-0.060620,-0.527482,0.001439,-0.580283,-0.560049,0.875551,0.419191,-10.996273
1790548084.0866,-0.024696,-0.067744,-0.525684,-0.028227,-0.065607,-0.525684,0.474955,-0.660417,-0.155739,0.300631,0.344831,-7.153965
1790548084.1006,-0.020069,-0.083339,-0.527659,-0.022517,-0.078019,-0.527659,1.095381,-0.280390,-0.323291,-0.159304,0.419191,-9.443825
1790548084.1146,0.000029,-0.094778,-0.537895,-0.006735,-0.089751,-0.537895,0.880478,-1.222565,-0.596473,-2.650623,1.534591,-8.939280
1790548084.1282,0.009483,-0.099077,-0.553237,0.004617,-0.096279,-0.553237,0.425175,-0.750263,-0.779808,1.718767,2.612811,-10.452916
1790548084.1418,0.011673,-0.103831,-0.563808,0.009556,-0.101566,-0.563808,0.393607,-0.220897,-0.725172,1.833751,1.683311,-11.345574
1790548084.1558,0.019889,-0.109539,-0.580624,0.016789,-0.107147,-0.580624,0.460385,-0.507435,-0.811376,-0.772552,1.571771,-9.948371
1790548084.1697,0.008270,-0.117224,-0.575772,0.010825,-0.114201,-0.575772,0.461599,0.738275,-0.566119,2.561982,-0.956469,-13.014455
1790548084.1838,-0.005516,-0.116012,-0.586165,-0.000614,-0.115469,-0.586165,-0.072623,1.095233,-0.495699,-2.535639,1.237151,-17.555364
1790548084.1977,-0.003734,-0.105015,-0.590280,-0.002798,-0.108151,-0.590280,-0.816892,0.172485,-0.529695,-6.521750,0.121751,-13.169700
1790548084.2117,-0.005231,-0.094448,-0.575737,-0.004501,-0.098559,-0.575737,-0.999014,0.416527,-0.465345,-3.110559,-2.332128,-5.640329
1790548084.2256,-0.013109,-0.082213,-0.574437,-0.010527,-0.087117,-0.574437,-1.059721,0.665426,-0.274725,-0.734224,-1.439808,-6.106063
1790548084.2396,-0.021299,-0.067604,-0.580793,-0.018068,-0.073458,-0.580793,-1.024511,0.796554,-0.414351,-2.075704,0.976891,-7.774944
1790548084.2535,-0.032694,-0.056912,-0.586689,-0.028306,-0.061875,-0.586689,-0.775612,1.005386,-0.399782,-1.615768,0.530731,-7.736133
1790548084.2675,-0.028090,-0.058995,-0.589023,-0.028155,-0.059859,-0.589023,0.054862,-0.112839,-0.176380,-4.337055,-0.919289,-13.674245
1790548084.2815,-0.026906,-0.063764,-0.585262,-0.027281,-0.062593,-0.585262,0.216343,-0.063059,0.362699,-0.925864,-1.142369,-12.548721
1790548084.2953,-0.032823,-0.062836,-0.578635,-0.031161,-0.062763,-0.578635,-0.081122,0.325467,0.618883,1.105519,1.199971,-11.229140
1790548084.3095,-0.034806,-0.068593,-0.569343,-0.033712,-0.066844,-0.569343,0.340185,0.187054,0.541178,-0.964192,0.084571,-7.270399
1790548084.3240,-0.042067,-0.077006,-0.567714,-0.039561,-0.073957,-0.567714,0.578157,0.420170,0.301992,1.335487,1.014071,-9.870749
1790548084.3381,-0.053797,-0.088116,-0.564939,-0.049526,-0.083868,-0.564939,0.797917,0.754059,0.367556,1.488799,1.311511,-10.918651
1790548084.3517,-0.065613,-0.095225,-0.556008,-0.060787,-0.091818,-0.556008,0.595155,0.888828,0.518110,-0.235960,2.203831,-9.443825
1790548084.3656,-0.077896,-0.101760,-0.545539,-0.072763,-0.098778,-0.545539,0.542947,0.837835,0.713587,0.760567,2.315371,-8.822846
1790548084.3796,-0.082812,-0.109963,-0.535446,-0.079798,-0.106607,-0.535446,0.521092,0.415313,0.697803,-0.887536,0.382011,-9.366203
1790548084.3936,-0.077969,-0.114647,-0.523302,-0.078517,-0.112235,-0.523302,0.402106,-0.371451,0.665021,0.683911,2.835891,-11.035084
1790548084.4076,-0.067350,-0.118232,-0.516174,-0.070700,-0.116433,-0.516174,0.173848,-0.758762,0.558176,0.300631,-0.212869,-12.471098
1790548084.4215,-0.063615,-0.112492,-0.515714,-0.065741,-0.113675,-0.515714,-0.537640,-0.464940,0.514467,3.980118,-1.142369,-11.112707
1790548084.4354,-0.065192,-0.102528,-0.515552,-0.065356,-0.105872,-0.515552,-0.872743,-0.151691,0.604314,4.746677,-1.514168,-9.754315
1790548084.4493,-0.064140,-0.090300,-0.513921,-0.064505,-0.094971,-0.513921,-1.014798,-0.275534,0.374841,3.635166,-1.216729,-9.870749
1790548084.4632,-0.054468,-0.076093,-0.515231,-0.057479,-0.081756,-0.515231,-1.077933,-0.912958,0.202433,3.481854,0.196111,-8.784035
1790548084.4771,-0.049003,-0.061198,-0.517287,-0.051546,-0.067366,-0.517287,-1.091289,-0.749049,0.227930,5.589893,0.679451,-7.774944
1790548084.4910,-0.035039,-0.048065,-0.518577,-0.039991,-0.053855,-0.518577,-0.909167,-1.143645,0.207289,2.102047,1.794851,-9.288581
1790548084.5049,-0.049037,-0.056851,-0.509101,-0.046323,-0.055952,-0.509101,0.494381,0.931323,0.045808,2.485326,-1.662888,-13.984735
1790548084.5188,-0.056827,-0.060490,-0.518360,-0.053676,-0.059129,-0.518360,0.388751,0.747988,-0.557620,-1.692424,2.873071,-10.879840
1790548084.5328,-0.047648,-0.059130,-0.531647,-0.049456,-0.059130,-0.531647,-0.010702,-0.741764,-0.476273,2.025391,1.608951,-7.425644
1790548084.5467,-0.043929,-0.064018,-0.533619,-0.045587,-0.062552,-0.533619,0.321973,-0.241538,-0.402210,0.568927,0.233291,-8.124245
1790548084.5607,-0.032583,-0.075436,-0.531101,-0.036484,-0.071571,-0.531101,0.788203,-0.661631,-0.450776,-1.270816,0.196111,-8.551168
1790548084.5752,-0.015509,-0.083529,-0.546618,-0.021802,-0.079941,-0.546618,0.706856,-1.126647,-0.591616,-0.044320,2.426911,-7.658511
1790548084.5889,-0.010700,-0.088451,-0.562695,-0.014030,-0.085898,-0.562695,0.454314,-0.398162,-0.722744,1.718767,2.055111,-9.249770
1790548084.6027,-0.006749,-0.091299,-0.580668,-0.008933,-0.089679,-0.580668,0.321973,-0.267035,-0.813804,0.683911,2.389731,-9.521448
1790548084.6166,0.001307,-0.095671,-0.594024,-0.001765,-0.093873,-0.594024,0.351112,-0.486794,-0.838087,-0.580912,1.199971,-9.637881
1790548084.6306,0.001334,-0.103727,-0.607325,0.000404,-0.100771,-0.607325,0.754207,0.043786,-0.379141,-0.350944,3.393591,-9.133336
1790548084.6444,-0.018003,-0.102944,-0.604805,-0.012481,-0.102292,-0.604805,-0.136973,1.358701,-0.408281,1.680439,-0.919289,-13.092077
1790548084.6585,-0.019031,-0.090094,-0.603469,-0.017066,-0.093753,-0.603469,-0.890955,0.382531,-0.534552,-5.678534,1.125611,-11.578441
1790548084.6724,-0.019451,-0.080740,-0.598736,-0.018735,-0.084644,-0.598736,-0.822963,0.245333,-0.568548,-2.688951,-1.885968,-9.831937
1790548084.6862,-0.024515,-0.072348,-0.592687,-0.022781,-0.076037,-0.592687,-0.782896,0.638715,-0.379141,-2.382327,-1.439808,-5.950818
1790548084.7002,-0.034376,-0.059191,-0.597697,-0.030898,-0.064244,-0.597697,-0.933450,0.836620,-0.398568,-0.734224,0.605091,-6.455364
1790548084.7142,-0.043141,-0.048873,-0.601880,-0.039468,-0.053485,-0.601880,-0.669981,0.711564,-0.244372,-0.427600,1.980751,-9.327392
1790548084.7281,-0.031588,-0.055717,-0.598430,-0.033952,-0.055047,-0.598430,0.358397,-0.653132,0.039738,-4.298727,-1.700068,-14.916203
1790548084.7420,-0.030149,-0.056193,-0.591179,-0.031290,-0.055849,-0.591179,0.039078,-0.203899,0.559390,1.067191,1.646131,-11.229140
1790548084.7560,-0.033557,-0.061396,-0.580444,-0.032877,-0.059732,-0.580444,0.347470,0.160343,0.793720,0.338959,0.976891,-9.676693
1790548084.7699,-0.037664,-0.071961,-0.574401,-0.036228,-0.068292,-0.574401,0.627937,0.604719,0.343273,-2.190688,-0.510309,-3.466902
1790548084.7838,-0.051680,-0.076911,-0.573965,-0.047044,-0.074325,-0.573965,0.402106,0.864546,0.303206,2.255358,1.608951,-8.706413
1790548084.7978,-0.064357,-0.087327,-0.569484,-0.059163,-0.083426,-0.569484,0.749351,0.829336,0.436762,1.603783,1.385871,-11.539630
1790548084.8116,-0.075308,-0.096177,-0.559237,-0.070464,-0.092352,-0.559237,0.723854,0.764986,0.610384,0.492271,2.426911,-8.939280
1790548084.8256,-0.084198,-0.101744,-0.546641,-0.080078,-0.098927,-0.546641,0.442173,0.620503,0.757296,0.223975,2.575631,-10.724595
1790548084.8397,-0.088605,-0.106869,-0.535734,-0.086046,-0.104486,-0.535734,0.400892,0.316968,0.649237,0.185647,2.017931,-9.637881
1790548084.8538,-0.080745,-0.114127,-0.527776,-0.082335,-0.111235,-0.527776,0.445815,-0.577855,0.576388,0.798895,0.270471,-13.363756
1790548084.8678,-0.070276,-0.115022,-0.522755,-0.073893,-0.113886,-0.522755,0.006296,-0.746621,0.383340,0.453943,0.084571,-12.044175
1790548084.8817,-0.069068,-0.115228,-0.521379,-0.070516,-0.114825,-0.521379,-0.109048,-0.259750,0.435548,3.481854,-1.179549,-10.491728
1790548084.8958,-0.063936,-0.110537,-0.516145,-0.065910,-0.111824,-0.516145,-0.434438,-0.469796,0.508397,1.450471,-0.435949,-7.386832
1790548084.9099,-0.059584,-0.103113,-0.514975,-0.061482,-0.105726,-0.514975,-0.648127,-0.503792,0.365128,3.558510,-1.068009,-9.793126
1790548084.9237,-0.050290,-0.089534,-0.515076,-0.053648,-0.094391,-0.515076,-1.039080,-0.865607,0.202433,3.290214,-0.064149,-9.055714
1790548084.9377,-0.041450,-0.074233,-0.516456,-0.045109,-0.080281,-0.516456,-1.161709,-0.882605,0.089517,4.363398,-0.175689,-9.133336
1790548084.9516,-0.033016,-0.057884,-0.518509,-0.036644,-0.064603,-0.518509,-1.202990,-0.841324,0.049451,3.558510,0.567911,-8.201867
1790548084.9655,-0.038650,-0.056638,-0.523155,-0.038048,-0.059028,-0.523155,-0.112690,0.343679,-0.275939,2.178703,0.567911,-11.384385
1790548084.9796,-0.042186,-0.067988,-0.534184,-0.040945,-0.065300,-0.534184,0.904761,0.435954,-0.768881,-1.960720,2.984611,-14.605714
1790548084.9935,-0.027539,-0.071013,-0.550207,-0.031561,-0.069299,-0.550207,0.423961,-0.917815,-0.802877,-0.734224,3.467951,-8.318301
1790548085.0073,-0.033573,-0.076568,-0.555163,-0.032969,-0.074387,-0.555163,0.453100,0.235620,-0.404638,3.750150,1.311511,-8.007811
1790548085.0213,-0.020466,-0.086252,-0.560185,-0.024217,-0.082692,-0.560185,0.700785,-0.767261,-0.626826,-1.615768,0.567911,-8.667602
1790548085.0355,-0.002452,-0.095657,-0.573200,-0.008982,-0.091768,-0.573200,0.746923,-1.198282,-0.733671,-0.312616,1.646131,-8.357112
1790548085.0494,0.003710,-0.104715,-0.586960,-0.000097,-0.100831,-0.586960,0.778490,-0.530504,-0.743384,1.488799,1.832031,-6.455364
1790548085.0630,0.011863,-0.111335,-0.602132,0.008275,-0.108184,-0.602132,0.585442,-0.582712,-0.762810,0.223975,1.683311,-7.542077
1790548085.0776,0.026222,-0.119866,-0.616116,0.020838,-0.116361,-0.616116,0.626723,-0.916601,-0.721529,-0.657568,1.199971,-8.395923
1790548085.0916,-0.006466,-0.123832,-0.614098,0.001725,-0.121591,-0.614098,0.148351,2.338514,-0.583117,0.952207,-3.001368,-17.982287
1790548085.1056,-0.004751,-0.112481,-0.618565,-0.002808,-0.115214,-0.618565,-0.787753,0.231978,-0.683891,-7.058341,0.976891,-11.190329
1790548085.1195,-0.000728,-0.099948,-0.618741,-0.001352,-0.104528,-0.618741,-1.058507,-0.071558,-0.545479,-3.148887,-2.034688,-9.599070
1790548085.1336,-0.002786,-0.085451,-0.620191,-0.002356,-0.091174,-0.620191,-1.165351,0.290256,-0.365786,-1.385800,-1.142369,-6.921098
1790548085.1475,-0.005842,-0.067774,-0.624562,-0.004796,-0.074794,-0.624562,-1.277052,0.465093,-0.451990,-3.225543,0.865351,-9.288581
1790548085.1614,-0.019237,-0.054868,-0.632644,-0.014905,-0.060846,-0.632644,-1.023297,1.169295,-0.518768,-2.114032,-0.659029,-8.939280
1790548085.1753,-0.027183,-0.047398,-0.638238,-0.023500,-0.051433,-0.638238,-0.575278,0.845119,-0.512697,-3.302199,0.307651,-10.025993
1790548085.1893,-0.021174,-0.059816,-0.641420,-0.021872,-0.057301,-0.641420,0.854981,-0.457655,-0.125386,1.258831,0.716631,-14.760958
1790548085.2033,-0.025379,-0.062969,-0.637726,-0.024327,-0.061269,-0.637726,0.283120,0.291471,0.146582,0.223975,2.612811,-12.781588
1790548085.2172,-0.033310,-0.065019,-0.629813,-0.030615,-0.063894,-0.629813,0.175062,0.477234,0.569104,0.952207,1.757671,-10.181238
1790548085.2311,-0.035022,-0.071549,-0.622772,-0.033700,-0.069253,-0.622772,0.428817,0.214980,0.463473,-1.807408,0.456371,-9.405014
1790548085.2452,-0.043965,-0.079130,-0.617945,-0.040885,-0.076167,-0.617945,0.556302,0.604719,0.329918,0.568927,1.385871,-10.646972
1790548085.2591,-0.060054,-0.087312,-0.611293,-0.054303,-0.083969,-0.611293,0.623080,1.064879,0.479257,1.565455,1.720491,-10.103616
1790548085.2725,-0.070851,-0.095667,-0.602290,-0.065886,-0.092158,-0.602290,0.704428,0.797768,0.467116,0.223975,2.203831,-8.822846
1790548085.2861,-0.082570,-0.101812,-0.593027,-0.077565,-0.098916,-0.593027,0.513807,0.824479,0.518110,0.875551,2.129471,-9.560259
1790548085.3001,-0.086208,-0.110257,-0.584530,-0.083615,-0.106855,-0.584530,0.587870,0.289042,0.609170,-0.235960,1.311511,-12.160609
1790548085.3144,-0.081534,-0.113006,-0.574624,-0.082158,-0.111161,-0.574624,0.159278,-0.379950,0.604314,1.412143,1.014071,-12.160609
1790548085.3289,-0.071265,-0.109791,-0.568512,-0.074533,-0.110202,-0.568512,-0.280242,-0.702912,0.475615,0.185647,0.270471,-12.044175
1790548085.3429,-0.067786,-0.107579,-0.565219,-0.069810,-0.108366,-0.565219,-0.325165,-0.462512,0.639524,3.366870,-1.402628,-8.745224
1790548085.3569,-0.065566,-0.100748,-0.559973,-0.066839,-0.103034,-0.559973,-0.612917,-0.338669,0.567889,2.791950,-0.770569,-8.784035
1790548085.3709,-0.059931,-0.092577,-0.556613,-0.062003,-0.095714,-0.556613,-0.703977,-0.560857,0.382126,2.753622,-0.919289,-9.521448
1790548085.3849,-0.052834,-0.080075,-0.557062,-0.055585,-0.084766,-0.557062,-0.916452,-0.723552,0.136869,3.673494,0.605091,-8.900469
1790548085.3989,-0.044265,-0.065287,-0.558203,-0.047661,-0.071131,-0.558203,-1.074291,-0.849823,0.031239,4.018446,0.642271,-8.589979
1790548085.4128,-0.032118,-0.050978,-0.559202,-0.036781,-0.057024,-0.559202,-1.036652,-1.041657,-0.061036,3.328542,1.014071,-10.142427
1790548085.4268,-0.043635,-0.056898,-0.561675,-0.041579,-0.056936,-0.561675,0.372967,0.852404,-0.320863,1.182175,-0.026969,-17.594175
1790548085.4407,-0.055813,-0.068039,-0.572685,-0.051543,-0.064708,-0.572685,0.854981,1.094019,-0.868441,-2.190688,1.534591,-14.450469
1790548085.4546,-0.033175,-0.068955,-0.586760,-0.038686,-0.067681,-0.586760,0.320759,-1.294199,-0.876940,-2.382327,2.687171,-4.902916
1790548085.4685,-0.034151,-0.071344,-0.592066,-0.035511,-0.070245,-0.592066,0.211486,-0.077629,-0.396139,2.370342,0.939711,-6.571797
1790548085.4825,-0.024085,-0.080676,-0.596700,-0.027513,-0.077547,-0.596700,0.642506,-0.524433,-0.494485,-2.229015,0.158931,-9.288581
1790548085.4964,-0.003936,-0.092319,-0.604898,-0.011009,-0.087887,-0.604898,0.892620,-1.214066,-0.668107,-2.957247,1.423051,-9.172147
1790548085.5100,0.006940,-0.100515,-0.613120,0.001555,-0.096727,-0.613120,0.762706,-0.881391,-0.683891,1.450471,2.352551,-6.688231
1790548085.5236,0.013761,-0.105537,-0.623433,0.010099,-0.102894,-0.623433,0.572086,-0.513506,-0.674178,0.453943,2.575631,-6.028441
1790548085.5376,0.023233,-0.114345,-0.633213,0.019293,-0.110909,-0.633213,0.641292,-0.674987,-0.805305,0.453943,1.051251,-11.578441
1790548085.5514,-0.000288,-0.118668,-0.640076,0.005587,-0.116340,-0.640076,0.258837,1.623384,-0.824732,3.405198,-0.398769,-16.740329
1790548085.5653,-0.007426,-0.108949,-0.652906,-0.003522,-0.111167,-0.652906,-0.719761,0.661784,-0.660822,-2.995575,0.196111,-16.119350
1790548085.5797,0.000204,-0.096080,-0.670635,-0.000914,-0.100606,-0.670635,-1.011155,-0.097055,-0.594045,-5.525222,-1.291089,-5.912007
1790548085.5937,-0.000799,-0.081254,-0.678969,-0.000833,-0.087059,-0.678969,-1.278266,0.383745,-0.455632,-3.033903,-1.923148,-5.601518
1790548085.6090,-0.011738,-0.064588,-0.689292,-0.008466,-0.071329,-0.689292,-1.142282,0.914325,-0.551550,-1.769080,-0.064149,-6.765853
1790548085.6237,-0.022763,-0.051809,-0.699067,-0.018474,-0.057665,-0.699067,-0.952876,0.985960,-0.490842,-3.033903,-0.621849,-9.909560
1790548085.6385,-0.016510,-0.054979,-0.698016,-0.017099,-0.055785,-0.698016,0.198130,-0.200257,-0.261370,-3.838791,0.753811,-11.190329
1790548085.6529,-0.015153,-0.059523,-0.694384,-0.015737,-0.058401,-0.694384,0.343827,-0.080057,0.056736,-0.274288,1.943571,-12.936833
1790548085.6676,-0.015963,-0.056034,-0.682662,-0.015895,-0.056744,-0.682662,-0.169755,0.001291,0.372413,0.415615,2.352551,-10.103616
1790548085.6814,-0.015672,-0.056489,-0.670645,-0.015739,-0.056566,-0.670645,0.085215,-0.137122,0.533893,0.952207,1.757671,-8.512357
1790548085.6951,-0.024316,-0.061826,-0.662626,-0.021743,-0.060248,-0.662626,0.437316,0.408028,0.413693,2.178703,1.237151,-6.377742
1790548085.7091,-0.036723,-0.068711,-0.656966,-0.032229,-0.066172,-0.656966,0.500452,0.735847,0.405194,1.987063,1.088431,-8.589979
1790548085.7231,-0.048011,-0.076554,-0.648341,-0.043276,-0.073439,-0.648341,0.614581,0.745560,0.437976,0.913879,2.166651,-10.530539
1790548085.7368,-0.057530,-0.082009,-0.637372,-0.053254,-0.079438,-0.637372,0.500452,0.661784,0.505968,0.453943,2.687171,-9.288581
1790548085.7505,-0.062495,-0.084009,-0.625200,-0.059723,-0.082638,-0.625200,0.250338,0.331537,0.592172,0.338959,3.170511,-10.103616
1790548085.7644,-0.067543,-0.089568,-0.616442,-0.065197,-0.087489,-0.616442,0.366896,0.310897,0.623740,0.760567,0.865351,-10.220049
1790548085.7783,-0.071515,-0.092657,-0.605530,-0.069620,-0.091106,-0.605530,0.329258,0.261117,0.527823,0.415615,2.761531,-8.745224
1790548085.7924,-0.057974,-0.100956,-0.615134,-0.061468,-0.098001,-0.615134,0.432460,-0.840110,0.555748,-2.650623,-1.551348,-12.432287
1790548085.8062,-0.050249,-0.094529,-0.600872,-0.053615,-0.095570,-0.600872,-0.434438,-0.696841,0.496255,2.676966,1.980751,-11.927742
1790548085.8204,-0.047633,-0.087297,-0.596571,-0.049428,-0.089779,-0.596571,-0.667553,-0.361738,0.537536,2.945262,-1.551348,-10.258860
1790548085.8353,-0.042932,-0.076756,-0.594540,-0.044880,-0.080663,-0.594540,-0.852103,-0.536574,0.274067,3.366870,-1.328269,-7.969000
1790548085.8495,-0.034352,-0.062326,-0.589992,-0.037510,-0.067827,-0.589992,-1.062149,-0.790330,0.163580,2.408670,0.307651,-7.425644
1790548085.8637,-0.024713,-0.046315,-0.586670,-0.028552,-0.052769,-0.586670,-1.141068,-0.893532,0.059164,2.945262,0.790991,-7.580888
1790548085.8780,-0.026347,-0.037828,-0.586292,-0.027009,-0.042310,-0.586292,-0.569207,-0.047275,-0.024612,2.753622,1.460231,-8.589979
1790548085.8921,-0.037354,-0.046387,-0.598640,-0.034251,-0.045164,-0.598640,0.688644,0.937394,-0.512697,-1.424128,2.947431,-13.324944
1790548085.9059,-0.030445,-0.045957,-0.617042,-0.031587,-0.045719,-0.617042,0.128924,-0.260964,-0.891509,-1.845736,3.133331,-8.939280
1790548085.9197,-0.029143,-0.046066,-0.622966,-0.029876,-0.045962,-0.622966,0.120425,-0.112839,-0.615899,1.450471,2.241011,-7.852567
1790548085.9338,-0.023215,-0.055300,-0.633935,-0.025213,-0.052499,-0.633935,0.624294,-0.242752,-0.451990,-1.654096,0.270471,-8.473546
1790548085.9478,-0.006257,-0.068741,-0.647332,-0.011944,-0.063869,-0.647332,0.936329,-1.017375,-0.766453,-1.845736,0.419191,-9.637881
1790548085.9618,0.007179,-0.078447,-0.659252,0.001442,-0.074073,-0.659252,0.737209,-0.864393,-0.929148,-0.350944,1.497411,-9.482637
1790548085.9755,0.013936,-0.082328,-0.664613,0.010188,-0.079852,-0.664613,0.419104,-0.518362,-0.890295,1.105519,2.426911,-7.192776
1790548085.9895,0.020159,-0.087248,-0.675768,0.017168,-0.085029,-0.675768,0.376609,-0.407875,-0.981356,0.377287,1.274331,-8.667602
1790548086.0036,0.028031,-0.097216,-0.688087,0.024772,-0.093560,-0.688087,0.699571,-0.461298,-0.740956,-1.577440,1.237151,-15.149070
1790548086.0177,0.005719,-0.096522,-0.699080,0.011435,-0.095633,-0.699080,-0.066553,1.613671,-0.717887,0.338959,1.311511,-20.815504
1790548086.0319,0.006527,-0.085398,-0.722102,0.007999,-0.088469,-0.722102,-0.773183,0.233192,-0.755525,-4.337055,1.162791,-10.142427
1790548086.0460,0.007209,-0.071664,-0.744127,0.007446,-0.076705,-0.744127,-1.145925,0.279329,-0.692390,-3.532167,-1.588528,-6.882287
1790548086.0604,0.004779,-0.060681,-0.759352,0.005579,-0.065488,-0.759352,-0.972303,0.445667,-0.585546,-2.535639,-1.737248,-6.106063
1790548086.0746,-0.002830,-0.048175,-0.767178,-0.000307,-0.053369,-0.767178,-0.854531,0.726133,-0.637754,-1.539112,1.311511,-7.891378
1790548086.0887,-0.007786,-0.042434,-0.779063,-0.005542,-0.045714,-0.779063,-0.449007,0.553725,-0.562477,-2.688951,0.567911,-12.354665
1790548086.1027,0.001280,-0.047576,-0.787769,-0.000767,-0.047017,-0.787769,0.262480,-0.617922,-0.161810,-0.389272,-0.733389,-14.334035
1790548086.1166,-0.002767,-0.048274,-0.779269,-0.002167,-0.047897,-0.779269,0.067003,0.177341,0.462259,1.258831,1.757671,-12.277042
1790548086.1304,-0.005307,-0.052488,-0.766666,-0.004365,-0.051111,-0.766666,0.326829,0.043786,0.714801,0.952207,1.385871,-9.288581
1790548086.1443,-0.005254,-0.060941,-0.760722,-0.004987,-0.057992,-0.760722,0.586656,0.131204,0.321419,-2.382327,0.567911,-8.395923
1790548086.1582,-0.018172,-0.065734,-0.750875,-0.014216,-0.063411,-0.750875,0.399678,0.830550,0.320204,0.760567,1.088431,-5.679140
1790548086.1722,-0.028783,-0.074899,-0.745226,-0.024413,-0.071453,-0.745226,0.654648,0.752845,0.450118,-0.274288,1.051251,-10.181238
1790548086.1862,-0.038941,-0.083408,-0.725544,-0.034582,-0.079822,-0.725544,0.705642,0.665426,0.690518,0.415615,2.315371,-8.551168
1790548086.1998,-0.052855,-0.087931,-0.702829,-0.047373,-0.085498,-0.702829,0.423961,0.894899,0.830144,1.258831,2.352551,-8.318301
1790548086.2134,-0.059604,-0.095046,-0.693023,-0.055935,-0.092181,-0.693023,0.474955,0.467521,0.862926,0.108991,0.605091,-9.637881
1790548086.2273,-0.062147,-0.101081,-0.680880,-0.060283,-0.098411,-0.680880,0.448244,0.180984,0.688090,-0.120976,1.497411,-9.560259
1790548086.2413,-0.055113,-0.108983,-0.688903,-0.056664,-0.105811,-0.688903,0.380252,-0.376308,0.690518,-2.995575,-2.220588,-12.859210
1790548086.2554,-0.045838,-0.103458,-0.681714,-0.049086,-0.104164,-0.681714,-0.464791,-0.775760,0.521752,2.293686,-0.175689,-11.966553
1790548086.2694,-0.045892,-0.095913,-0.673549,-0.046850,-0.098388,-0.673549,-0.688193,-0.250037,0.490184,4.363398,-1.588528,-9.715504
1790548086.2834,-0.046957,-0.085305,-0.664779,-0.046925,-0.089230,-0.664779,-0.909167,-0.223326,0.337202,4.286742,-1.402628,-7.464455
1790548086.2973,-0.040989,-0.072137,-0.658036,-0.042770,-0.077265,-0.658036,-0.995371,-0.672558,0.219431,3.635166,0.233291,-8.318301
1790548086.3112,-0.037713,-0.057948,-0.652388,-0.039230,-0.063743,-0.652388,-1.071862,-0.522005,0.098016,4.440053,0.158931,-8.046623
1790548086.3255,-0.030702,-0.042827,-0.647831,-0.033260,-0.049102,-0.647831,-1.085218,-0.762405,0.099231,3.980118,0.605091,-7.658511
1790548086.3399,-0.024134,-0.027408,-0.647415,-0.026872,-0.033916,-0.647415,-1.069434,-0.655560,-0.068321,3.405198,1.237151,-8.589979
1790548086.3539,-0.037864,-0.028770,-0.650404,-0.034566,-0.030314,-0.650404,-0.055625,0.941037,-0.628040,4.555037,-2.778288,-16.779140
1790548086.3679,-0.023002,-0.036425,-0.666201,-0.026472,-0.034592,-0.666201,0.744494,-0.705340,-0.798020,-4.873646,4.806431,-9.909560
1790548086.3820,-0.027949,-0.041671,-0.675898,-0.027506,-0.039547,-0.675898,0.408177,0.389816,-0.603758,0.952207,1.534591,-9.870749
1790548086.3960,-0.024626,-0.048193,-0.682740,-0.025490,-0.045599,-0.682740,0.410605,-0.184473,-0.686319,0.645583,-0.026969,-9.210958
1790548086.4099,-0.008143,-0.055722,-0.690427,-0.013347,-0.052685,-0.690427,0.533234,-1.109649,-0.716673,0.108991,0.828171,-9.909560
1790548086.4236,-0.001031,-0.066212,-0.700383,-0.004726,-0.062154,-0.700383,0.711712,-0.423659,-0.925505,-0.044320,0.010211,-8.240679
1790548086.4371,0.013544,-0.072324,-0.714527,0.008063,-0.069273,-0.714527,0.559945,-0.959096,-0.897580,-0.465928,1.720491,-6.106063
1790548086.4511,0.022287,-0.078136,-0.728702,0.018020,-0.075477,-0.728702,0.490739,-0.579069,-0.875725,0.300631,2.426911,-9.987182
1790548086.4651,0.028273,-0.085768,-0.741787,0.025197,-0.082681,-0.741787,0.596369,-0.358095,-0.818661,-0.389272,2.055111,-10.491728
1790548086.4790,0.011039,-0.089910,-0.753049,0.015286,-0.087741,-0.753049,0.337757,1.267641,-0.628040,0.415615,2.241011,-13.596623
1790548086.4929,0.004375,-0.082800,-0.764147,0.007648,-0.084282,-0.764147,-0.508500,0.817194,-0.617113,-6.790045,1.125611,-12.315854
1790548086.5069,0.001018,-0.071137,-0.772529,0.003007,-0.075080,-0.772529,-0.948020,0.449309,-0.561263,-2.573967,-0.956469,-9.405014
1790548086.5209,0.004587,-0.066238,-0.775529,0.004113,-0.068891,-0.775529,-0.555852,0.066854,-0.431349,-3.838791,-2.109048,-6.959909
1790548086.5349,-0.003274,-0.056292,-0.780249,-0.001058,-0.060072,-0.780249,-0.672409,0.659356,-0.393711,-0.695896,1.311511,-7.697322
1790548086.5488,-0.011492,-0.048093,-0.786682,-0.008362,-0.051687,-0.786682,-0.600775,0.802624,-0.454418,-2.037376,0.716631,-8.007811
1790548086.5632,-0.006033,-0.048674,-0.790824,-0.006732,-0.049578,-0.790824,0.012367,-0.158976,-0.358501,-4.183743,0.790991,-13.208511
1790548086.5773,-0.002627,-0.049523,-0.787612,-0.003858,-0.049539,-0.787612,0.034221,-0.299817,0.315348,0.415615,0.902531,-12.044175
1790548086.5916,-0.005024,-0.053589,-0.785986,-0.004674,-0.052374,-0.785986,0.217557,0.055927,0.428263,1.373815,0.047391,-12.432287
1790548086.6056,-0.013936,-0.062140,-0.786564,-0.011158,-0.059210,-0.786564,0.572086,0.513659,0.244928,1.220503,0.270471,-6.727042
1790548086.6196,-0.021240,-0.073051,-0.784692,-0.018216,-0.068899,-0.784692,0.796702,0.454166,0.180578,0.913879,1.051251,-8.434735
1790548086.6335,-0.037221,-0.083754,-0.780279,-0.031519,-0.079297,-0.780279,0.801559,1.049095,0.368770,1.603783,1.460231,-9.987182
1790548086.6471,-0.053242,-0.093102,-0.767969,-0.046725,-0.088961,-0.767969,0.768777,1.130443,0.691732,0.453943,2.241011,-8.939280
1790548086.6607,-0.064127,-0.100798,-0.753008,-0.058907,-0.097246,-0.753008,0.627937,0.809909,0.847142,-0.350944,2.129471,-8.900469
1790548086.6743,-0.071942,-0.107344,-0.740121,-0.068032,-0.104315,-0.740121,0.498023,0.579222,0.799791,-0.159304,1.646131,-9.599070
1790548086.6883,-0.065807,-0.113692,-0.724184,-0.066475,-0.110879,-0.724184,0.496809,-0.440657,0.847142,-0.120976,2.835891,-12.742777
1790548086.7023,-0.057617,-0.117968,-0.715914,-0.060274,-0.115841,-0.715914,0.236983,-0.619136,0.654094,0.645583,0.010211,-11.850119
1790548086.7162,-0.053892,-0.119010,-0.710498,-0.055806,-0.118059,-0.710498,-0.076266,-0.410304,0.616455,2.868606,-1.774428,-11.617252
1790548086.7301,-0.052824,-0.117550,-0.705144,-0.053719,-0.117703,-0.705144,-0.333664,-0.325314,0.677162,3.865134,-2.666748,-8.434735
1790548086.7440,-0.051681,-0.106512,-0.696246,-0.052292,-0.109869,-0.696246,-0.909167,-0.392091,0.696589,4.785005,-0.770569,-8.434735
1790548086.7579,-0.045979,-0.087356,-0.690422,-0.047873,-0.094110,-0.690422,-1.389967,-0.586354,0.484114,2.140375,0.642271,-7.270399
1790548086.7717,-0.041231,-0.066928,-0.685332,-0.043223,-0.075083,-0.685332,-1.547806,-0.615494,0.294707,4.286742,-0.026969,-8.861658
1790548086.7856,-0.024933,-0.049817,-0.678794,-0.030420,-0.057397,-0.678794,-1.343830,-1.354906,0.161152,2.638638,-0.510309,-9.133336
1790548086.7996,-0.011439,-0.032352,-0.678893,-0.017133,-0.039866,-0.678893,-1.277052,-1.265060,0.124728,3.175230,0.567911,-6.144874
1790548086.8134,-0.027121,-0.043633,-0.677405,-0.024125,-0.042503,-0.677405,0.750565,1.055166,0.031239,2.715294,0.233291,-16.662707
1790548086.8276,-0.027824,-0.057998,-0.687784,-0.026714,-0.053350,-0.687784,1.123307,0.216194,-0.484772,-2.152360,3.542311,-12.820399
1790548086.8422,-0.021061,-0.055325,-0.704615,-0.022757,-0.054732,-0.704615,0.024508,-0.411518,-0.394925,-0.005993,4.546171,-9.366203
1790548086.8563,-0.023698,-0.061145,-0.706475,-0.023416,-0.059221,-0.706475,0.371753,0.235620,-0.363358,0.070663,0.196111,-8.124245
1790548086.8704,-0.007731,-0.068684,-0.707689,-0.012436,-0.065845,-0.707689,0.558731,-0.906888,-0.459275,-2.152360,0.865351,-6.727042
1790548086.8840,0.004827,-0.076425,-0.714254,-0.000352,-0.073251,-0.714254,0.589084,-0.806114,-0.563691,-0.925864,0.902531,-7.658511
1790548086.8977,0.008309,-0.083568,-0.724706,0.005711,-0.080473,-0.724706,0.585442,-0.281604,-0.592830,1.067191,1.757671,-9.055714
1790548086.9117,0.022596,-0.087438,-0.737241,0.017531,-0.085348,-0.737241,0.358397,-0.876534,-0.738527,-1.577440,2.129471,-9.016902
1790548086.9256,0.027267,-0.092480,-0.749235,0.024346,-0.090340,-0.749235,0.416676,-0.328956,-0.754311,0.492271,1.794851,-9.210958
1790548086.9400,0.019322,-0.096154,-0.757895,0.020829,-0.094410,-0.757895,0.257623,0.564653,-0.543051,0.338959,1.348691,-13.868301
1790548086.9540,0.000574,-0.087902,-0.765891,0.006650,-0.089854,-0.765891,-0.557066,1.385413,-0.341503,-0.465928,2.575631,-18.370399
1790548086.9679,0.000521,-0.072691,-0.769910,0.002360,-0.077840,-0.769910,-1.088860,0.292685,-0.464131,-5.601878,1.199971,-12.354665
1790548086.9819,-0.004591,-0.064499,-0.762700,-0.002506,-0.068501,-0.762700,-0.838747,0.574366,-0.392497,-1.654096,-1.997508,-5.446273
1790548086.9959,-0.011949,-0.053839,-0.764713,-0.009116,-0.058237,-0.764713,-0.847246,0.737061,-0.265012,-1.155832,-0.138509,-3.971448
1790548087.0105,-0.027529,-0.043252,-0.769434,-0.022005,-0.047748,-0.769434,-0.637199,1.118301,-0.243157,-0.082648,1.943571,-7.464455
1790548087.0245,-0.022291,-0.052518,-0.768912,-0.022205,-0.051087,-0.768912,0.558731,-0.168689,-0.052537,-6.100142,-1.402628,-18.448022
1790548087.0385,-0.021156,-0.057182,-0.761564,-0.021471,-0.055354,-0.761564,0.301332,-0.132265,0.537536,0.108991,1.237151,-16.468651
1790548087.0526,-0.022458,-0.060113,-0.751958,-0.022162,-0.058685,-0.751958,0.092500,0.060784,0.796148,-0.849208,-0.770569,-12.742777
1790548087.0665,-0.025554,-0.067027,-0.743259,-0.024536,-0.064524,-0.743259,0.379038,0.188269,0.762152,-0.350944,-0.510309,-7.619700
1790548087.0805,-0.031778,-0.075880,-0.740271,-0.029605,-0.072473,-0.740271,0.629151,0.316968,0.386982,1.603783,0.902531,-8.628791
1790548087.0949,-0.049740,-0.088751,-0.735407,-0.043700,-0.083868,-0.735407,0.869551,1.153511,0.544821,1.565455,0.679451,-10.879840
1790548087.1086,-0.060811,-0.096889,-0.721844,-0.055678,-0.092982,-0.721844,0.678931,0.823265,0.705088,-0.389272,2.426911,-9.055714
1790548087.1223,-0.073520,-0.103504,-0.707539,-0.068168,-0.100347,-0.707539,0.561159,0.887614,0.836215,0.453943,2.315371,-8.279490
1790548087.1360,-0.077044,-0.106757,-0.692337,-0.074381,-0.104834,-0.692337,0.328044,0.316968,0.805861,-1.079176,3.244871,-10.452916
1790548087.1499,-0.068976,-0.112889,-0.682645,-0.070598,-0.110473,-0.682645,0.357183,-0.608209,0.731799,0.607255,0.084571,-12.509909
1790548087.1638,-0.057455,-0.112497,-0.674745,-0.061398,-0.111890,-0.674745,-0.059268,-0.829183,0.522966,0.147319,0.716631,-12.044175
1790548087.1778,-0.053832,-0.111044,-0.671031,-0.056102,-0.111298,-0.671031,-0.283884,-0.486794,0.581245,4.248414,-2.220588,-10.414105
1790548087.1918,-0.053074,-0.105192,-0.664919,-0.053983,-0.107024,-0.664919,-0.543710,-0.302245,0.593386,3.826806,-0.956469,-8.706413
1790548087.2057,-0.052704,-0.096541,-0.660046,-0.053087,-0.099686,-0.660046,-0.757399,-0.287675,0.444047,4.018446,-1.216729,-8.357112
1790548087.2196,-0.042903,-0.083409,-0.657547,-0.045959,-0.088292,-0.657547,-1.034224,-0.931170,0.250998,3.558510,-0.361589,-9.055714
1790548087.2334,-0.036548,-0.068625,-0.657117,-0.039371,-0.074525,-0.657117,-1.127713,-0.721124,0.139297,3.558510,-0.026969,-7.309210
1790548087.2474,-0.023314,-0.054248,-0.657311,-0.028131,-0.060331,-0.657311,-1.052436,-1.095080,0.044594,1.948735,0.567911,-7.542077
1790548087.2620,-0.034406,-0.058246,-0.657193,-0.032523,-0.058871,-0.657193,0.194488,0.721277,-0.212804,2.791950,-0.807749,-18.253966
1790548087.2762,-0.044619,-0.064098,-0.669424,-0.040990,-0.062530,-0.669424,0.501666,0.908255,-0.832016,-1.615768,2.426911,-12.354665
1790548087.2905,-0.025831,-0.064869,-0.677175,-0.030379,-0.064168,-0.677175,0.287977,-1.000377,-0.715459,-2.535639,2.761531,-5.058161
1790548087.3045,-0.027296,-0.071631,-0.681086,-0.028221,-0.069392,-0.681086,0.431246,-0.049703,-0.326933,2.485326,-0.064149,-7.037532
1790548087.3185,-0.019742,-0.085386,-0.682732,-0.022285,-0.080587,-0.682732,0.980038,-0.381164,-0.445919,-2.152360,0.605091,-11.462007
1790548087.3330,-0.004362,-0.092847,-0.700191,-0.009739,-0.089169,-0.700191,0.649791,-1.089009,-0.777380,1.412143,2.761531,-9.249770
1790548087.3471,0.001455,-0.098864,-0.718142,-0.001903,-0.095956,-0.718142,0.517450,-0.429730,-0.961930,1.258831,1.980751,-8.939280
1790548087.3610,0.001729,-0.102978,-0.733479,0.000639,-0.100871,-0.733479,0.366896,-0.070344,-0.885439,1.412143,1.460231,-7.930189
1790548087.3750,0.014103,-0.110106,-0.744369,0.010064,-0.107336,-0.744369,0.482240,-0.814613,-0.912150,-0.350944,0.196111,-8.318301
1790548087.3892,0.002389,-0.118533,-0.758606,0.004691,-0.115174,-0.758606,0.714141,0.825693,-0.501770,0.492271,3.096151,-11.927742
1790548087.4032,-0.013584,-0.117488,-0.767410,-0.008101,-0.116794,-0.767410,-0.050769,1.121944,-0.560049,1.795423,1.534591,-18.642077
1790548087.4171,-0.012878,-0.101125,-0.767500,-0.011445,-0.105826,-0.767500,-1.230915,0.241691,-0.607400,-4.835318,-0.547489,-10.608161
1790548087.4311,-0.013405,-0.088424,-0.764693,-0.012817,-0.093645,-0.764693,-1.079147,0.244119,-0.551550,-2.382327,-1.960328,-8.551168
1790548087.4450,-0.020955,-0.075333,-0.764296,-0.018514,-0.080826,-0.764296,-1.087646,0.772271,-0.410709,-1.922392,-1.105189,-6.106063
1790548087.4589,-0.029221,-0.061443,-0.771945,-0.026009,-0.067258,-0.771945,-0.884884,0.818408,-0.504198,-1.577440,1.608951,-5.756762
1790548087.4728,-0.040940,-0.052276,-0.779250,-0.036461,-0.056770,-0.779250,-0.497573,0.993245,-0.405852,-1.040848,2.649991,-7.270399
1790548087.4866,-0.035389,-0.063245,-0.783705,-0.035711,-0.061302,-0.783705,0.725068,-0.183259,-0.199448,-4.988630,-0.510309,-16.352217
1790548087.5005,-0.039270,-0.066315,-0.775353,-0.038202,-0.064811,-0.775353,0.234555,0.131204,0.576388,2.906934,2.352551,-15.032637
1790548087.5145,-0.049459,-0.068359,-0.765450,-0.046082,-0.067295,-0.765450,0.100999,0.595006,0.779150,2.025391,0.976891,-13.402567
1790548087.5284,-0.044470,-0.075433,-0.758417,-0.044953,-0.072992,-0.758417,0.431246,-0.257322,0.527823,-1.960720,0.047391,-9.327392
1790548087.5424,-0.058979,-0.082454,-0.753396,-0.054771,-0.079615,-0.753396,0.511379,0.705493,0.479257,3.520182,0.753811,-5.446273
1790548087.5562,-0.074873,-0.091878,-0.745442,-0.068843,-0.088199,-0.745442,0.671646,0.995673,0.672306,2.293686,1.051251,-8.861658
1790548087.5698,-0.085168,-0.099074,-0.736614,-0.080270,-0.095812,-0.736614,0.575729,0.747988,0.798576,0.108991,2.092291,-8.667602
1790548087.5834,-0.097255,-0.103545,-0.727031,-0.092160,-0.101225,-0.727031,0.379038,0.865760,0.850785,0.377287,2.352551,-8.745224
1790548087.5977,-0.100864,-0.109327,-0.717151,-0.098253,-0.106896,-0.717151,0.408177,0.270830,0.824073,-0.120976,2.166651,-10.879840
1790548087.6118,-0.099238,-0.115143,-0.706641,-0.098942,-0.112669,-0.706641,0.404535,-0.122552,0.803433,0.492271,2.055111,-12.160609
1790548087.6258,-0.090669,-0.114602,-0.697723,-0.093151,-0.114022,-0.697723,-0.126046,-0.628849,0.633453,0.875551,0.121751,-13.053266
1790548087.6398,-0.078426,-0.109513,-0.686500,-0.082843,-0.110866,-0.686500,-0.467219,-0.978522,0.593386,2.255358,-0.324409,-11.462007
1790548087.6538,-0.076812,-0.103580,-0.671861,-0.078621,-0.105765,-0.671861,-0.601989,-0.326528,0.617669,2.945262,-1.291089,-7.580888
1790548087.6678,-0.069167,-0.094429,-0.662087,-0.072003,-0.097830,-0.662087,-0.799894,-0.716267,0.384554,2.178703,-0.882109,-6.882287
1790548087.6817,-0.058479,-0.081939,-0.657483,-0.062536,-0.086706,-0.657483,-0.889741,-0.871678,0.329918,1.527127,1.162791,-8.279490
1790548087.6972,-0.045739,-0.067886,-0.653867,-0.050778,-0.073532,-0.653867,-0.915238,-0.978522,0.117443,2.830278,0.865351,-8.784035
1790548087.7120,-0.048853,-0.064660,-0.655055,-0.049430,-0.067321,-0.655055,-0.215892,0.120277,-0.109602,3.213558,1.311511,-13.907112
1790548087.7267,-0.056685,-0.070378,-0.670591,-0.054509,-0.069461,-0.670591,0.495595,0.513659,-0.774952,3.251886,2.910251,-13.945924
1790548087.7410,-0.039187,-0.075528,-0.688019,-0.043784,-0.073708,-0.688019,0.391179,-0.860750,-1.042063,-4.490366,0.605091,-9.909560
1790548087.7559,-0.037186,-0.075249,-0.702761,-0.039165,-0.074787,-0.702761,0.243054,-0.214827,-0.432564,1.105519,2.315371,-3.816203
1790548087.7699,-0.030080,-0.087355,-0.709440,-0.032806,-0.083584,-0.709440,0.861052,-0.394520,-0.403424,-1.232488,0.530731,-11.617252
1790548087.7836,-0.012987,-0.097151,-0.727258,-0.018933,-0.093081,-0.727258,0.803987,-1.014946,-0.886653,-2.688951,1.869211,-9.870749
1790548087.7974,0.000199,-0.102664,-0.744359,-0.005540,-0.099789,-0.744359,0.541733,-0.868035,-1.086986,-0.350944,2.798711,-9.637881
1790548087.8110,0.000542,-0.104110,-0.750887,-0.001282,-0.102813,-0.750887,0.279478,-0.088556,-0.912150,1.258831,2.315371,-6.261308
1790548087.8246,0.010997,-0.113256,-0.763453,0.007313,-0.110123,-0.763453,0.638864,-0.674987,-0.830802,-0.925864,0.047391,-10.530539
1790548087.8388,0.008057,-0.126378,-0.775434,0.007834,-0.121502,-0.775434,0.933900,0.303612,-0.540622,-1.155832,0.493551,-9.249770
1790548087.8530,-0.007162,-0.129131,-0.790313,-0.002663,-0.126842,-0.790313,0.232126,1.196006,-0.572190,-2.573967,1.534591,-15.110259
1790548087.8671,-0.004755,-0.114717,-0.807141,-0.004128,-0.118354,-0.807141,-1.013583,0.172485,-0.734885,-7.441621,0.679451,-12.509909
1790548087.8812,0.000916,-0.101473,-0.817970,-0.000597,-0.106538,-0.817970,-1.113143,-0.098269,-0.676606,-2.995575,-1.625708,-5.873196
1790548087.8953,-0.006034,-0.088684,-0.830779,-0.004403,-0.094040,-0.830779,-1.101002,0.669069,-0.604972,-1.539112,-1.811608,-6.959909
1790548087.9093,-0.015108,-0.074440,-0.833828,-0.011896,-0.080320,-0.833828,-0.932236,0.893685,-0.573404,-2.343999,1.534591,-6.921098
1790548087.9235,-0.026046,-0.060460,-0.839649,-0.021801,-0.066418,-0.839649,-0.948020,1.045453,-0.453204,-3.647151,1.423051,-9.521448
1790548087.9378,-0.020859,-0.065513,-0.851785,-0.021142,-0.065784,-0.851785,0.274621,-0.148049,-0.347574,-5.026958,-0.770569,-17.128441
1790548087.9518,-0.021125,-0.071802,-0.858609,-0.021130,-0.069996,-0.858609,0.321973,0.015860,0.157509,0.032335,-1.625708,-15.149070
1790548087.9657,-0.028531,-0.070722,-0.848454,-0.026310,-0.070504,-0.848454,-0.078694,0.476020,0.689304,0.185647,1.199971,-10.258860
1790548087.9796,-0.030153,-0.074680,-0.843841,-0.029000,-0.073427,-0.843841,0.219985,0.211337,0.524180,-1.769080,0.084571,-8.473546
1790548087.9935,-0.032918,-0.076836,-0.838552,-0.031743,-0.075813,-0.838552,0.131353,0.346107,0.265568,-2.343999,0.530731,-9.249770
1790548088.0073,-0.044235,-0.081918,-0.840758,-0.040488,-0.080087,-0.840758,0.304975,0.766200,0.238857,1.143847,-0.026969,-11.772497
1790548088.0213,-0.050020,-0.091857,-0.832680,-0.047160,-0.088326,-0.832680,0.737209,0.425026,0.328703,-0.082648,1.608951,-12.393476
1790548088.0350,-0.060765,-0.096945,-0.802418,-0.056684,-0.094360,-0.802418,0.511379,0.667855,0.530251,1.757095,3.021791,-9.172147
1790548088.0488,-0.067598,-0.100102,-0.780009,-0.064324,-0.098379,-0.780009,0.338971,0.472378,0.561819,0.377287,2.798711,-9.599070
1790548088.0630,-0.071087,-0.105432,-0.761056,-0.069058,-0.103316,-0.761056,0.448244,0.194339,0.531465,0.913879,2.166651,-9.288581
1790548088.0771,-0.073479,-0.111165,-0.737333,-0.072152,-0.108810,-0.737333,0.535662,0.097208,0.501112,1.335487,3.021791,-9.405014
1790548088.0912,-0.066266,-0.113568,-0.721286,-0.068032,-0.112141,-0.721286,0.193274,-0.631277,0.414908,2.676966,1.571771,-11.617252
1790548088.1056,-0.062415,-0.106418,-0.707878,-0.064100,-0.108135,-0.707878,-0.514571,-0.430944,0.401552,3.750150,0.828171,-12.199420
1790548088.1195,-0.062550,-0.099780,-0.710105,-0.063015,-0.102287,-0.710105,-0.618987,-0.288889,0.323847,4.708349,-1.291089,-7.774944
1790548088.1335,-0.058956,-0.088385,-0.704371,-0.060174,-0.092556,-0.704371,-0.853317,-0.490437,0.100445,3.635166,0.158931,-7.813756
1790548088.1473,-0.054264,-0.076220,-0.701594,-0.056037,-0.081121,-0.701594,-0.923737,-0.638562,0.117443,4.133430,0.158931,-6.882287
1790548088.1613,-0.045235,-0.063509,-0.695935,-0.048476,-0.068793,-0.695935,-0.888527,-0.781831,0.042166,2.063719,1.199971,-7.930189
1790548088.1753,-0.043859,-0.056645,-0.692370,-0.045244,-0.060290,-0.692370,-0.503644,-0.217255,-0.035539,2.945262,1.014071,-11.850119
1790548088.1892,-0.054859,-0.061527,-0.698017,-0.051975,-0.061156,-0.698017,0.335328,0.768628,-0.538194,3.443526,0.493551,-17.865854
1790548088.2031,-0.041480,-0.064661,-0.731574,-0.044628,-0.063610,-0.731574,0.430032,-0.706554,-0.762810,-2.382327,3.579491,-8.628791
1790548088.2170,-0.047985,-0.072632,-0.729954,-0.046978,-0.069925,-0.729954,0.561159,0.344893,-0.339075,3.021918,0.456371,-9.676693
1790548088.2309,-0.041758,-0.080585,-0.743943,-0.043324,-0.077387,-0.743943,0.600011,-0.302245,-0.528481,-1.117504,0.828171,-9.133336
1790548088.2448,-0.024597,-0.090535,-0.762265,-0.030215,-0.086591,-0.762265,0.760278,-1.044086,-0.713030,-1.922392,1.125611,-9.676693
1790548088.2584,-0.020289,-0.099315,-0.767024,-0.023267,-0.095497,-0.767024,0.739638,-0.379950,-0.842944,1.795423,1.608951,-8.279490
1790548088.2720,-0.008635,-0.106615,-0.781058,-0.013024,-0.103280,-0.781058,0.620652,-0.778189,-0.959501,-0.159304,1.348691,-7.580888
1790548088.2857,0.001726,-0.112592,-0.793287,-0.002699,-0.109798,-0.793287,0.513807,-0.717481,-0.961930,0.108991,1.571771,-9.172147
1790548088.2996,0.010909,-0.120744,-0.802655,0.006827,-0.117460,-0.802655,0.697143,-0.657989,-0.822303,0.415615,2.166651,-9.016902
1790548088.3135,0.001391,-0.134267,-0.812211,0.003022,-0.129225,-0.812211,0.839197,0.661784,-0.861156,1.182175,-2.406488,-13.169700
1790548088.3274,-0.012006,-0.124696,-0.827860,-0.007497,-0.126055,-0.827860,-0.689407,1.063665,-0.640182,-1.615768,0.382011,-13.674245
1790548088.3416,-0.006547,-0.112827,-0.852482,-0.006832,-0.116795,-0.852482,-0.971088,-0.184473,-0.626826,-2.497311,-1.625708,-8.667602
1790548088.3562,-0.009088,-0.102940,-0.879821,-0.008412,-0.107096,-0.879821,-0.933450,0.446881,-0.528481,-2.688951,-2.629568,-5.523895
1790548088.3702,-0.014027,-0.089018,-0.890710,-0.012343,-0.094442,-0.890710,-1.016012,0.558582,-0.409495,-2.573967,0.270471,-8.900469
1790548088.3843,-0.021587,-0.078687,-0.902700,-0.018814,-0.083413,-0.902700,-0.853317,0.766200,-0.312364,-2.957247,-1.179549,-8.861658
1790548088.3982,-0.029056,-0.067616,-0.908250,-0.025983,-0.072355,-0.908250,-0.860602,0.828121,-0.314792,-3.608823,-0.361589,-8.124245
1790548088.4122,-0.022817,-0.073834,-0.917664,-0.023767,-0.073390,-0.917664,0.315902,-0.339883,-0.088961,-2.995575,-2.480848,-20.466203
1790548088.4262,-0.019075,-0.079514,-0.914508,-0.020483,-0.077677,-0.914508,0.337757,-0.365380,0.453760,1.757095,-0.138509,-15.653616
1790548088.4400,-0.024583,-0.077890,-0.898968,-0.023353,-0.077826,-0.898968,-0.107833,0.227121,0.827716,2.217030,1.460231,-11.539630
1790548088.4540,-0.023063,-0.080102,-0.887283,-0.023150,-0.079420,-0.887283,0.167777,0.024359,0.440405,-1.807408,0.753811,-6.649420
1790548088.4680,-0.032010,-0.086674,-0.875769,-0.029352,-0.084497,-0.875769,0.484668,0.450523,0.361485,3.175230,1.125611,-10.142427
1790548088.4819,-0.042607,-0.096524,-0.865926,-0.038631,-0.092916,-0.865926,0.734781,0.644786,0.406409,1.412143,0.976891,-7.386832
1790548088.4955,-0.054323,-0.102832,-0.849805,-0.049615,-0.099857,-0.849805,0.575729,0.854833,0.510825,0.070663,2.352551,-8.434735
1790548088.5091,-0.062396,-0.108753,-0.839858,-0.058562,-0.106084,-0.839858,0.454314,0.599863,0.572746,-0.044320,1.460231,-10.646972
1790548088.5232,-0.065089,-0.115947,-0.828056,-0.063131,-0.112988,-0.828056,0.541733,0.208909,0.606742,-0.159304,1.497411,-9.599070
1790548088.5371,-0.071200,-0.119539,-0.801776,-0.068780,-0.117574,-0.801776,0.473741,0.439596,0.587316,0.070663,3.616671,-7.309210
1790548088.5509,-0.056026,-0.128809,-0.807075,-0.059852,-0.125439,-0.807075,0.507737,-0.985807,0.784007,-2.420655,-1.774428,-13.441378
1790548088.5648,-0.048705,-0.122472,-0.793651,-0.052049,-0.123362,-0.793651,-0.446579,-0.597281,0.564247,1.642111,1.385871,-13.247322
1790548088.5787,-0.051776,-0.114661,-0.788530,-0.051858,-0.117272,-0.788530,-0.729474,0.000076,0.524180,4.056774,-2.034688,-9.987182
1790548088.5926,-0.050687,-0.102317,-0.786126,-0.051038,-0.106803,-0.786126,-1.035438,-0.316815,0.174507,3.635166,-1.514168,-7.697322
1790548088.6071,-0.048728,-0.082574,-0.784583,-0.049421,-0.089843,-0.784583,-1.423963,-0.313172,-0.061036,3.021918,-0.287229,-7.930189
1790548088.6212,-0.040996,-0.065320,-0.780355,-0.043524,-0.072676,-0.780355,-1.253984,-0.698055,0.077376,2.715294,0.605091,-9.715504
1790548088.6350,-0.051885,-0.059038,-0.776706,-0.049377,-0.063130,-0.776706,-0.500001,0.525800,0.099231,6.126485,0.270471,-11.850119
1790548088.6489,-0.052086,-0.068635,-0.779263,-0.051273,-0.066983,-0.779263,0.539304,0.024359,-0.093818,0.530599,-1.774428,-10.569350
1790548088.6629,-0.064772,-0.066233,-0.785013,-0.060722,-0.066458,-0.785013,0.077930,0.722491,-0.285652,3.175230,3.579491,-6.144874
1790548088.6768,-0.063546,-0.066885,-0.793602,-0.062699,-0.066757,-0.793602,0.098571,0.032858,-0.465345,-0.734224,1.608951,-11.966553
1790548088.6908,-0.067915,-0.063861,-0.801879,-0.066350,-0.064730,-0.801879,-0.181896,0.290256,-0.732457,1.795423,0.605091,-7.697322
1790548088.7046,-0.057012,-0.065459,-0.813364,-0.059813,-0.065240,-0.813364,0.067003,-0.611851,-0.795592,-0.925864,-0.473129,-8.357112
1790548088.7181,-0.055385,-0.072962,-0.822289,-0.056714,-0.070645,-0.822289,0.528377,-0.126194,-0.779808,1.450471,-0.138509,-7.813756
1790548088.7317,-0.049843,-0.077450,-0.833980,-0.051904,-0.075408,-0.833980,0.362040,-0.330170,-0.907293,0.453943,0.567911,-8.900469
1790548088.7453,-0.041445,-0.080448,-0.845576,-0.044583,-0.078936,-0.845576,0.302547,-0.577855,-0.886653,1.028863,1.683311,-10.685784
1790548088.7592,-0.034955,-0.085151,-0.858830,-0.037844,-0.083286,-0.858830,0.394821,-0.361738,-0.931576,-0.159304,1.311511,-11.112707
1790548088.7732,-0.022299,-0.086680,-0.871957,-0.026962,-0.085662,-0.871957,0.230912,-0.786688,-0.850228,-0.619240,2.129471,-8.589979
1790548088.7873,-0.015159,-0.090015,-0.880775,-0.018700,-0.088709,-0.880775,0.345042,-0.466154,-0.619541,0.223975,2.166651,-8.861658
1790548088.8011,-0.024848,-0.085401,-0.889607,-0.023004,-0.086393,-0.889607,-0.251102,0.750416,-0.527267,0.147319,2.873071,-14.528091
1790548088.8149,-0.025069,-0.073258,-0.899417,-0.024450,-0.077199,-0.899417,-0.883670,0.224693,-0.227374,-3.532167,0.902531,-11.966553
