t,imu_roll,imu_pitch,imu_yaw,lpf_roll,lpf_pitch,lpf_yaw,gyro_x,gyro_y,gyro_z,acc_x,acc_y,acc_z
1790548622.2184,-0.001101,-0.033425,0.011885,-0.000771,-0.023397,0.011885,0.012501,0.007707,0.005883,0.032335,1.274331,-10.142427
1790548622.2337,-0.017417,-0.033530,0.011467,-0.012423,-0.030490,0.011467,-0.011781,-0.005648,-0.006259,0.377287,1.237151,-9.870749
1790548622.2475,-0.021444,-0.036053,0.011593,-0.018738,-0.034384,0.011593,0.001574,-0.004434,-0.009901,0.338959,1.199971,-10.181238
1790548622.2612,-0.020093,-0.037376,0.011925,-0.019687,-0.036479,0.011925,0.014930,0.010136,-0.005045,0.185647,1.162791,-9.831937
1790548622.2752,-0.015526,-0.038269,0.012709,-0.016774,-0.037732,0.012709,-0.003282,0.013778,-0.000188,-0.005993,1.199971,-10.258860
1790548622.2892,-0.014314,-0.036894,0.013058,-0.015052,-0.037145,0.013058,-0.063990,0.010136,0.008311,0.108991,1.274331,-10.220049
1790548622.3036,-0.014435,-0.034991,0.013518,-0.014620,-0.035637,0.013518,-0.117412,0.046560,0.030165,0.147319,1.311511,-10.452916
1790548622.3178,-0.015729,-0.030940,0.014482,-0.015397,-0.032349,0.014482,-0.130767,0.048988,0.058091,0.223975,1.423051,-9.870749
1790548622.3319,-0.019138,-0.027799,0.016225,-0.018016,-0.029164,0.016225,-0.152622,0.124265,0.130939,0.338959,1.385871,-9.909560
1790548622.3459,-0.018798,-0.024774,0.019385,-0.018563,-0.026091,0.019385,-0.187832,0.059915,0.248711,0.070663,1.348691,-9.715504
1790548622.3598,-0.018579,-0.022011,0.024953,-0.018574,-0.023235,0.024953,-0.213329,-0.051786,0.401693,0.185647,1.311511,-9.599070
1790548622.3736,-0.016563,-0.020929,0.032426,-0.017166,-0.021621,0.032426,-0.159907,-0.167129,0.540105,0.108991,1.199971,-9.405014
1790548622.3875,-0.029588,-0.025348,0.040761,-0.025861,-0.024230,0.040761,-0.087058,0.053845,0.670018,1.603783,0.642271,-9.599070
1790548622.4013,-0.021804,-0.022713,0.050856,-0.023021,-0.023168,0.050856,-0.049420,-0.153774,0.589885,-0.619240,1.608951,-9.676693
1790548622.4152,-0.019691,-0.030347,0.059093,-0.020690,-0.028193,0.059093,-0.029994,-0.055428,0.430832,-0.082648,0.196111,-11.229140
1790548622.4292,-0.020022,-0.038668,0.063800,-0.020222,-0.035526,0.063800,0.078065,-0.003220,0.376196,0.223975,0.158931,-12.044175
1790548622.4431,-0.016714,-0.039826,0.079276,-0.017766,-0.038536,0.079276,0.074423,-0.004434,0.439331,-0.389272,1.088431,-9.133336
1790548622.4570,-0.010693,-0.043135,0.094762,-0.012815,-0.041755,0.094762,0.120560,-0.145275,0.419905,-0.657568,0.902531,-10.142427
1790548622.4706,-0.009127,-0.041260,0.101228,-0.010233,-0.041408,0.101228,-0.082202,-0.153774,0.357984,0.108991,1.237151,-9.327392
1790548622.4842,-0.005666,-0.039318,0.110270,-0.007036,-0.039945,0.110270,-0.050634,-0.201125,0.288778,-0.120976,1.311511,-9.094525
1790548622.4982,-0.000353,-0.036952,0.116970,-0.002358,-0.037850,0.116970,-0.117412,-0.371105,0.251139,-0.082648,1.385871,-10.103616
1790548622.5121,0.003199,-0.033666,0.118669,0.001532,-0.034921,0.118669,-0.221828,-0.357749,0.205002,0.223975,1.348691,-10.375294
1790548622.5260,0.009421,-0.028237,0.123145,0.007054,-0.030242,0.123145,-0.295891,-0.536228,0.215929,0.108991,1.534591,-9.599070
1790548622.5401,0.018230,-0.020862,0.129787,0.014878,-0.023676,0.129787,-0.463442,-0.611505,0.223214,-0.274288,1.385871,-8.822846
1790548622.5541,0.017453,-0.018195,0.129733,0.016681,-0.019839,0.129733,-0.208472,0.016206,0.076303,-0.044320,1.237151,-9.172147
1790548622.5690,0.026482,-0.026436,0.137721,0.023541,-0.024457,0.137721,0.750700,0.378021,-0.347433,-4.107087,2.166651,-10.258860
1790548622.5831,0.031391,-0.011725,0.178530,0.029036,-0.015544,0.178530,0.554009,0.157047,-0.508914,-1.500784,5.252591,-5.485084
1790548622.5975,0.045855,-0.012990,0.137972,0.040810,-0.013756,0.137972,0.131487,-0.440311,-0.589047,-2.650623,2.166651,-11.656063
1790548622.6116,0.040113,-0.010827,0.140062,0.040322,-0.011706,0.140062,-0.212115,0.149762,-1.016425,1.565455,1.794851,-13.130889
1790548622.6256,0.036550,-0.000095,0.154235,0.037682,-0.003578,0.154235,-0.572715,0.121837,-1.021282,0.683911,2.241011,-9.055714
1790548622.6399,0.013957,0.009716,0.155791,0.021074,0.005728,0.155791,-0.690487,1.260702,-1.028567,1.488799,1.311511,-7.386832
1790548622.6538,-0.000685,0.014874,0.119474,0.005843,0.012130,0.119474,-0.583642,1.367547,-1.137839,-0.274288,0.716631,-8.046623
1790548622.6679,-0.015934,0.017288,0.073250,-0.009401,0.015740,0.073250,-0.594570,1.198781,-1.273823,0.798895,-0.138509,-10.103616
1790548622.6818,-0.020016,0.027380,0.036178,-0.016832,0.023888,0.036178,-0.933315,0.676700,-1.428019,-0.312616,0.939711,-11.694875
1790548622.6953,-0.022895,0.029492,-0.018648,-0.021076,0.027810,-0.018648,-0.680774,0.550429,-1.443803,-0.005993,-0.659029,-11.539630
1790548622.7089,-0.016366,0.028127,-0.058461,-0.017779,0.028032,-0.058461,-0.365097,-0.017790,-1.386738,-0.772552,-0.398769,-9.948371
1790548622.7229,0.002875,0.031536,-0.047372,-0.003321,0.030485,-0.047372,-0.243683,-0.550798,-1.259254,-2.267343,1.274331,-7.425644
1790548622.7368,0.014885,0.032241,-0.052513,0.009423,0.031714,-0.052513,-0.070060,-0.402673,-1.035851,-1.117504,1.348691,-7.464455
1790548622.7507,0.029915,0.031273,-0.042119,0.023768,0.031406,-0.042119,0.203122,-0.765701,-0.783310,-1.232488,2.649991,-10.220049
1790548622.7646,0.039313,0.026245,-0.033401,0.034649,0.027794,-0.033401,0.590433,-0.962392,-0.249087,1.910407,4.323091,-13.868301
1790548622.7784,0.040136,0.021175,-0.032457,0.038490,0.023161,-0.032457,0.739773,-0.842192,0.442974,4.056774,4.248731,-10.608161
1790548622.7924,0.047097,0.014291,-0.007509,0.044515,0.016952,-0.007509,0.879399,-0.527729,0.696729,-0.925864,3.319231,-8.667602
1790548622.8067,0.039338,0.023560,0.012385,0.040891,0.021577,0.012385,-0.453729,0.367093,0.859424,-0.274288,3.505131,-12.548721
1790548622.8216,0.039982,0.028821,0.028257,0.040255,0.026648,0.028257,-0.291034,-0.204767,1.022119,-0.695896,2.538451,-12.393476
1790548622.8363,0.043242,0.023724,0.053341,0.042346,0.024601,0.053341,0.532154,-0.441525,1.269804,-0.389272,1.869211,-6.959909
1790548622.8503,0.021578,0.025005,0.081841,0.027808,0.024884,0.081841,0.337891,0.744692,1.443427,2.830278,3.579491,-7.813756
1790548622.8642,0.012922,0.014855,0.095916,0.017388,0.017864,0.095916,0.541867,0.328241,1.587910,0.032335,0.493551,-10.918651
1790548622.8783,0.010739,0.008829,0.101178,0.012734,0.011539,0.101178,0.495730,0.141263,1.501706,-1.462456,1.943571,-9.172147
1790548622.8927,0.018333,0.007550,0.068641,0.016653,0.008747,0.068641,0.012501,-0.173200,1.131392,-2.880591,0.939711,-7.464455
1790548622.9069,0.026770,0.007001,0.058024,0.023735,0.007525,0.058024,-0.161121,-0.510731,0.841212,-1.884064,0.344831,-10.879840
1790548622.9211,0.039780,0.009342,0.051494,0.034967,0.008797,0.051494,-0.299533,-0.842192,0.463614,-1.654096,0.828171,-11.462007
1790548622.9346,0.051440,0.014053,0.053908,0.046498,0.012476,0.053908,-0.383309,-0.924754,0.381052,-0.619240,1.460231,-10.530539
1790548622.9483,0.060407,0.017233,0.055974,0.056234,0.015806,0.055974,-0.254610,-0.738990,0.178291,-0.312616,1.571771,-10.297672
1790548622.9622,0.067635,0.019920,0.064860,0.064214,0.018686,0.064860,-0.127125,-0.613933,0.096943,-0.159304,2.017931,-9.366203
1790548622.9762,0.058676,0.009501,0.061458,0.060337,0.012256,0.061458,0.572221,0.410803,-0.267299,1.833751,0.716631,-12.432287
1790548622.9901,0.056514,0.002136,0.054619,0.057661,0.005172,0.054619,0.506657,0.238394,-0.482203,-0.580912,1.757671,-10.569350
1790548623.0039,0.048626,0.001332,0.082172,0.051337,0.002484,0.082172,0.437451,0.660916,-0.223590,-0.734224,3.653851,-7.813756
1790548623.0178,0.041253,-0.005635,0.085048,0.044278,-0.003199,0.085048,0.705777,0.750762,-0.232089,-1.462456,2.649991,-8.240679
1790548623.0318,0.029142,-0.012908,0.108422,0.033683,-0.009995,0.108422,0.858758,0.822397,-0.320722,0.300631,3.467951,-8.085434
1790548623.0463,0.028168,-0.017027,0.097315,0.029822,-0.014918,0.097315,0.760413,0.384091,-0.432423,-2.229015,5.178231,-8.473546
1790548623.0605,0.036646,-0.020625,0.073370,0.034599,-0.018913,0.073370,0.177625,-0.406315,-0.426352,-1.769080,1.311511,-13.596623
1790548623.0751,0.035971,-0.015862,0.062790,0.035559,-0.016777,0.062790,-0.352955,0.147334,-0.890154,-0.197632,2.017931,-13.907112
1790548623.0892,0.027499,-0.009478,0.082884,0.029917,-0.011667,0.082884,-0.457372,0.364665,-0.953290,2.446998,1.423051,-9.016902
1790548623.1034,0.017046,0.003420,0.095823,0.020907,-0.001106,0.095823,-0.785190,0.629348,-0.819734,0.798895,1.274331,-4.514804
1790548623.1176,0.001954,0.005360,0.075767,0.007640,0.003420,0.075767,-0.463442,0.904958,-0.428780,1.833751,-0.956469,-8.667602
1790548623.1315,-0.006411,0.003218,0.045565,-0.002196,0.003279,0.045565,-0.125911,0.747120,-0.511342,-0.350944,-0.882109,-12.781588
1790548623.1455,-0.006656,0.006020,0.032895,-0.005318,0.005197,0.032895,-0.260681,0.130336,-0.744457,0.223975,1.274331,-11.694875
1790548623.1591,-0.002059,0.001750,0.005838,-0.003037,0.002784,0.005838,0.004002,-0.198697,-0.681322,-0.159304,-0.993649,-10.181238
1790548623.1728,0.011017,-0.008644,-0.020366,0.006801,-0.005216,-0.020366,0.444736,-0.729277,-0.630328,-1.079176,-0.993649,-8.628791
1790548623.1867,0.027357,-0.020598,-0.034297,0.021190,-0.015983,-0.034297,0.642641,-1.027956,-0.414211,-0.810880,-0.324409,-7.580888
1790548623.2007,0.035225,-0.024084,-0.027834,0.031014,-0.021654,-0.027834,0.377958,-0.698923,-0.247873,0.990535,2.166651,-8.473546
1790548623.2152,0.032113,-0.019336,-0.025832,0.031784,-0.020032,-0.025832,-0.257038,0.073271,-0.223590,1.565455,2.501271,-11.733686
1790548623.2293,0.024428,-0.004151,-0.028451,0.026635,-0.008915,-0.028451,-1.088725,0.541930,-0.131316,0.108991,2.612811,-16.934385
1790548623.2436,0.026204,0.007275,-0.035390,0.026333,0.002418,-0.035390,-0.934529,0.155833,-0.048754,-2.267343,0.307651,-8.007811
1790548623.2576,0.024618,0.012923,-0.044175,0.025133,0.009772,-0.044175,-0.627351,0.342811,0.025309,-1.309144,-0.212869,-5.485084
1790548623.2716,0.033732,0.008233,-0.047470,0.031153,0.008695,-0.047470,0.172768,-0.624861,0.245069,-1.309144,0.121751,-12.432287
1790548623.2854,0.030226,0.004186,-0.036652,0.030504,0.005539,-0.036652,0.365817,0.019849,0.688230,1.028863,2.538451,-11.772497
1790548623.2995,0.026968,0.000909,-0.017544,0.028029,0.002298,-0.017544,0.305110,-0.000792,1.241879,0.108991,2.538451,-12.703965
1790548623.3141,0.018825,-0.009012,-0.001421,0.021586,-0.005619,-0.001421,0.632928,0.150976,1.555128,1.143847,0.530731,-7.425644
1790548623.3284,0.004860,-0.007640,0.042683,0.009878,-0.007034,0.042683,0.300253,0.589281,1.199384,1.757095,4.285911,-7.076343
1790548623.3427,-0.003088,-0.008400,0.058353,0.000802,-0.007990,0.058353,0.087778,0.215326,0.969911,1.603783,1.423051,-7.580888
1790548623.3582,0.001295,-0.012169,0.070032,0.001147,-0.010915,0.070032,0.139986,-0.368677,0.827857,-0.542584,0.493551,-12.781588
1790548623.3727,0.008832,-0.010633,0.082337,0.006526,-0.010718,0.082337,-0.159907,-0.533800,0.860639,-1.730752,1.237151,-13.519000
1790548623.3869,0.018869,-0.004562,0.096516,0.015166,-0.006409,0.096516,-0.369953,-0.729277,0.795075,-1.309144,2.129471,-10.258860
1790548623.4015,0.029693,0.002333,0.109991,0.025335,-0.000289,0.109991,-0.385737,-0.941752,0.603240,0.645583,2.017931,-8.473546
1790548623.4168,0.031920,0.004965,0.118105,0.029945,0.003389,0.118105,-0.144123,-0.412386,0.360412,1.718767,1.534591,-8.395923
1790548623.4309,0.035345,0.007088,0.123168,0.033725,0.005979,0.123168,0.065924,-0.458523,0.160079,1.182175,2.761531,-6.804665
1790548623.4450,0.029085,-0.002230,0.119294,0.030477,0.000233,0.119294,0.573435,0.470296,-0.294011,0.032335,1.051251,-13.751868
1790548623.4592,0.021405,-0.009510,0.105424,0.024126,-0.006587,0.105424,0.781053,0.631776,-0.496772,-0.235960,4.285911,-8.939280
1790548623.4733,0.007767,-0.014894,0.094841,0.012675,-0.012402,0.094841,0.696063,1.004518,-0.393570,0.223975,3.914111,-7.348021
1790548623.4876,-0.000116,-0.022995,0.071592,0.003721,-0.019817,0.071592,0.727631,0.807827,-0.482203,-1.615768,2.649991,-8.240679
1790548623.5015,-0.003706,-0.027468,0.057260,-0.001478,-0.025172,0.057260,0.696063,0.524932,-0.671609,-1.845736,5.289771,-8.745224
1790548623.5155,0.000255,-0.029722,0.041639,-0.000265,-0.028357,0.041639,0.205550,-0.125848,-0.602403,-1.117504,2.464091,-14.023546
1790548623.5297,0.003826,-0.022240,0.029153,0.002599,-0.024075,0.029153,-0.512008,-0.128277,-1.061348,0.262303,2.426911,-16.158161
1790548623.5440,-0.002547,-0.016768,0.059646,-0.001003,-0.018960,0.059646,-0.431875,0.252964,-1.086845,3.673494,0.828171,-9.560259
1790548623.5580,-0.015351,-0.011559,0.072725,-0.011046,-0.013779,0.072725,-0.521721,0.699768,-0.929007,2.753622,-0.250049,-6.494175
1790548623.5725,-0.016917,-0.006813,0.063753,-0.015156,-0.008903,0.063753,-0.567859,0.155833,-0.712890,0.568927,-0.919289,-6.338930
1790548623.5867,-0.018220,-0.002898,0.055791,-0.017301,-0.004699,0.055791,-0.446444,0.169188,-0.779667,0.645583,-0.510309,-9.133336
1790548623.6008,-0.016491,-0.006642,0.042110,-0.016734,-0.006059,0.042110,0.104776,0.046560,-0.885298,-0.197632,-0.621849,-12.121798
1790548623.6146,-0.010389,-0.012427,0.034772,-0.012293,-0.010517,0.034772,0.334249,-0.368677,-0.813663,0.607255,0.382011,-10.025993
1790548623.6282,-0.000186,-0.020381,0.029461,-0.003818,-0.017422,0.029461,0.456877,-0.713493,-0.698320,0.645583,-0.064149,-9.676693
1790548623.6420,0.009969,-0.027666,0.025920,0.005833,-0.024593,0.025920,0.442308,-0.792412,-0.482203,1.182175,0.344831,-9.521448
1790548623.6563,0.017292,-0.030041,0.019481,0.013854,-0.028407,0.019481,0.171554,-0.611505,-0.342576,1.373815,1.274331,-9.288581
1790548623.6703,0.008934,-0.027737,0.014297,0.010410,-0.027938,0.014297,-0.180547,0.429015,-0.074251,2.791950,1.497411,-13.363756
1790548623.6842,0.002967,-0.014678,0.012978,0.005200,-0.018656,0.012978,-0.940600,0.492150,0.055662,-1.155832,2.017931,-14.605714
1790548623.6989,0.003071,-0.002813,0.010263,0.003709,-0.007566,0.010263,-0.934529,0.175259,0.106656,-1.960720,-0.026969,-7.930189
1790548623.7130,-0.005369,0.006223,0.011000,-0.002646,0.002087,0.011000,-0.729339,0.713124,0.124868,-0.887536,0.344831,-6.144874
1790548623.7276,-0.019963,0.016384,0.013510,-0.014768,0.012095,0.013510,-0.766978,1.061583,0.269351,-0.734224,0.753811,-8.279490
1790548623.7417,-0.000739,0.007535,0.022846,-0.004948,0.008903,0.022846,0.425310,-1.353346,0.565602,-2.305671,-1.030829,-14.993826
1790548623.7558,-0.003993,0.007967,0.025510,-0.004280,0.008247,0.025510,0.074423,-0.034788,0.893420,1.948735,3.839751,-12.509909
1790548623.7699,-0.013711,0.008411,0.039093,-0.010882,0.008362,0.039093,-0.080988,0.301530,1.422786,1.833751,1.088431,-8.861658
1790548623.7839,-0.007181,0.011582,0.044442,-0.008291,0.010616,0.044442,0.007645,-0.637002,1.432499,-0.465928,2.538451,-4.864105
1790548623.7978,-0.009947,0.013797,0.055632,-0.009450,0.012843,0.055632,-0.080988,-0.106422,1.110752,0.683911,1.237151,-4.281937
1790548623.8117,-0.015890,0.011558,0.068797,-0.013958,0.011944,0.068797,0.137558,0.127907,0.950485,2.217030,1.832031,-11.462007
1790548623.8260,-0.012200,0.008374,0.080466,-0.012728,0.009445,0.080466,0.206764,-0.367463,0.763507,-0.197632,2.129471,-12.859210
1790548623.8405,-0.002243,0.015343,0.089625,-0.005388,0.013574,0.089625,-0.468299,-0.717135,0.625095,-1.424128,2.687171,-13.247322
1790548623.8542,0.008401,0.024283,0.096861,0.004264,0.021070,0.096861,-0.606711,-0.929610,0.515822,0.492271,2.315371,-9.521448
1790548623.8679,0.023734,0.030402,0.105030,0.017893,0.027602,0.105030,-0.465871,-1.221004,0.272994,0.147319,1.385871,-8.706413
1790548623.8818,0.034266,0.036843,0.103551,0.029354,0.034071,0.103551,-0.365097,-0.932039,0.038664,1.373815,2.575631,-8.085434
1790548623.8958,0.030505,0.030729,0.102425,0.030160,0.031731,0.102425,0.384029,0.301530,-0.240588,-0.044320,1.497411,-10.996273
1790548623.9098,0.027792,0.019991,0.083196,0.028502,0.023513,0.083196,0.909752,0.422944,-0.476132,-1.960720,3.653851,-9.366203
1790548623.9238,0.019486,0.016615,0.062504,0.022191,0.018684,0.062504,0.549152,0.687627,-0.428780,-0.197632,4.843611,-7.270399
1790548623.9376,0.008327,0.009417,0.044758,0.012486,0.012197,0.044758,0.704562,0.959595,-0.506485,-0.580912,3.430771,-7.930189
1790548623.9516,0.002659,0.000100,0.019827,0.005607,0.003729,0.019827,0.823548,0.761690,-0.738387,-2.497311,3.058971,-7.969000
1790548623.9655,-0.000049,-0.007181,0.008464,0.001648,-0.003908,0.008464,0.799265,0.467867,-0.752956,-1.424128,3.579491,-6.300119
1790548623.9795,-0.000885,-0.015871,-0.007058,-0.000125,-0.012282,-0.007058,0.719132,0.232324,-0.876799,-0.657568,3.579491,-13.169700
1790548623.9934,0.004266,-0.011427,-0.013177,0.002949,-0.011684,-0.013177,-0.261895,-0.271545,-1.338173,2.025391,4.137191,-18.448022
1790548624.0074,-0.000554,-0.004153,-0.011128,0.000497,-0.006412,-0.011128,-0.490153,0.395019,-1.500868,3.481854,3.096151,-15.420749
1790548624.0213,-0.006872,-0.002826,0.000934,-0.004662,-0.003902,0.000934,-0.310460,0.455726,-1.323603,1.488799,-0.770569,-5.485084
1790548624.0352,-0.014801,-0.003637,0.000845,-0.011759,-0.003717,0.000845,-0.174476,0.592924,-1.094130,1.718767,-1.402628,-7.891378
1790548624.0492,-0.017378,-0.003032,-0.003724,-0.015692,-0.003238,-0.003724,-0.168406,0.229895,-1.081989,1.872079,-0.361589,-10.220049
1790548624.0632,-0.014655,-0.006799,-0.010180,-0.014966,-0.005731,-0.010180,0.131487,-0.122206,-1.097773,1.642111,-0.659029,-11.694875
1790548624.0768,-0.010335,-0.016208,-0.017933,-0.011724,-0.013065,-0.017933,0.544296,-0.204767,-1.062563,0.798895,-0.733389,-11.656063
1790548624.0907,0.002585,-0.026446,-0.021702,-0.001708,-0.022431,-0.021702,0.609859,-0.878616,-0.799094,0.453943,-0.287229,-6.998721
1790548624.1050,0.018618,-0.034871,-0.022027,0.012520,-0.031139,-0.022027,0.521227,-1.117802,-0.444564,0.377287,0.307651,-8.667602
1790548624.1191,0.023563,-0.046617,-0.023385,0.020250,-0.041974,-0.023385,0.801694,-0.303113,-0.221162,-0.504256,0.753811,-9.754315
1790548624.1335,0.012037,-0.037689,-0.027410,0.014501,-0.038975,-0.027410,-0.612782,0.697340,0.016810,2.408670,2.241011,-16.856763
1790548624.1477,0.012873,-0.023286,-0.030020,0.013361,-0.027993,-0.030020,-1.086297,0.073271,0.207430,-3.110559,0.456371,-13.441378
1790548624.1616,0.008939,-0.017230,-0.031085,0.010266,-0.020459,-0.031085,-0.582428,0.403518,0.225642,-2.075704,-0.659029,-9.831937
1790548624.1756,0.000835,-0.012510,-0.031132,0.003664,-0.014895,-0.031132,-0.332315,0.645132,0.217143,-0.504256,0.642271,-4.165504
1790548624.1897,-0.013826,-0.001648,-0.029647,-0.008579,-0.005622,-0.029647,-0.771834,1.071296,0.327630,-0.350944,0.642271,-4.165504
1790548624.2038,-0.005064,0.008237,-0.038184,-0.006118,0.004079,-0.038184,-0.620067,-0.481592,0.547390,-2.343999,2.055111,-6.804665
1790548624.2178,0.002866,0.004231,-0.023729,0.000171,0.004185,-0.023729,0.206764,-0.736562,0.914061,0.147319,1.014071,-17.594175
1790548624.2317,-0.005355,0.002959,-0.019686,-0.003697,0.003327,-0.019686,0.125417,0.133978,1.246736,2.945262,1.608951,-7.464455
1790548624.2459,-0.008040,0.006732,-0.010900,-0.006737,0.005710,-0.010900,-0.158693,-0.333467,1.593980,1.910407,1.571771,-4.437182
1790548624.2601,-0.020568,0.008787,-0.005925,-0.016419,0.007864,-0.005925,-0.071274,0.313671,1.115608,4.210086,1.869211,-5.834385
1790548624.2740,-0.026697,0.003826,0.013805,-0.023613,0.005037,0.013805,0.266257,0.193471,0.937130,1.642111,0.753811,-10.064805
1790548624.2879,-0.027615,-0.005764,0.033882,-0.026414,-0.002523,0.033882,0.579506,-0.040858,0.914061,-0.235960,0.493551,-10.996273
1790548624.3020,-0.021776,-0.002917,0.038052,-0.023167,-0.002799,0.038052,-0.139266,-0.462166,0.923774,-1.385800,3.244871,-11.345574
1790548624.3157,-0.013351,0.001673,0.044907,-0.016296,0.000331,0.044907,-0.277679,-0.775414,0.853354,0.415615,2.501271,-9.366203
1790548624.3297,-0.003426,0.006251,0.044419,-0.007287,0.004475,0.044419,-0.195117,-0.887115,0.633594,0.722239,2.575631,-6.921098
1790548624.3444,0.003458,0.004819,0.057726,0.000235,0.004716,0.057726,0.073209,-0.655214,0.442974,1.412143,1.199971,-8.939280
1790548624.3586,0.002510,0.001680,0.063733,0.001827,0.002590,0.063733,0.226190,-0.102780,0.222000,1.795423,1.571771,-9.133336
1790548624.3726,-0.000931,-0.009330,0.059541,-0.000104,-0.005754,0.059541,0.773769,0.450869,-0.083964,-3.148887,1.534591,-11.462007
1790548624.3865,-0.002167,-0.014618,0.030267,-0.001548,-0.011959,0.030267,0.642641,0.308815,-0.296439,-2.152360,4.434631,-7.930189
1790548624.4004,-0.009741,-0.020654,0.016259,-0.007283,-0.018045,0.016259,0.600146,0.648774,-0.063324,-1.040848,3.430771,-8.900469
1790548624.4143,-0.016053,-0.025307,0.005969,-0.013422,-0.023128,0.005969,0.646284,0.600209,-0.198093,-1.194160,4.620531,-6.959909
1790548624.4282,-0.002807,-0.023756,-0.002492,-0.005991,-0.023568,-0.002492,-0.093129,-0.840978,-0.294011,-1.270816,1.906391,-12.199420
1790548624.4422,0.000121,-0.016997,-0.006326,-0.001713,-0.018968,-0.006326,-0.416091,-0.192626,-0.626686,1.450471,3.505131,-14.528091
1790548624.4562,-0.007133,-0.011850,0.011837,-0.005507,-0.013986,0.011837,-0.470727,0.453298,-0.848874,2.830278,0.047391,-10.258860
1790548624.4702,-0.009159,-0.002738,0.005242,-0.008063,-0.006112,0.005242,-0.718412,0.272390,-0.994571,0.300631,0.307651,-6.727042
1790548624.4845,-0.017862,0.008903,0.001776,-0.014922,0.004398,0.001776,-0.773049,0.602637,-0.700748,1.297159,1.348691,-6.106063
1790548624.4987,-0.028717,0.012357,0.004121,-0.024579,0.009969,0.004121,-0.377238,0.872177,-0.686178,0.530599,-0.473129,-9.521448
1790548624.5126,-0.030952,0.015055,-0.008865,-0.029040,0.013529,-0.008865,-0.263109,0.431443,-0.989714,-1.232488,0.270471,-11.927742
1790548624.5265,-0.029342,0.014491,-0.014185,-0.029252,0.014203,-0.014185,-0.045777,0.045346,-0.919294,0.300631,0.084571,-10.724595
1790548624.5402,-0.021277,0.010093,-0.017237,-0.023670,0.011326,-0.017237,0.170340,-0.409958,-0.846445,-0.427600,-0.844929,-10.918651
1790548624.5538,-0.007789,0.003431,-0.024192,-0.012553,0.005799,-0.024192,0.382815,-0.783913,-0.938720,-0.619240,-0.064149,-8.240679
1790548624.5678,0.005853,-0.002649,-0.030368,0.000331,-0.000114,-0.030368,0.388885,-0.866475,-0.779667,-0.005993,0.679451,-7.969000
1790548624.5818,0.016668,-0.006324,-0.038250,0.011767,-0.004461,-0.038250,0.272328,-0.741418,-0.640041,0.722239,1.646131,-9.366203
1790548624.5960,0.006891,0.000906,-0.051742,0.008354,-0.000704,-0.051742,-0.454943,0.626920,-0.484631,2.523654,2.835891,-11.190329
1790548624.6099,0.001306,0.020441,-0.057662,0.003420,0.014097,-0.057662,-1.382548,0.418087,-0.267299,0.683911,2.724351,-12.548721
1790548624.6238,-0.000083,0.033398,-0.059340,0.000968,0.027608,-0.059340,-1.055944,0.289388,-0.151956,-1.845736,0.047391,-7.969000
1790548624.6377,-0.000301,0.039201,-0.060987,0.000080,0.035723,-0.060987,-0.535077,0.200756,-0.134958,-1.577440,0.121751,-6.843476
1790548624.6515,0.012039,0.032094,-0.055441,0.008451,0.033183,-0.055441,0.467805,-0.850691,0.192860,-1.615768,1.348691,-10.918651
1790548624.6655,0.008392,0.027975,-0.049015,0.008410,0.029537,-0.049015,0.345176,0.067200,0.685802,0.990535,2.612811,-10.142427
1790548624.6794,0.003971,0.024170,-0.034789,0.005303,0.025780,-0.034789,0.313609,0.061130,1.194528,0.722239,3.021791,-12.548721
1790548624.6933,-0.002360,0.016440,-0.014259,-0.000061,0.019242,-0.014259,0.517585,0.078128,1.465281,1.143847,0.753811,-6.222497
1790548624.7072,-0.009161,0.017014,-0.021053,-0.006431,0.017682,-0.021053,0.192194,0.208041,1.109538,1.143847,3.691031,-6.261308
1790548624.7211,-0.012814,0.019789,-0.008101,-0.010899,0.019157,-0.008101,-0.155050,-0.062713,1.014835,2.178703,2.389731,-8.784035
1790548624.7350,-0.010154,0.016932,0.012846,-0.010377,0.017599,0.012846,0.096277,-0.396602,0.812073,1.182175,0.456371,-12.354665
1790548624.7489,-0.001008,0.017163,0.026071,-0.003819,0.017294,0.026071,-0.053062,-0.723206,0.768364,-1.539112,1.794851,-13.324944
1790548624.7629,0.009313,0.025437,0.036910,0.005374,0.022994,0.036910,-0.594570,-0.799697,0.717370,-1.500784,2.092291,-11.500819
1790548624.7767,0.023895,0.032566,0.048713,0.018339,0.029694,0.048713,-0.527792,-1.138443,0.592313,-0.887536,1.497411,-9.288581
1790548624.7904,0.030606,0.037579,0.056904,0.026926,0.035214,0.056904,-0.369953,-0.629717,0.390766,0.377287,1.274331,-7.309210
1790548624.8044,0.025060,0.029613,0.061014,0.025620,0.031293,0.061014,0.475090,0.249322,-0.040255,2.408670,0.530731,-10.685784
1790548624.8186,0.022286,0.021098,0.038506,0.023286,0.024157,0.038506,0.787124,0.184972,-0.244231,0.722239,4.360271,-8.745224
1790548624.8327,0.013601,0.015677,0.021095,0.016506,0.018221,0.021095,0.549152,0.652417,-0.120388,-0.159304,4.360271,-9.676693
1790548624.8470,0.006865,0.004711,0.007372,0.009757,0.008764,0.007372,0.839332,0.641490,-0.241802,-2.075704,2.947431,-10.297672
1790548624.8611,-0.002340,-0.002965,-0.008585,0.001289,0.000553,-0.008585,0.765270,0.715552,-0.280655,-0.044320,3.876931,-7.192776
1790548624.8750,-0.011266,-0.011524,-0.022404,-0.007499,-0.007900,-0.022404,0.759199,0.743477,-0.213877,-0.580912,2.798711,-7.542077
1790548624.8889,-0.011200,-0.019769,-0.031376,-0.010089,-0.016209,-0.031376,0.874542,0.194685,-0.215091,-1.999048,4.546171,-6.843476
1790548624.9030,-0.006088,-0.015861,-0.034581,-0.007289,-0.015965,-0.034581,-0.219400,-0.343180,-0.568407,1.488799,3.616671,-15.770049
1790548624.9169,-0.009954,-0.007521,-0.028294,-0.009154,-0.010054,-0.028294,-0.559360,0.240823,-0.807593,3.635166,3.170511,-14.566903
1790548624.9308,-0.015217,-0.003189,-0.010586,-0.013398,-0.005249,-0.010586,-0.323816,0.274819,-0.885298,2.217030,0.790991,-5.717951
1790548624.9448,-0.021841,-0.000490,0.002662,-0.019308,-0.001917,0.002662,-0.376024,0.492150,-0.814878,1.412143,-1.030829,-7.464455
1790548624.9587,-0.034968,0.002478,0.012802,-0.030270,0.001159,0.012802,-0.325030,0.777473,-0.592690,3.251886,-0.287229,-6.727042
1790548624.9726,-0.037312,0.006989,0.015329,-0.035199,0.005240,0.015329,-0.429446,0.251750,-0.691035,1.028863,-0.324409,-12.160609
1790548624.9864,-0.037707,0.006769,0.016011,-0.036955,0.006310,0.016011,-0.102842,0.133978,-0.795451,0.952207,-0.659029,-12.082986
1790548625.0000,-0.031641,0.001228,0.017506,-0.033235,0.002753,0.017506,0.296611,-0.362606,-0.677679,0.645583,-0.324409,-10.064805
1790548625.0135,-0.016857,-0.006978,0.012140,-0.021770,-0.004059,0.012140,0.509086,-0.902899,-0.608473,-1.079176,-0.101329,-7.891378
1790548625.0274,-0.005180,-0.017054,0.010621,-0.010157,-0.013156,0.010621,0.687564,-0.848263,-0.466419,0.952207,0.679451,-8.473546
1790548625.0415,0.006039,-0.024156,0.006059,0.001180,-0.020856,0.006059,0.520013,-0.828837,-0.314651,0.875551,1.385871,-9.055714
1790548625.0554,0.003677,-0.022778,-0.001160,0.002928,-0.022201,-0.001160,-0.068846,0.129122,-0.215091,1.680439,2.724351,-15.071448
1790548625.0693,-0.001064,-0.008031,-0.004865,0.000134,-0.012282,-0.004865,-1.087511,0.449655,0.015596,-2.343999,1.497411,-14.411658
1790548625.0832,0.001266,0.003091,-0.015946,0.000926,-0.001521,-0.015946,-0.876251,0.030776,0.030165,-3.225543,0.270471,-9.909560
1790548625.0976,-0.000040,0.008561,-0.025766,0.000250,0.005536,-0.025766,-0.408806,0.266320,0.096943,-1.577440,0.567911,-5.058161
1790548625.1115,-0.003786,0.011438,-0.024892,-0.002575,0.009667,-0.024892,-0.257038,0.351310,0.252353,-1.500784,0.753811,-8.240679
1790548625.1254,-0.000629,0.008678,-0.012562,-0.001213,0.008975,-0.012562,0.079279,-0.331038,0.571673,0.108991,-0.138509,-12.703965
1790548625.1393,0.004991,0.009288,0.001627,0.003129,0.009194,0.001627,-0.046992,-0.513160,0.994194,-1.040848,1.683311,-10.103616
1790548625.1533,0.003538,0.006392,0.017449,0.003415,0.007232,0.017449,0.127845,-0.236335,1.251592,1.718767,0.270471,-8.395923
1790548625.1673,-0.002157,0.001998,0.037950,-0.000486,0.003568,0.037950,0.295397,0.181330,1.447069,-0.044320,0.976891,-6.998721
1790548625.1811,-0.010141,0.003447,0.046817,-0.007245,0.003484,0.046817,-0.063990,0.340382,1.084041,0.913879,1.832031,-7.619700
1790548625.1951,-0.003450,0.002017,0.062060,-0.004588,0.002457,0.062060,0.081708,-0.593293,0.963841,-0.772552,1.571771,-10.763406
1790548625.2091,0.002175,0.003329,0.076109,0.000146,0.003067,0.076109,-0.108913,-0.542299,0.877637,-0.159304,2.055111,-14.139979
1790548625.2226,0.012438,0.010029,0.090295,0.008750,0.007941,0.090295,-0.541147,-0.816695,0.753794,-1.615768,1.199971,-13.169700
1790548625.2363,0.025831,0.018014,0.097900,0.020707,0.014992,0.097900,-0.524149,-1.115374,0.603240,-0.044320,2.241011,-8.745224
1790548625.2498,0.038920,0.026851,0.101994,0.033456,0.023293,0.101994,-0.588499,-1.097162,0.379838,0.262303,2.166651,-8.279490
1790548625.2637,0.038733,0.026522,0.103125,0.037150,0.025554,0.103125,-0.068846,-0.110064,0.062947,1.718767,0.419191,-12.393476
1790548625.2776,0.033146,0.015139,0.099739,0.034347,0.018263,0.099739,0.778625,0.493364,-0.287940,-0.964192,1.571771,-11.617252
1790548625.2914,0.025192,0.012033,0.070909,0.027939,0.013902,0.070909,0.460520,0.618421,-0.249087,-0.044320,4.769251,-7.891378
1790548625.3054,0.013383,0.003500,0.060495,0.017749,0.006621,0.060495,0.687564,0.890389,-0.216305,-0.082648,2.835891,-9.443825
1790548625.3195,0.000545,-0.004184,0.040820,0.005706,-0.000943,0.040820,0.736130,1.042156,-0.228447,-1.117504,3.876931,-7.813756
1790548625.3336,-0.010674,-0.012232,0.025645,-0.005760,-0.008845,0.025645,0.749486,0.884318,-0.252730,-0.504256,4.100011,-9.016902
1790548625.3485,-0.007983,-0.020364,0.006387,-0.007316,-0.016908,0.006387,0.723989,0.041703,-0.535625,-2.918919,5.141051,-11.190329
1790548625.3628,-0.001211,-0.020872,-0.004868,-0.003042,-0.019683,-0.004868,0.133916,-0.368677,-0.584191,-0.580912,4.137191,-13.907112
1790548625.3768,-0.000434,-0.013874,-0.014312,-0.001217,-0.015617,-0.014312,-0.402735,-0.004434,-0.888940,1.642111,3.988471,-13.169700
1790548625.3910,-0.001254,-0.009397,-0.019515,-0.001243,-0.011263,-0.019515,-0.357812,0.106053,-0.954504,1.412143,0.753811,-9.405014
1790548625.4051,-0.010004,-0.004298,-0.020343,-0.007375,-0.006387,-0.020343,-0.465871,0.645132,-0.939934,1.680439,-0.175689,-7.969000
1790548625.4191,-0.020768,0.000614,-0.013327,-0.016750,-0.001486,-0.013327,-0.480440,0.673057,-0.655825,2.485326,-0.473129,-6.765853
1790548625.4335,-0.025626,0.007881,-0.016915,-0.022963,0.005071,-0.016915,-0.584856,0.408374,-0.742029,0.990535,0.047391,-8.512357
1790548625.4488,-0.025725,0.009690,-0.023577,-0.024896,0.008304,-0.023577,-0.233969,0.180116,-0.871942,-0.197632,-0.882109,-11.772497
1790548625.4634,-0.018961,0.004242,-0.030390,-0.020742,0.005461,-0.030390,0.271114,-0.271545,-0.799094,-0.887536,-0.398769,-10.452916
1790548625.4775,-0.006602,-0.004679,-0.035251,-0.010844,-0.001637,-0.035251,0.533368,-0.704994,-0.669180,-0.887536,-0.138509,-8.395923
1790548625.4921,0.004610,-0.014951,-0.040138,-0.000026,-0.010957,-0.040138,0.705777,-0.728063,-0.442136,0.262303,1.311511,-8.900469
1790548625.5066,0.013654,-0.019520,-0.045890,0.009550,-0.016951,-0.045890,0.348819,-0.643073,-0.323150,0.798895,1.832031,-9.288581
1790548625.5204,0.010650,-0.016788,-0.050383,0.010320,-0.016837,-0.050383,-0.178119,0.113338,-0.120388,1.987063,1.832031,-10.414105
1790548625.5341,0.005658,-0.002953,-0.054923,0.007057,-0.007118,-0.054923,-1.009806,0.498221,-0.025685,-2.497311,1.943571,-12.393476
1790548625.5481,0.007482,0.007464,-0.053733,0.007354,0.003090,-0.053733,-0.822828,-0.002006,0.093301,-2.152360,0.270471,-9.016902
1790548625.5622,0.007415,0.012218,-0.050611,0.007397,0.009480,-0.050611,-0.447658,0.110909,0.201359,-1.500784,-0.064149,-6.494175
1790548625.5763,0.013126,0.009985,-0.042069,0.011407,0.009834,-0.042069,0.075637,-0.450024,0.387123,-0.580912,0.344831,-11.112707
1790548625.5908,0.014142,0.008497,-0.029586,0.013321,0.008898,-0.029586,0.097491,-0.203553,0.806002,-0.197632,1.608951,-11.073895
1790548625.6049,0.010629,0.006767,-0.013983,0.011437,0.007406,-0.013983,0.143629,0.053845,1.160532,-0.005993,1.906391,-10.375294
1790548625.6188,0.015056,0.003571,0.005613,0.013970,0.004721,0.005613,0.176411,-0.430598,1.246736,-1.194160,0.419191,-7.153965
1790548625.6329,0.008047,0.003322,-0.000460,0.009824,0.003741,-0.000460,0.153342,0.030776,1.160532,1.335487,0.976891,-2.496623
1790548625.6468,0.003167,0.000234,0.013252,0.005164,0.001286,0.013252,0.207978,0.098768,1.043974,1.258831,1.199971,-9.055714
1790548625.6608,0.005658,-0.001925,0.031410,0.005510,-0.000961,0.031410,0.108419,-0.314040,1.075542,-0.772552,1.051251,-12.626343
1790548625.6746,0.011930,0.001044,0.050263,0.010004,0.000442,0.050263,-0.271608,-0.547156,1.041546,-1.845736,0.865351,-13.790679
1790548625.6882,0.022167,0.006107,0.068010,0.018518,0.004407,0.068010,-0.399093,-0.797269,0.967483,-1.922392,0.902531,-9.133336
1790548625.7018,0.035930,0.011254,0.083173,0.030706,0.009200,0.083173,-0.372382,-1.116588,0.830285,-0.887536,1.125611,-8.007811
1790548625.7158,0.042695,0.016802,0.089588,0.039098,0.014521,0.089588,-0.384523,-0.729277,0.637236,1.335487,1.274331,-8.357112
1790548625.7297,0.037003,0.011023,0.094370,0.037631,0.012072,0.094370,0.336677,0.325813,0.300919,0.300631,0.382011,-12.393476
1790548625.7438,0.033211,0.002443,0.091174,0.034537,0.005332,0.091174,0.733702,0.393805,0.048377,-2.420655,3.616671,-9.366203
1790548625.7578,0.022700,-0.003655,0.081709,0.026251,-0.000959,0.081709,0.647498,0.717980,0.106656,0.147319,4.434631,-8.046623
1790548625.7718,0.013620,-0.014434,0.078793,0.017409,-0.010391,0.078793,0.884255,0.775045,0.123654,-1.654096,2.315371,-6.843476
1790548625.7857,0.002438,-0.022435,0.074706,0.006929,-0.018822,0.074706,0.783482,0.868534,0.158864,-1.040848,3.765391,-7.231588
1790548625.7996,-0.003166,-0.030173,0.071887,-0.000138,-0.026767,0.071887,0.810193,0.464225,0.127297,-0.964192,4.583351,-7.580888
1790548625.8136,0.006548,-0.030738,0.071557,0.004542,-0.029547,0.071557,0.093849,-0.649143,0.054448,-1.922392,4.397451,-20.155714
1790548625.8276,-0.001561,-0.021668,0.070562,0.000270,-0.024032,0.070562,-0.548432,0.497007,-0.518627,4.325070,5.029511,-15.886483
1790548625.8418,-0.008868,-0.014669,0.065512,-0.006127,-0.017478,0.065512,-0.592141,0.545572,-0.575692,0.913879,-0.287229,-9.288581
1790548625.8562,-0.010124,-0.002653,0.050057,-0.008925,-0.007101,0.050057,-0.871394,0.329455,-0.712890,-1.539112,0.567911,-7.386832
1790548625.8703,-0.023690,-0.000043,0.055502,-0.019260,-0.002160,0.055502,-0.385737,0.743477,-0.423924,3.328542,-1.402628,-5.679140
1790548625.8842,-0.032218,0.001983,0.054000,-0.028331,0.000740,0.054000,-0.294677,0.569855,-0.377786,1.987063,-0.993649,-9.172147
1790548625.8982,-0.036171,0.012439,0.045778,-0.033819,0.008929,0.045778,-0.783976,0.373164,-0.691035,1.143847,0.976891,-12.936833
1790548625.9120,-0.037077,0.016760,0.039263,-0.036099,0.014411,0.039263,-0.386951,0.154619,-0.683750,1.105519,0.121751,-12.277042
1790548625.9256,-0.033721,0.015975,0.034858,-0.034435,0.015506,0.034858,-0.051848,-0.074854,-0.624257,-0.619240,-0.324409,-9.521448
1790548625.9392,-0.025764,0.011469,0.032071,-0.028365,0.012680,0.032071,0.229833,-0.544727,-0.463990,0.530599,-0.064149,-6.921098
1790548625.9530,-0.021135,0.009810,0.026514,-0.023304,0.010671,0.026514,0.115703,-0.323753,-0.393570,0.837223,1.162791,-7.852567
1790548625.9669,-0.012638,0.011331,0.023125,-0.015838,0.011133,0.023125,-0.124697,-0.605434,-0.321936,0.798895,1.311511,-9.482637
1790548625.9808,-0.006532,0.015312,0.020239,-0.009324,0.014059,0.020239,-0.306818,-0.403887,-0.324364,0.377287,1.534591,-11.229140
1790548625.9947,-0.001916,0.020003,0.018318,-0.004138,0.018220,0.018318,-0.308032,-0.295828,-0.124031,-0.274288,2.203831,-9.560259
1790548626.0085,0.004261,0.019620,0.017453,0.001741,0.019200,0.017453,0.070780,-0.377176,-0.060895,-1.309144,3.058971,-12.121798
1790548626.0223,0.005719,0.016151,0.019534,0.004526,0.017066,0.019534,0.320894,-0.280044,0.491539,1.642111,3.467951,-12.005364
1790548626.0362,0.003663,0.014489,0.026903,0.003922,0.015262,0.026903,0.188552,-0.117349,0.926202,1.795423,2.947431,-10.258860
1790548626.0501,0.001748,0.012636,0.039060,0.002400,0.013424,0.039060,0.205550,-0.129491,1.207883,0.837223,2.426911,-8.279490
1790548626.0640,-0.009170,0.010558,0.052870,-0.005699,0.011418,0.052870,0.217691,0.438728,1.470138,1.067191,1.683311,-5.601518
1790548626.0778,-0.013078,0.009726,0.067487,-0.010864,0.010233,0.067487,0.124202,0.121837,1.466495,-1.040848,2.649991,-8.473546
1790548626.0917,-0.012343,0.009687,0.087443,-0.011899,0.009851,0.087443,0.022215,-0.244834,1.609764,-1.040848,2.166651,-8.784035
1790548626.1061,-0.015723,0.010246,0.111445,-0.014576,0.010128,0.111445,-0.111341,-0.006862,1.535702,-0.082648,1.051251,-11.267951
1790548626.1202,-0.005895,0.011852,0.133354,-0.008499,0.011335,0.133354,-0.157478,-0.839764,1.354794,-1.884064,1.646131,-12.160609
1790548626.1340,0.005758,0.018938,0.151534,0.001481,0.016657,0.151534,-0.521721,-0.983033,1.137463,-1.194160,1.720491,-10.025993
1790548626.1477,0.021883,0.027256,0.167552,0.015762,0.024076,0.167552,-0.656491,-1.280497,0.798717,-1.040848,0.790991,-8.512357
1790548626.1613,0.031903,0.033575,0.179498,0.027061,0.030725,0.179498,-0.502295,-0.918683,0.627523,0.415615,0.939711,-9.055714
1790548626.1752,0.034308,0.034969,0.186696,0.032134,0.033696,0.186696,-0.142909,-0.358964,0.413834,1.412143,1.051251,-10.530539
1790548626.1892,0.028869,0.027778,0.188177,0.029849,0.029554,0.188177,0.495730,0.358594,0.130939,-0.044320,1.869211,-12.315854
1790548626.2030,0.025060,0.020374,0.183201,0.026497,0.023128,0.183201,0.640213,0.362237,-0.056039,-1.539112,3.876931,-10.375294
1790548626.2168,0.017310,0.011905,0.175020,0.020066,0.015272,0.175020,0.768912,0.629348,-0.130101,-0.695896,4.211551,-9.327392
1790548626.2306,0.010044,0.003537,0.165468,0.013050,0.007057,0.165468,0.816263,0.609922,-0.184738,-0.580912,3.579491,-6.338930
1790548626.2446,0.001283,-0.004151,0.156705,0.004813,-0.000788,0.156705,0.761627,0.734978,-0.178667,-0.849208,3.691031,-6.649420
1790548626.2584,-0.003948,-0.013357,0.146752,-0.001319,-0.009586,0.146752,0.822334,0.567427,-0.261229,-1.999048,3.430771,-8.085434
1790548626.2723,0.000368,-0.021366,0.138354,-0.000138,-0.017832,0.138354,0.672995,-0.173200,-0.392356,-1.654096,3.653851,-12.005364
1790548626.2863,0.004040,-0.018092,0.132464,0.002787,-0.018014,0.132464,-0.118626,-0.213266,-0.723817,1.067191,4.694891,-13.674245
1790548626.3002,-0.002527,-0.011257,0.131690,-0.000933,-0.013284,0.131690,-0.373596,0.438728,-0.915651,3.021918,3.691031,-10.258860
1790548626.3142,-0.002190,-0.007877,0.115405,-0.001813,-0.009499,0.115405,-0.320174,0.183758,-1.013997,-0.772552,0.121751,-9.327392
1790548626.3282,-0.011159,-0.004211,0.110628,-0.008355,-0.005797,0.110628,-0.368739,0.676700,-0.926579,1.297159,-0.250049,-6.571797
1790548626.3423,-0.023438,-0.001095,0.114519,-0.018913,-0.002505,0.114519,-0.323816,0.747120,-0.703176,3.635166,-0.398769,-7.930189
1790548626.3567,-0.024598,0.003400,0.104508,-0.022893,0.001629,0.104508,-0.424590,0.250536,-0.836732,-0.312616,-0.733389,-10.608161
1790548626.3709,-0.024324,0.003421,0.097249,-0.023895,0.002883,0.097249,-0.106485,0.084198,-0.794237,0.875551,-0.621849,-12.509909
1790548626.3847,-0.013990,-0.001691,0.088848,-0.016961,-0.000318,0.088848,0.267471,-0.558083,-0.727459,-1.194160,-0.361589,-9.831937
1790548626.3984,-0.001310,-0.009948,0.085759,-0.006005,-0.007059,0.085759,0.512728,-0.864047,-0.511342,0.108991,-0.026969,-8.784035
1790548626.4123,0.008973,-0.017819,0.084967,0.004480,-0.014591,0.084967,0.521227,-0.726849,-0.252730,0.185647,0.605091,-8.784035
1790548626.4262,0.016016,-0.019231,0.080010,0.012555,-0.017839,0.080010,0.226190,-0.562939,-0.037827,0.722239,3.021791,-8.512357
1790548626.4402,0.011573,-0.014540,0.081898,0.011868,-0.015530,0.081898,-0.345671,0.300316,0.152794,-0.159304,1.906391,-15.110259
1790548626.4542,0.007084,-0.003366,0.083975,0.008519,-0.007015,0.083975,-0.817972,0.352524,0.241426,-1.654096,1.832031,-15.071448
1790548626.4681,0.008298,0.004916,0.087074,0.008364,0.001337,0.087074,-0.697772,0.008922,0.337343,-1.769080,-0.101329,-6.882287
1790548626.4820,0.005292,0.010002,0.091372,0.006213,0.007402,0.091372,-0.408806,0.261463,0.406549,-1.040848,0.530731,-5.640329
1790548626.4960,0.002484,0.009361,0.100814,0.003603,0.008773,0.100814,0.016144,0.118194,0.697944,-0.389272,0.902531,-7.580888
1790548626.5099,0.006501,0.004570,0.114575,0.005631,0.005831,0.114575,0.333035,-0.409958,0.928631,-0.810880,1.832031,-12.626343
1790548626.5237,0.004087,0.003772,0.133066,0.004550,0.004390,0.133066,0.074423,-0.077283,1.359651,0.568927,2.129471,-11.423196
1790548626.5377,-0.004478,0.001417,0.153856,-0.001769,0.002308,0.153856,0.130273,0.260249,1.602479,1.603783,0.976891,-9.405014
1790548626.5516,-0.011010,-0.000534,0.167889,-0.008238,0.000319,0.167889,0.288112,0.214112,1.381506,0.760567,3.691031,-8.201867
1790548626.5655,-0.018576,0.000261,0.182473,-0.015475,0.000278,0.182473,-0.060347,0.255392,1.115608,1.987063,1.683311,-9.055714
1790548626.5794,-0.017011,-0.002193,0.196470,-0.016550,-0.001452,0.196470,0.135130,-0.306755,0.915275,1.105519,1.385871,-11.423196
1790548626.5933,-0.006819,-0.001475,0.206856,-0.009739,-0.001468,0.206856,-0.029994,-0.781485,0.764721,-1.385800,2.464091,-11.306763
1790548626.6072,0.003004,0.005498,0.217373,-0.000819,0.003408,0.217373,-0.512008,-0.791198,0.638451,-0.542584,1.980751,-13.053266
1790548626.6211,0.013698,0.012604,0.225279,0.009343,0.009845,0.225279,-0.516865,-0.868903,0.410192,0.223975,1.832031,-11.500819
1790548626.6352,0.020261,0.016123,0.227545,0.016986,0.014239,0.227545,-0.218186,-0.613933,0.099371,1.680439,1.980751,-8.745224
1790548626.6492,0.021192,0.014103,0.224853,0.019930,0.014144,0.224853,0.160627,-0.046929,-0.165312,-0.044320,1.980751,-9.599070
1790548626.6632,0.019809,0.005551,0.213979,0.019846,0.008129,0.213979,0.704562,0.166760,-0.507700,0.147319,3.133331,-9.016902
1790548626.6772,0.011472,0.000180,0.199892,0.013984,0.002565,0.199892,0.534583,0.663344,-0.542910,0.415615,4.062831,-9.133336
1790548626.6911,0.005269,-0.007751,0.182728,0.007884,-0.004656,0.182728,0.693635,0.637847,-0.649754,-1.232488,3.096151,-8.163056
1790548626.7051,0.000121,-0.015910,0.164033,0.002450,-0.012534,0.164033,0.715490,0.596566,-0.765098,-1.577440,3.133331,-8.318301
1790548626.7189,-0.010149,-0.023621,0.150977,-0.006369,-0.020295,0.150977,0.693635,0.856393,-0.722603,0.032335,2.873071,-7.969000
1790548626.7329,-0.007981,-0.031387,0.134921,-0.007498,-0.028059,0.134921,0.788338,0.076913,-0.624257,-2.573967,5.326951,-9.405014
1790548626.7468,-0.000212,-0.028630,0.122493,-0.002397,-0.028459,0.122493,-0.127125,-0.426955,-0.818520,-0.619240,3.319231,-13.751868
1790548626.7607,-0.003077,-0.021159,0.118995,-0.002873,-0.023349,0.118995,-0.491368,0.218968,-1.017639,2.753622,2.798711,-13.247322
1790548626.7746,-0.006454,-0.016046,0.117665,-0.005380,-0.018237,0.117665,-0.407592,0.238394,-1.088060,2.715294,0.679451,-10.181238
1790548626.7886,-0.011465,-0.011908,0.110476,-0.009639,-0.013807,0.110476,-0.423376,0.438728,-1.057706,1.067191,-0.659029,-7.736133
1790548626.8025,-0.019420,-0.010080,0.113482,-0.016485,-0.011198,0.113482,-0.299533,0.478795,-0.791809,2.523654,-1.105189,-6.377742
1790548626.8164,-0.018049,-0.008993,0.106164,-0.017580,-0.009654,0.106164,-0.181761,0.008922,-0.814878,0.415615,-0.473129,-9.831937
1790548626.8304,-0.014171,-0.012689,0.095718,-0.015194,-0.011779,0.095718,0.159413,-0.122206,-0.925364,-0.159304,-0.621849,-11.345574
1790548626.8441,-0.006817,-0.021582,0.087173,-0.009330,-0.018641,0.087173,0.552795,-0.419671,-0.880441,0.147319,-0.435949,-11.539630
1790548626.8582,0.007921,-0.031504,0.080716,0.002746,-0.027645,0.080716,0.641427,-0.957536,-0.710461,-0.120976,0.158931,-8.589979
1790548626.8722,0.020416,-0.039028,0.077433,0.015115,-0.035613,0.077433,0.522441,-0.928396,-0.425138,1.067191,0.902531,-8.628791
1790548626.8862,0.009557,-0.038345,0.073723,0.011224,-0.037526,0.073723,-0.055491,0.707053,-0.223590,2.332014,1.646131,-14.139979
1790548626.9002,0.008109,-0.022242,0.072391,0.009044,-0.026827,0.072391,-1.166431,0.172831,0.042307,-2.190688,1.943571,-17.283686
1790548626.9141,0.010655,-0.011616,0.072768,0.010172,-0.016179,0.072768,-0.881107,-0.090638,0.038664,-1.500784,-0.435949,-8.745224
1790548626.9280,0.008906,-0.008055,0.068854,0.009286,-0.010492,0.068854,-0.444016,0.284532,0.166149,-1.807408,-1.030829,-5.640329
1790548626.9418,-0.002217,-0.002767,0.071092,0.001234,-0.005085,0.071092,-0.411234,0.841823,0.281493,-0.389272,0.382011,-3.505713
1790548626.9557,0.002775,-0.004864,0.078635,0.002312,-0.004930,0.078635,0.098706,-0.322539,0.551032,-3.148887,1.051251,-14.993826
1790548626.9696,0.008190,-0.003510,0.092082,0.006426,-0.003936,0.092082,-0.129553,-0.507089,0.886136,-0.695896,1.423051,-14.178791
1790548626.9835,0.008237,-0.001148,0.108018,0.007694,-0.001984,0.108018,-0.174476,-0.184127,1.128964,-0.005993,1.608951,-11.423196
1790548626.9973,0.007621,-0.002398,0.124291,0.007643,-0.002274,0.124291,0.149699,-0.220551,1.284374,0.683911,1.683311,-6.804665
1790548627.0112,0.000865,-0.003633,0.134325,0.002899,-0.003225,0.134325,0.093849,0.086627,1.239451,3.021918,1.274331,-8.124245
1790548627.0252,-0.005667,-0.004753,0.145573,-0.003097,-0.004294,0.145573,0.079279,0.110909,1.150819,2.446998,1.199971,-7.503266
1790548627.0391,-0.004155,-0.006789,0.163150,-0.003837,-0.006041,0.163150,0.081708,-0.186555,1.091326,-1.577440,0.679451,-11.035084
1790548627.0531,-0.003322,-0.001051,0.181413,-0.003477,-0.002548,0.181413,-0.505937,-0.117349,1.115608,-2.229015,0.158931,-11.888930
1790548627.0665,0.004196,0.003022,0.200100,0.001894,0.001351,0.200100,-0.368739,-0.662499,1.144748,-1.539112,0.679451,-11.112707
1790548627.0801,0.012910,0.005946,0.214673,0.009605,0.004568,0.214673,-0.238826,-0.871331,1.025762,0.645583,1.088431,-9.249770
1790548627.0940,0.013405,0.011574,0.224757,0.012265,0.009472,0.224757,-0.413662,-0.289757,0.911633,1.412143,1.274331,-9.210958
1790548627.1080,0.016317,0.009912,0.235177,0.015102,0.009780,0.235177,0.039213,-0.315254,0.595956,-0.082648,0.270471,-10.879840
1790548627.1219,0.008773,0.000278,0.235319,0.010672,0.003129,0.235319,0.773769,0.595352,0.140652,-1.347472,3.319231,-11.112707
1790548627.1358,0.005107,-0.005444,0.224508,0.006777,-0.002872,0.224508,0.659639,0.362237,-0.154384,-1.232488,5.624391,-8.667602
1790548627.1498,-0.002761,-0.008719,0.212884,0.000100,-0.006965,0.212884,0.501801,0.541930,-0.221162,1.143847,5.921830,-8.589979
1790548627.1636,-0.008834,-0.013124,0.200157,-0.006153,-0.011276,0.200157,0.552795,0.562570,-0.467633,-0.695896,4.992331,-8.473546
1790548627.1776,-0.012198,-0.018029,0.190465,-0.010384,-0.016003,0.190465,0.652354,0.299101,-0.468847,0.300631,5.512851,-7.309210
1790548627.1915,-0.008894,-0.022671,0.183021,-0.009341,-0.020671,0.183021,0.518799,-0.186555,-0.487059,0.415615,4.806431,-10.258860
1790548627.2055,-0.001177,-0.018669,0.173757,-0.003626,-0.019269,0.173757,-0.232755,-0.481592,-0.899867,1.297159,3.467951,-15.575993
1790548627.2193,-0.002161,-0.011725,0.169509,-0.002600,-0.013988,0.169509,-0.514436,0.065986,-1.054064,3.405198,1.608951,-12.898021
1790548627.2332,-0.002694,-0.009372,0.161583,-0.002666,-0.010757,0.161583,-0.283749,0.120623,-1.143910,1.373815,-0.435949,-9.288581
1790548627.2471,-0.004498,-0.006098,0.156393,-0.003948,-0.007496,0.156393,-0.314103,0.147334,-0.929007,1.335487,0.084571,-6.300119
1790548627.2609,-0.017220,-0.004076,0.153822,-0.013238,-0.005102,0.153822,-0.215757,0.777473,-0.665538,3.290214,0.121751,-6.882287
1790548627.2748,-0.017829,-0.005044,0.145029,-0.016452,-0.005061,0.145029,-0.015424,0.211683,-0.790595,-0.657568,-0.175689,-12.587532
1790548627.2888,-0.017609,-0.007437,0.138377,-0.017262,-0.006724,0.138377,0.101134,0.070843,-0.814878,1.067191,0.121751,-12.936833
1790548627.3025,-0.009951,-0.009291,0.133728,-0.012144,-0.008521,0.133728,0.092635,-0.469450,-0.573263,-0.005993,0.679451,-9.987182
1790548627.3162,0.000150,-0.014342,0.130992,-0.003538,-0.012595,0.130992,0.307538,-0.635788,-0.372930,-0.695896,0.344831,-8.279490
1790548627.3302,0.009599,-0.019587,0.125047,0.005658,-0.017490,0.125047,0.427738,-0.603006,-0.187166,-0.695896,1.720491,-7.503266
1790548627.3443,0.009284,-0.020747,0.121928,0.008196,-0.019770,0.121928,0.148485,-0.019004,-0.013544,0.683911,2.501271,-9.948371
1790548627.3587,0.004258,-0.009740,0.123889,0.005440,-0.012749,0.123889,-0.781548,0.347667,0.166149,-0.504256,1.683311,-14.450469
1790548627.3727,0.001709,0.002422,0.124064,0.002828,-0.002129,0.124064,-0.990380,0.289388,0.311846,-2.688951,-0.435949,-10.530539
1790548627.3866,-0.000380,0.008402,0.125590,0.000582,0.005243,0.125590,-0.565430,0.240823,0.316703,-1.845736,-0.510309,-7.930189
1790548627.4005,-0.005739,0.012718,0.127482,-0.003843,0.010476,0.127482,-0.331101,0.443584,0.340986,-1.002520,0.790991,-5.679140
1790548627.4144,-0.004047,0.010429,0.135168,-0.003986,0.010443,0.135168,0.019786,-0.148917,0.581386,-1.309144,-0.733389,-11.306763
1790548627.4282,-0.001438,0.005470,0.147591,-0.002202,0.006962,0.147591,0.302681,-0.322539,0.827857,-0.120976,1.162791,-14.256413
1790548627.4425,-0.006171,0.005841,0.163719,-0.004980,0.006177,0.163719,0.017358,0.046560,1.298944,1.297159,2.389731,-9.288581
1790548627.4563,-0.016664,0.002592,0.176681,-0.013159,0.003668,0.176681,0.323322,0.331883,1.517489,2.140375,2.092291,-5.834385
1790548627.4701,-0.025795,-0.000347,0.186677,-0.022004,0.000858,0.186677,0.350033,0.510362,1.335368,-0.504256,3.542311,-7.619700
1790548627.4840,-0.030141,-0.003476,0.202356,-0.027700,-0.002176,0.202356,0.210407,0.126693,1.205455,0.377287,2.055111,-10.724595
1790548627.4980,-0.034535,-0.006903,0.214647,-0.032484,-0.005485,0.214647,0.237118,0.126693,0.901919,1.373815,2.092291,-10.918651
1790548627.5119,-0.031072,-0.009663,0.225056,-0.031496,-0.008409,0.225056,0.176411,-0.345608,0.734368,0.108991,2.017931,-12.432287
1790548627.5262,-0.020621,-0.005312,0.231255,-0.023884,-0.006241,0.231255,-0.288606,-0.738990,0.523107,-1.424128,2.575631,-11.850119
1790548627.5423,-0.001782,0.004041,0.235685,-0.008412,0.000956,0.235685,-0.565430,-1.155441,0.218357,-1.155832,2.055111,-10.064805
1790548627.5567,0.009733,0.010141,0.237215,0.004289,0.007386,0.237215,-0.425804,-0.816695,-0.056039,0.185647,1.460231,-8.822846
1790548627.5708,0.015248,0.008270,0.236952,0.011960,0.008005,0.236952,0.086564,-0.426955,-0.247873,1.143847,0.976891,-10.414105
1790548627.5857,0.013549,0.000603,0.229304,0.013072,0.002824,0.229304,0.522441,0.158261,-0.525912,0.683911,1.869211,-10.220049
1790548627.5998,0.009230,-0.006058,0.213418,0.010383,-0.003394,0.213418,0.615930,0.471510,-0.665538,-0.964192,3.765391,-8.745224
1790548627.6135,0.000762,-0.010876,0.200770,0.003648,-0.008631,0.200770,0.540653,0.704625,-0.546552,0.070663,4.248731,-8.589979
1790548627.6276,-0.002381,-0.018729,0.183896,-0.000572,-0.015700,0.183896,0.682708,0.449655,-0.607259,-2.075704,3.207691,-8.939280
1790548627.6416,-0.009472,-0.023812,0.170033,-0.006802,-0.021379,0.170033,0.581934,0.658488,-0.769954,-0.465928,3.839751,-7.153965
1790548627.6557,-0.001537,-0.023309,0.155017,-0.003116,-0.022730,0.155017,-0.009353,-0.371105,-0.683750,-1.884064,1.906391,-11.112707
1790548627.6697,0.001314,-0.017764,0.146241,-0.000015,-0.019254,0.146241,-0.366311,-0.133133,-0.949647,1.182175,2.278191,-12.121798
1790548627.6835,0.000659,-0.013702,0.137781,0.000457,-0.015367,0.137781,-0.303176,0.102410,-1.259254,2.255358,1.385871,-10.957462
1790548627.6975,-0.003723,-0.008700,0.136364,-0.002469,-0.010700,0.136364,-0.376024,0.276033,-1.039494,2.676966,0.939711,-8.007811
1790548627.7117,-0.009096,-0.003462,0.134734,-0.007108,-0.005633,0.134734,-0.471941,0.364665,-0.796665,2.063719,-0.250049,-8.357112
1790548627.7257,-0.011810,-0.002708,0.125341,-0.010399,-0.003585,0.125341,-0.172048,0.324598,-0.853730,0.223975,-0.584669,-9.754315
1790548627.7395,-0.010241,-0.005050,0.113795,-0.010288,-0.004610,0.113795,0.069566,0.050202,-0.961789,-0.120976,-0.361589,-11.267951
1790548627.7532,-0.004356,-0.011721,0.105318,-0.006136,-0.009588,0.105318,0.374316,-0.324968,-0.903510,0.453943,-0.473129,-9.249770
1790548627.7668,0.008335,-0.022749,0.098665,0.003994,-0.018800,0.098665,0.694849,-0.830051,-0.755385,-0.120976,-0.473129,-8.978091
1790548627.7804,0.022905,-0.032717,0.092960,0.017231,-0.028542,0.092960,0.698492,-1.012172,-0.630328,0.032335,0.679451,-8.357112
1790548627.7944,0.032059,-0.038860,0.086980,0.027611,-0.035765,0.086980,0.498158,-0.684354,-0.388714,1.143847,2.761531,-11.694875
1790548627.8082,0.024630,-0.027223,0.081916,0.025524,-0.029785,0.081916,-0.847111,0.578354,-0.284297,-0.389272,2.538451,-18.098721
1790548627.8222,0.021587,-0.011375,0.077703,0.022768,-0.016898,0.077703,-1.144576,0.303958,-0.130101,-1.884064,2.017931,-14.799770
1790548627.8361,0.023352,-0.003537,0.057355,0.023177,-0.007546,0.057355,-0.774263,0.215326,-0.029328,-2.957247,-1.179549,-4.165504
1790548627.8502,0.009385,0.004168,0.056329,0.013522,0.000654,0.056329,-0.616424,0.971736,0.045949,0.147319,0.233291,-5.174595
1790548627.8647,-0.005765,0.018204,0.054991,0.000021,0.012939,0.054991,-0.896891,1.034872,0.128511,0.108991,2.203831,-7.153965
1790548627.8788,-0.000099,0.018383,0.064378,-0.000063,0.016750,0.064378,-0.139266,-0.456095,0.591099,-1.615768,-0.510309,-17.516553
1790548627.8927,0.002256,0.023782,0.075122,0.001560,0.021672,0.075122,-0.390594,-0.229050,0.756222,-1.347472,1.869211,-10.220049
1790548627.9066,0.005346,0.029031,0.088154,0.004211,0.026824,0.088154,-0.354169,-0.322539,0.904348,-1.040848,1.943571,-8.395923
1790548627.9206,0.016641,0.031678,0.107332,0.012912,0.030221,0.107332,-0.179333,-0.992746,1.222453,-0.964192,1.571771,-8.201867
1790548627.9352,0.002123,0.029208,0.122601,0.005360,0.029512,0.122601,0.215263,0.624492,1.153247,1.182175,1.014071,-3.855014
1790548627.9494,-0.001347,0.026382,0.137257,0.000665,0.027321,0.137257,0.201908,-0.023860,1.019691,1.565455,2.203831,-11.190329
1790548627.9634,0.001805,0.021732,0.152693,0.001463,0.023409,0.152693,0.347605,-0.402673,1.074328,-0.504256,2.575631,-12.199420
1790548627.9774,0.011179,0.027012,0.165851,0.008264,0.025931,0.165851,-0.366311,-0.786342,0.837570,-1.117504,2.538451,-12.703965
1790548627.9909,0.020919,0.032935,0.177185,0.017123,0.030834,0.177185,-0.400307,-0.876188,0.682160,0.032335,2.092291,-8.784035
1790548628.0046,0.031459,0.038499,0.185115,0.027158,0.036200,0.185115,-0.365097,-0.928396,0.376196,0.722239,2.203831,-8.822846
1790548628.0185,0.031008,0.039297,0.186591,0.029853,0.038368,0.186591,-0.057919,-0.020218,0.073874,0.338959,1.906391,-9.754315
1790548628.0325,0.027881,0.031740,0.183137,0.028473,0.033728,0.183137,0.579506,0.276033,-0.154384,-0.465928,2.315371,-8.745224
1790548628.0465,0.019785,0.024963,0.177569,0.022392,0.027592,0.177569,0.608645,0.606279,-0.209021,0.185647,4.025651,-9.443825
1790548628.0604,0.009732,0.013296,0.169889,0.013530,0.017585,0.169889,0.889112,0.816326,-0.334077,-0.389272,2.352551,-8.667602
1790548628.0744,0.001758,0.002158,0.158739,0.005290,0.006786,0.158739,0.940106,0.770189,-0.315865,-1.807408,3.133331,-7.309210
1790548628.0883,-0.008260,-0.006310,0.149767,-0.004195,-0.002381,0.149767,0.714276,0.886746,-0.240588,-1.730752,2.984611,-8.822846
1790548628.1023,-0.007787,-0.015119,0.138938,-0.006710,-0.011298,0.138938,0.772554,0.231110,-0.336506,-3.225543,3.430771,-8.240679
1790548628.1167,-0.008719,-0.021092,0.133079,-0.008116,-0.018154,0.133079,0.516370,0.183758,-0.370502,-1.577440,4.694891,-15.110259
1790548628.1306,-0.002958,-0.017289,0.127548,-0.004505,-0.017548,0.127548,-0.197545,-0.343180,-0.735958,0.722239,3.579491,-13.790679
1790548628.1446,-0.001458,-0.014428,0.123576,-0.002372,-0.015364,0.123576,-0.241254,-0.114921,-0.765098,2.676966,1.014071,-13.674245
1790548628.1585,-0.007391,-0.012585,0.123661,-0.005885,-0.013419,0.123661,-0.230327,0.325813,-0.665538,2.600310,-0.250049,-7.348021
1790548628.1725,-0.015910,-0.010097,0.124558,-0.012903,-0.011094,0.124558,-0.293462,0.455726,-0.494344,3.021918,-0.510309,-6.998721
1790548628.1863,-0.019797,-0.006897,0.121530,-0.017729,-0.008156,0.121530,-0.311675,0.242037,-0.491916,1.910407,0.010211,-8.900469
1790548628.2003,-0.020984,-0.006434,0.114029,-0.020008,-0.006950,0.114029,-0.119840,0.154619,-0.649754,0.875551,-0.212869,-11.811308
1790548628.2140,-0.021269,-0.009076,0.108429,-0.020891,-0.008438,0.108429,0.110847,0.050202,-0.569621,1.105519,-0.064149,-9.482637
1790548628.2275,-0.012636,-0.014141,0.104338,-0.015113,-0.012430,0.104338,0.284469,-0.566582,-0.460348,-0.005993,-0.101329,-8.434735
1790548628.2412,-0.000812,-0.022382,0.101704,-0.005102,-0.019397,0.101704,0.530940,-0.782699,-0.311009,-0.657568,0.158931,-9.405014
1790548628.2551,0.009898,-0.030574,0.100931,0.005398,-0.027221,0.100931,0.566150,-0.771772,-0.194451,0.262303,0.865351,-9.482637
1790548628.2691,0.016444,-0.035861,0.100590,0.013130,-0.033269,0.100590,0.410740,-0.522873,-0.048754,0.837223,1.832031,-10.336483
1790548628.2831,0.005667,-0.027392,0.099536,0.007906,-0.029155,0.099536,-0.604283,0.776259,0.028951,-0.082648,2.092291,-15.304315
1790548628.2970,0.001957,-0.012186,0.097177,0.003741,-0.017277,0.097177,-1.110580,0.405946,0.166149,-3.033903,1.237151,-11.151518
1790548628.3109,0.002874,-0.004508,0.095096,0.003134,-0.008338,0.095096,-0.656491,0.093911,0.208644,-2.535639,-0.212869,-7.697322
1790548628.3249,-0.006149,0.000527,0.095812,-0.003364,-0.002133,0.095812,-0.405163,0.728908,0.269351,-1.232488,0.530731,-6.416553
1790548628.3388,-0.012857,0.007836,0.096102,-0.010009,0.004846,0.096102,-0.593355,0.660916,0.438117,-2.267343,0.307651,-5.485084
1790548628.3531,-0.007155,0.001334,0.103243,-0.008012,0.002388,0.103243,0.263829,-0.436669,0.890992,-2.957247,-2.332128,-15.420749
1790548628.3676,-0.005392,0.002132,0.122349,-0.006178,0.002209,0.122349,-0.050634,-0.324968,1.241879,0.108991,1.906391,-9.987182
1790548628.3818,-0.007657,-0.003226,0.142406,-0.007213,-0.001596,0.142406,0.320894,-0.253333,1.681399,2.217030,0.716631,-8.473546
1790548628.3957,-0.009435,-0.006883,0.165670,-0.008769,-0.005297,0.165670,0.401027,-0.083353,1.394861,0.070663,2.910251,-6.727042
1790548628.4097,-0.012775,-0.010086,0.181927,-0.011573,-0.008649,0.181927,0.246831,0.068414,1.132606,0.185647,1.794851,-8.745224
1790548628.4236,-0.011199,-0.016155,0.196017,-0.011311,-0.013904,0.196017,0.377958,-0.227836,1.054901,-0.580912,0.828171,-10.918651
1790548628.4375,-0.003914,-0.013847,0.210980,-0.006133,-0.013864,0.210980,-0.148979,-0.584794,0.924988,-1.692424,2.612811,-13.441378
1790548628.4511,0.003776,-0.008039,0.225571,0.000803,-0.009786,0.225571,-0.395450,-0.706208,0.899491,0.070663,2.315371,-11.267951
1790548628.4648,0.012006,-0.003076,0.237724,0.008645,-0.005089,0.237724,-0.312889,-0.770558,0.684588,0.722239,2.166651,-9.172147
1790548628.4787,0.014670,-0.000074,0.244927,0.012863,-0.001579,0.244927,-0.182975,-0.377176,0.416263,1.642111,1.794851,-8.706413
1790548628.4925,0.023090,0.003369,0.250798,0.020021,0.001884,0.250798,-0.107699,-0.634574,0.174648,-0.312616,3.207691,-7.852567
1790548628.5065,0.019090,-0.000617,0.248908,0.019369,0.000134,0.248908,0.341534,0.278461,-0.212663,0.722239,3.058971,-11.656063
1790548628.5204,0.011429,-0.008899,0.242994,0.013811,-0.006189,0.242994,0.778625,0.618421,-0.454277,0.032335,3.988471,-7.852567
1790548628.5342,0.006787,-0.012249,0.233766,0.008894,-0.010431,0.233766,0.469019,0.492150,-0.455491,-1.117504,4.062831,-6.882287
1790548628.5481,-0.000396,-0.019143,0.225000,0.002391,-0.016529,0.225000,0.626857,0.653631,-0.468847,-0.925864,3.133331,-8.318301
1790548628.5620,0.003571,-0.024224,0.211715,0.003217,-0.021916,0.211715,0.448378,-0.093066,-0.731102,-1.769080,3.096151,-11.073895
1790548628.5759,0.010935,-0.022158,0.203012,0.008619,-0.022085,0.203012,-0.094343,-0.429384,-0.880441,0.185647,3.356411,-14.295224
1790548628.5898,0.011119,-0.015730,0.189335,0.010369,-0.017637,0.189335,-0.403949,0.136406,-1.214330,0.300631,3.393591,-13.014455
1790548628.6038,0.006206,-0.010571,0.182764,0.007455,-0.012691,0.182764,-0.406378,0.323384,-1.114771,2.446998,0.716631,-7.464455
1790548628.6181,-0.002327,-0.004428,0.170363,0.000607,-0.006907,0.170363,-0.497438,0.623277,-1.158480,1.872079,0.196111,-6.959909
1790548628.6321,-0.009962,-0.002269,0.155455,-0.006791,-0.003660,0.155455,-0.320174,0.594138,-0.949647,1.642111,-1.179549,-8.318301
1790548628.6461,-0.010587,0.000569,0.140096,-0.009448,-0.000700,0.140096,-0.310460,0.191043,-0.954504,0.262303,-0.435949,-10.375294
1790548628.6600,-0.008685,-0.001090,0.124344,-0.008914,-0.000973,0.124344,0.006431,0.010136,-1.035851,0.492271,-0.621849,-12.082986
1790548628.6736,-0.002969,-0.006551,0.109686,-0.004753,-0.004878,0.109686,0.296611,-0.259404,-1.000641,-0.082648,-0.324409,-10.220049
1790548628.6872,0.007641,-0.011946,0.101027,0.003923,-0.009825,0.101027,0.351247,-0.679497,-0.718960,-0.044320,0.605091,-8.279490
1790548628.7008,0.020076,-0.017378,0.095786,0.015230,-0.015112,0.095786,0.358532,-0.866475,-0.511342,0.070663,0.716631,-8.822846
1790548628.7151,0.028784,-0.023076,0.093856,0.024718,-0.020687,0.093856,0.390100,-0.606649,-0.239374,0.185647,1.199971,-9.249770
1790548628.7292,0.022764,-0.015148,0.092256,0.023350,-0.016809,0.092256,-0.572715,0.461797,-0.023257,-1.040848,2.278191,-16.895574
1790548628.7431,0.018471,0.000151,0.091840,0.019935,-0.004937,0.091840,-1.092368,0.357380,0.099371,-1.692424,2.352551,-14.334035
1790548628.7572,0.016610,0.008841,0.088446,0.017607,0.004707,0.088446,-0.728125,0.238394,0.121226,-1.960720,-0.175689,-8.861658
1790548628.7710,0.006967,0.016453,0.089692,0.010159,0.012929,0.089692,-0.573929,0.653631,0.231713,0.070663,0.530731,-3.932637
1790548628.7849,-0.010169,0.033172,0.091211,-0.004070,0.027099,0.091211,-0.970954,1.156286,0.334915,0.377287,2.947431,-4.437182
1790548628.7988,0.004479,0.027550,0.096856,0.001915,0.027415,0.096856,0.223762,-1.082592,0.713727,-3.723807,-1.960328,-18.059910
1790548628.8127,0.003843,0.026219,0.114213,0.003265,0.026578,0.114213,0.186124,-0.266689,1.090111,1.718767,3.133331,-9.094525
1790548628.8265,-0.008175,0.023263,0.135416,-0.004743,0.024257,0.135416,0.231047,0.407160,1.538130,2.676966,1.757671,-7.774944
1790548628.8403,-0.012707,0.016697,0.159106,-0.010318,0.018965,0.159106,0.432595,-0.091852,1.648617,1.258831,0.753811,-5.485084
1790548628.8546,-0.013087,0.016589,0.174924,-0.012256,0.017302,0.174924,0.120560,-0.156202,1.318370,-0.465928,2.835891,-6.610609
1790548628.8691,-0.021699,0.013490,0.192627,-0.018866,0.014633,0.192627,0.218906,0.300316,1.183600,2.140375,2.501271,-11.151518
1790548628.8832,-0.018033,0.008112,0.205799,-0.018283,0.010069,0.205799,0.357318,-0.374747,0.994194,-0.964192,2.092291,-12.471098
1790548628.8972,-0.009808,0.012727,0.218655,-0.012351,0.011930,0.218655,-0.282535,-0.720778,0.910418,-0.427600,3.653851,-12.859210
1790548628.9108,-0.000013,0.020268,0.228989,-0.003714,0.017766,0.228989,-0.533863,-0.836121,0.672447,-0.235960,2.612811,-11.500819
1790548628.9245,0.010019,0.026477,0.238805,0.005899,0.023864,0.238805,-0.461014,-0.893186,0.438117,0.837223,1.497411,-8.551168
1790548628.9385,0.020490,0.031205,0.244693,0.016113,0.029003,0.244693,-0.337172,-0.876188,0.093301,1.258831,1.683311,-8.900469
1790548628.9525,0.024839,0.030466,0.244116,0.022221,0.030027,0.244116,0.136344,-0.352893,-0.066966,0.645583,3.467951,-10.181238
1790548628.9664,0.019145,0.019982,0.239557,0.020068,0.022995,0.239557,0.742201,0.414445,-0.437279,1.258831,1.832031,-10.375294
1790548628.9803,0.010896,0.013338,0.225299,0.013648,0.016235,0.225299,0.626857,0.679128,-0.586619,0.377287,4.285911,-9.249770
1790548628.9942,0.005202,0.004824,0.205866,0.007736,0.008248,0.205866,0.774983,0.605065,-0.693463,-1.002520,3.691031,-7.852567
1790548629.0080,-0.005333,-0.002119,0.185087,-0.001413,0.000991,0.185087,0.675423,0.977807,-0.828233,-0.887536,3.542311,-7.542077
1790548629.0220,-0.007198,-0.008067,0.159434,-0.005463,-0.005350,0.159434,0.575863,0.465439,-0.859801,-2.918919,3.542311,-8.473546
1790548629.0360,-0.007899,-0.012802,0.148094,-0.007168,-0.010566,0.148094,0.575863,0.235966,-0.748100,-1.232488,5.587211,-9.366203
1790548629.0504,-0.009092,-0.012541,0.136114,-0.008515,-0.011948,0.136114,0.067138,0.208041,-1.050421,0.798895,3.728211,-13.402567
1790548629.0645,-0.005214,-0.007734,0.123821,-0.006205,-0.008998,0.123821,-0.331101,-0.144060,-1.316318,1.488799,2.055111,-13.945924
1790548629.0788,-0.007705,-0.005261,0.119947,-0.007255,-0.006382,0.119947,-0.254610,0.221396,-1.265324,2.676966,-0.064149,-10.569350
1790548629.0928,-0.011854,-0.003710,0.116082,-0.010474,-0.004512,0.116082,-0.287392,0.331883,-1.096558,1.833751,-1.328269,-7.580888
1790548629.1068,-0.013675,-0.002806,0.108444,-0.012715,-0.003318,0.108444,-0.186618,0.201970,-0.987286,1.105519,-0.547489,-7.231588
1790548629.1211,-0.009383,-0.005347,0.092911,-0.010383,-0.004738,0.092911,0.071994,-0.111279,-1.124484,-0.159304,-0.547489,-10.025993
1790548629.1348,-0.006706,-0.011840,0.081871,-0.007809,-0.009709,0.081871,0.399813,-0.089424,-1.091702,0.990535,0.084571,-9.831937
1790548629.1485,0.005899,-0.018672,0.070519,0.001786,-0.015983,0.070519,0.431380,-0.769344,-0.907152,-0.465928,0.196111,-8.589979
1790548629.1625,0.018442,-0.025660,0.066542,0.013445,-0.022757,0.066542,0.433809,-0.877402,-0.610902,0.645583,0.270471,-8.318301
1790548629.1766,0.024565,-0.036564,0.064296,0.021229,-0.032422,0.064296,0.782267,-0.446382,-0.302510,0.645583,1.608951,-10.569350
1790548629.1911,0.013484,-0.027194,0.061634,0.015807,-0.028763,0.061634,-0.604283,0.743477,-0.086392,0.837223,3.207691,-15.187882
1790548629.2049,0.014630,-0.012971,0.055277,0.014983,-0.017708,0.055277,-1.035303,0.045346,0.129725,-3.072231,1.646131,-12.044175
1790548629.2189,0.010209,-0.006725,0.053408,0.011641,-0.010020,0.053408,-0.610353,0.378021,0.135796,-1.079176,-0.993649,-8.007811
1790548629.2327,0.006444,-0.003346,0.041572,0.008003,-0.005348,0.041572,-0.437945,0.514005,0.171006,-3.033903,-1.291089,-6.222497
1790548629.2469,-0.012060,0.010235,0.041756,-0.006041,0.005560,0.041756,-1.028018,1.244918,0.200145,0.415615,0.233291,-4.631238
1790548629.2613,-0.005716,0.020234,0.047602,-0.005814,0.015832,0.047602,-0.802188,-0.397816,0.512180,-2.612295,0.010211,-11.306763
1790548629.2753,0.000184,0.012662,0.056831,-0.001615,0.013613,0.056831,0.386457,-0.521659,0.734368,-1.117504,-1.514168,-18.836133
1790548629.2893,-0.008679,0.012183,0.073004,-0.006560,0.012612,0.073004,0.086564,0.201970,1.218810,3.328542,2.166651,-7.619700
1790548629.3034,-0.009371,0.006299,0.096395,-0.008528,0.008193,0.096395,0.299039,-0.256976,1.625548,0.377287,0.010211,-6.067252
1790548629.3177,-0.006026,0.006506,0.115194,-0.006776,0.007012,0.115194,0.150914,-0.369891,1.256449,-0.542584,2.129471,-4.126693
1790548629.3318,-0.015161,0.005034,0.129555,-0.012646,0.005627,0.129555,0.099920,0.416873,1.082827,1.297159,1.869211,-10.414105
1790548629.3460,-0.016091,-0.001723,0.143545,-0.015057,0.000482,0.143545,0.384029,-0.021432,1.006336,-1.539112,0.530731,-14.334035
1790548629.3604,-0.010935,-0.000490,0.158693,-0.012172,-0.000198,0.158693,-0.102842,-0.473093,0.989338,-0.734224,1.832031,-11.423196
1790548629.3746,-0.000387,0.007021,0.172908,-0.003923,0.004855,0.172908,-0.459800,-0.864047,0.841212,-0.427600,2.873071,-9.288581
1790548629.3887,0.014688,0.012489,0.186502,0.009105,0.010199,0.186502,-0.311675,-1.218576,0.716156,0.147319,2.278191,-7.658511
1790548629.4028,0.018390,0.013754,0.196416,0.015605,0.012687,0.196416,-0.097986,-0.510731,0.519465,2.178703,1.274331,-8.822846
1790548629.4168,0.024835,0.014051,0.202133,0.022066,0.013642,0.202133,0.010073,-0.552012,0.303347,0.300631,2.092291,-9.715504
1790548629.4310,0.015805,0.004820,0.201530,0.017683,0.007466,0.201530,0.620787,0.492150,-0.086392,3.903462,1.571771,-13.907112
1790548629.4451,0.013630,-0.001320,0.190014,0.014846,0.001316,0.190014,0.626857,0.319742,-0.405712,-1.615768,4.434631,-8.163056
1790548629.4591,0.003465,-0.010361,0.182783,0.006879,-0.006858,0.182783,0.772554,0.784758,-0.302510,-0.082648,3.319231,-8.667602
1790548629.4732,0.004129,-0.016159,0.175712,0.004954,-0.013369,0.175712,0.517585,0.040489,-0.363217,-0.504256,2.687171,-8.240679
1790548629.4874,0.004274,-0.017260,0.170195,0.004478,-0.016093,0.170195,0.149699,0.017421,-0.466419,0.760567,3.170511,-11.694875
1790548629.5015,0.006928,-0.016445,0.159567,0.006193,-0.016339,0.159567,-0.050634,-0.082139,-0.776025,-0.005993,1.757671,-11.073895
1790548629.5154,0.010902,-0.013764,0.150971,0.009489,-0.014537,0.150971,-0.146551,-0.241192,-0.881655,1.182175,2.166651,-9.288581
1790548629.5293,0.006843,-0.010599,0.146140,0.007637,-0.011780,0.146140,-0.274036,0.265105,-0.867086,2.485326,0.790991,-9.637881
1790548629.5437,-0.005771,-0.004758,0.142266,-0.001748,-0.006865,0.142266,-0.480440,0.834538,-0.698320,2.868606,0.270471,-9.948371
1790548629.5578,-0.008930,0.001200,0.134032,-0.006776,-0.001219,0.134032,-0.498652,0.317314,-0.811235,0.760567,0.196111,-10.375294
1790548629.5718,-0.012406,0.005983,0.122625,-0.010717,0.003822,0.122625,-0.436731,0.416873,-0.949647,-0.005993,-0.175689,-11.423196
1790548629.5860,-0.012391,0.006604,0.110371,-0.011888,0.005770,0.110371,-0.128339,0.187400,-0.982429,-0.274288,-0.026969,-10.879840
1790548629.5997,-0.004190,0.003339,0.098447,-0.006500,0.004068,0.098447,0.121774,-0.362606,-0.973930,-1.155832,-0.435949,-9.443825
1790548629.6145,0.007803,-0.000803,0.088010,0.003512,0.000658,0.088010,0.232261,-0.661285,-0.881655,-0.312616,0.605091,-8.395923
1790548629.6298,0.016838,-0.001563,0.079394,0.012840,-0.000897,0.079394,0.061067,-0.543513,-0.631542,0.568927,1.534591,-8.124245
1790548629.6447,0.019554,-0.002117,0.070806,0.017540,-0.001751,0.070806,0.099920,-0.122206,-0.432423,-0.044320,2.575631,-9.055714
1790548629.6593,0.010804,0.012449,0.064161,0.012825,0.008189,0.064161,-0.990380,0.660916,-0.325578,-0.082648,2.575631,-13.130889
1790548629.6746,0.009158,0.028563,0.058001,0.010258,0.022451,0.058001,-1.115437,0.282103,-0.178667,-2.612295,0.828171,-10.025993
1790548629.6885,0.007375,0.038353,0.053643,0.008240,0.033582,0.053643,-0.809473,0.311243,-0.042683,-2.075704,0.084571,-7.076343
1790548629.7023,0.010676,0.040248,0.057162,0.009946,0.038248,0.057162,-0.208472,-0.236335,0.230499,-1.270816,1.088431,-13.596623
1790548629.7164,0.011806,0.033703,0.067222,0.011248,0.035066,0.067222,0.500587,-0.335895,0.735582,2.561982,3.579491,-14.683336
1790548629.7304,0.005825,0.030568,0.083018,0.007452,0.031917,0.083018,0.285683,0.073271,1.267376,2.523654,3.653851,-12.742777
1790548629.7445,0.003553,0.025890,0.102748,0.004723,0.027698,0.102748,0.437451,-0.216909,1.558770,0.990535,2.389731,-6.455364
1790548629.7586,-0.003112,0.020314,0.119158,-0.000761,0.022530,0.119158,0.549152,0.167974,1.533273,0.415615,2.947431,-6.222497
1790548629.7725,-0.013333,0.015409,0.138790,-0.009562,0.017545,0.138790,0.351247,0.348881,1.339011,1.757095,1.199971,-6.106063
1790548629.7865,-0.018740,0.009157,0.153739,-0.015986,0.011674,0.153739,0.444736,0.211683,1.216382,-0.274288,2.203831,-10.841028
1790548629.8005,-0.022014,0.004960,0.168308,-0.020206,0.006974,0.168308,0.286898,0.062344,1.113180,0.070663,2.017931,-10.763406
1790548629.8144,-0.014677,0.004083,0.181272,-0.016335,0.004950,0.181272,0.025857,-0.611505,0.935915,-1.424128,1.794851,-12.936833
1790548629.8280,-0.004914,0.008298,0.189839,-0.008340,0.007294,0.189839,-0.314103,-0.754774,0.627523,-1.232488,1.943571,-11.073895
1790548629.8416,0.004153,0.012664,0.195200,0.000405,0.011053,0.195200,-0.325030,-0.717135,0.281493,-0.120976,1.757671,-10.452916
1790548629.8556,0.009362,0.012845,0.197680,0.006675,0.012307,0.197680,-0.049420,-0.443953,-0.047540,1.105519,1.088431,-9.715504
1790548629.8697,0.011226,0.007336,0.195610,0.009861,0.008827,0.195610,0.348819,-0.113707,-0.273370,0.453943,1.311511,-13.169700
1790548629.8840,0.008604,0.000565,0.185475,0.008981,0.003044,0.185475,0.596504,0.229895,-0.419067,0.338959,3.356411,-8.667602
1790548629.8979,-0.000125,-0.009384,0.176529,0.002607,-0.005655,0.176529,0.808979,0.666987,-0.368073,0.453943,3.319231,-10.452916
1790548629.9119,-0.006091,-0.017197,0.163737,-0.003481,-0.013734,0.163737,0.705777,0.561356,-0.375358,-0.925864,3.096151,-7.813756
1790548629.9258,-0.015055,-0.024518,0.155487,-0.011583,-0.021283,0.155487,0.679065,0.687627,-0.274584,0.185647,3.393591,-8.551168
1790548629.9397,-0.004676,-0.028148,0.146607,-0.006748,-0.026089,0.146607,0.410740,-0.638216,-0.281869,-1.462456,4.694891,-11.966553
1790548629.9537,0.000791,-0.026330,0.142135,-0.001471,-0.026258,0.142135,-0.095557,-0.368677,-0.499201,0.875551,2.426911,-12.898021
1790548629.9675,0.000873,-0.021986,0.132766,0.000170,-0.023267,0.132766,-0.236398,0.055059,-0.765098,0.760567,2.835891,-10.608161
1790548629.9813,0.003972,-0.019426,0.132348,0.002831,-0.020578,0.132348,-0.218186,-0.249691,-0.695892,1.872079,0.865351,-9.831937
1790548629.9953,-0.000167,-0.017422,0.132546,0.000732,-0.018369,0.132546,-0.208472,0.261463,-0.672823,2.025391,0.344831,-9.249770
1790548630.0092,-0.011284,-0.014987,0.137479,-0.007679,-0.016002,0.137479,-0.272822,0.680342,-0.521055,3.405198,-0.250049,-9.637881
1790548630.0231,-0.008000,-0.014255,0.135196,-0.007904,-0.014779,0.135196,-0.161121,-0.161058,-0.528340,0.070663,-0.398769,-9.521448
1790548630.0369,-0.007487,-0.018841,0.130579,-0.007612,-0.017623,0.130579,0.209192,0.067200,-0.630328,-0.159304,-0.807749,-11.656063
1790548630.0516,0.000679,-0.029171,0.126309,-0.001808,-0.025707,0.126309,0.617144,-0.468236,-0.557479,-0.312616,-0.287229,-9.560259
1790548630.0654,0.013490,-0.041000,0.122743,0.008900,-0.036412,0.122743,0.793195,-0.876188,-0.558694,0.070663,0.196111,-10.414105
1790548630.0791,0.028113,-0.054549,0.117162,0.022349,-0.049108,0.117162,0.955890,-1.018243,-0.609688,-0.005993,0.679451,-9.676693
1790548630.0931,0.030910,-0.059117,0.107992,0.028342,-0.056114,0.107992,0.401027,-0.287329,-0.365645,1.948735,2.538451,-10.414105
1790548630.1073,0.022170,-0.043636,0.102717,0.024022,-0.047379,0.102717,-1.038946,0.568641,-0.151956,1.335487,2.947431,-13.868301
1790548630.1215,0.028199,-0.031655,0.098816,0.026946,-0.036372,0.098816,-0.972168,-0.239978,-0.046326,-3.838791,-1.179549,-11.151518
1790548630.1358,0.025844,-0.025011,0.099009,0.026175,-0.028419,0.099009,-0.590927,0.266320,-0.035398,-1.194160,-0.510309,-6.494175
1790548630.1498,0.011140,-0.017422,0.098498,0.015651,-0.020721,0.098498,-0.599426,1.101649,0.043521,-0.619240,0.344831,-7.115154
1790548630.1639,0.000787,-0.003997,0.080522,0.005246,-0.009015,0.080522,-1.021948,1.095579,0.038664,-3.110559,0.047391,-4.320748
1790548630.1779,-0.010410,0.017047,0.076886,-0.005713,0.009229,0.076886,-1.530673,0.987520,0.049592,-2.190688,0.939711,-7.270399
1790548630.1918,-0.002440,0.021079,0.082430,-0.003422,0.017524,0.082430,-0.431875,-0.618790,0.349485,-0.734224,-1.030829,-20.815504
1790548630.2058,0.011146,0.015395,0.091297,0.006776,0.016033,0.091297,0.330607,-1.058309,0.475756,-0.580912,0.753811,-16.468651
1790548630.2196,0.001161,0.018955,0.100566,0.002846,0.018078,0.100566,-0.085844,0.274819,1.110752,3.865134,3.802571,-7.270399
1790548630.2335,0.007409,0.023780,0.110699,0.006040,0.022070,0.110699,-0.174476,-0.395388,0.892206,-0.772552,0.939711,-1.759210
1790548630.2475,0.004938,0.024001,0.122364,0.005269,0.023422,0.122364,0.007645,-0.137990,0.653020,2.255358,1.460231,-6.571797
1790548630.2613,0.004374,0.015767,0.136907,0.004642,0.018064,0.136907,0.556437,-0.271545,0.850925,2.638638,1.088431,-9.948371
1790548630.2753,0.004229,0.015332,0.146554,0.004353,0.016152,0.146554,0.065924,-0.051786,0.809645,-1.654096,2.873071,-12.238231
1790548630.2888,0.012592,0.018936,0.156358,0.010120,0.018101,0.156358,-0.216971,-0.687996,0.733154,-1.462456,3.021791,-11.811308
1790548630.3025,0.023644,0.025359,0.167912,0.019587,0.023182,0.167912,-0.408806,-0.978176,0.697944,0.262303,2.761531,-10.297672
1790548630.3166,0.034862,0.028995,0.179350,0.030279,0.027251,0.179350,-0.243683,-0.961178,0.587457,0.300631,1.460231,-8.124245
1790548630.3306,0.041626,0.032777,0.188152,0.038222,0.031119,0.188152,-0.190260,-0.680711,0.467257,1.143847,2.575631,-8.667602
1790548630.3447,0.026739,0.020554,0.190935,0.030184,0.023724,0.190935,0.794409,0.918314,0.050806,2.753622,0.716631,-12.121798
1790548630.3587,0.023699,0.009990,0.175715,0.025645,0.014110,0.175715,0.937678,0.448441,-0.232089,-2.918919,4.174371,-7.503266
1790548630.3728,0.021708,-0.001071,0.162627,0.022889,0.003483,0.162627,0.954676,0.358594,-0.399641,-2.267343,3.802571,-7.503266
1790548630.3873,0.011989,-0.013147,0.155885,0.015259,-0.008158,0.155885,0.959532,0.773831,-0.117960,-0.964192,2.501271,-6.416553
1790548630.4013,0.000996,-0.017799,0.147206,0.005275,-0.014907,0.147206,0.557651,0.971736,-0.245445,-1.769080,3.839751,-6.494175
1790548630.4152,0.003877,-0.024329,0.137605,0.004297,-0.021502,0.137605,0.605003,-0.015361,-0.290368,-2.880591,4.025651,-10.608161
1790548630.4290,0.009615,-0.017074,0.127678,0.008020,-0.018402,0.127678,-0.417305,-0.270331,-0.772383,-1.232488,5.289771,-15.925294
1790548630.4430,0.000038,-0.006814,0.122919,0.002433,-0.010290,0.122919,-0.725697,0.714338,-0.995785,2.370342,1.980751,-11.656063
1790548630.4569,-0.002395,0.000623,0.101211,-0.000947,-0.002651,0.101211,-0.617638,0.421730,-1.135411,-0.810880,0.121751,-8.357112
1790548630.4709,-0.007704,0.005376,0.082994,-0.005677,0.002968,0.082994,-0.508366,0.580782,-1.095344,-0.082648,-0.807749,-6.067252
1790548630.4848,-0.019826,0.010897,0.077885,-0.015581,0.008519,0.077885,-0.503509,0.877033,-0.870728,2.217030,-0.361589,-8.163056
1790548630.4987,-0.019303,0.015698,0.059081,-0.018187,0.013544,0.059081,-0.446444,0.209255,-1.145124,-0.657568,-0.435949,-12.199420
1790548630.5123,-0.016964,0.017535,0.040715,-0.017330,0.016338,0.040715,-0.235184,0.069629,-1.230114,-0.235960,-0.324409,-11.694875
1790548630.5259,-0.009457,0.014962,0.025368,-0.011819,0.015375,0.025368,0.074423,-0.352893,-1.118413,-0.005993,-0.398769,-10.103616
1790548630.5395,0.004165,0.010997,0.012963,-0.000630,0.012310,0.012963,0.175196,-0.838550,-0.987286,-0.120976,-0.212869,-7.852567
1790548630.5535,0.013780,0.009731,0.005520,0.009457,0.010505,0.005520,0.097491,-0.618790,-0.710461,0.492271,1.534591,-8.163056
1790548630.5673,0.017157,0.010269,-0.000052,0.014847,0.010339,-0.000052,-0.063990,-0.239978,-0.558694,1.335487,1.423051,-10.258860
1790548630.5814,0.014426,0.018406,-0.004089,0.014552,0.015986,-0.004089,-0.582428,0.186186,-0.347433,1.373815,2.278191,-12.742777
1790548630.5955,0.007559,0.032220,-0.006972,0.009657,0.027350,-0.006972,-1.006164,0.493364,-0.147099,0.607255,2.017931,-12.703965
1790548630.6094,0.004539,0.043583,-0.008790,0.006074,0.038713,-0.008790,-0.843469,0.325813,-0.023257,-1.424128,1.311511,-8.473546
1790548630.6234,0.019442,0.036935,-0.002704,0.015432,0.037468,-0.002704,0.371887,-1.080164,0.269351,-1.462456,0.158931,-11.927742
1790548630.6377,0.017411,0.028323,0.016845,0.016818,0.031067,0.016845,0.766484,-0.231479,0.859424,3.251886,4.100011,-8.124245
1790548630.6517,0.009501,0.023981,0.033184,0.011696,0.026107,0.033184,0.410740,0.307600,1.194528,0.722239,3.467951,-10.142427
1790548630.6656,0.008543,0.023049,0.051411,0.009489,0.023966,0.051411,0.143629,-0.151345,1.364508,-0.504256,2.835891,-9.366203
1790548630.6795,0.009193,0.023759,0.069640,0.009282,0.023821,0.069640,0.013716,-0.289757,1.269804,0.070663,2.129471,-7.503266
1790548630.6934,0.008973,0.028132,0.090411,0.009066,0.026839,0.090411,-0.193903,-0.349250,1.110752,2.178703,3.133331,-7.852567
1790548630.7072,0.003780,0.027228,0.109713,0.005366,0.027111,0.109713,0.054996,0.024705,0.977196,3.328542,1.869211,-11.384385
1790548630.7212,0.008994,0.025616,0.123258,0.007905,0.026065,0.123258,0.148485,-0.558083,0.928631,0.032335,2.612811,-10.996273
1790548630.7351,0.019341,0.029468,0.132571,0.015910,0.028447,0.132571,-0.216971,-0.827622,0.815715,-1.654096,2.984611,-10.802217
1790548630.7487,0.031126,0.040781,0.136328,0.026562,0.037081,0.136328,-0.833756,-0.833693,0.429618,-2.650623,1.906391,-10.608161
1790548630.7622,0.041623,0.043630,0.140981,0.037105,0.041665,0.140981,-0.303176,-0.806982,0.052020,-0.274288,0.419191,-10.414105
1790548630.7762,0.037367,0.041216,0.148369,0.037289,0.041351,0.148369,0.183695,0.075699,0.069018,3.098574,1.943571,-8.822846
1790548630.7901,0.038804,0.038337,0.147819,0.038349,0.039241,0.147819,0.256544,-0.142846,-0.063324,0.453943,2.761531,-9.599070
1790548630.8039,0.036172,0.032370,0.141886,0.036825,0.034431,0.141886,0.466591,0.255392,-0.258800,-0.580912,3.058971,-11.229140
1790548630.8179,0.025276,0.021775,0.133732,0.028741,0.025572,0.133732,0.789552,0.858821,-0.304938,-0.465928,3.021791,-11.500819
1790548630.8318,0.021058,0.009939,0.116857,0.023363,0.014629,0.116857,0.959532,0.569855,-0.443350,-2.995575,3.319231,-8.706413
1790548630.8457,0.005150,-0.002492,0.108640,0.010614,0.002644,0.108640,1.044522,1.190282,-0.397213,0.338959,2.835891,-6.338930
1790548630.8595,-0.000071,-0.011324,0.093295,0.003134,-0.007134,0.093295,0.796837,0.605065,-0.346219,-2.382327,3.505131,-7.930189
1790548630.8738,0.008696,-0.015596,0.086947,0.007028,-0.013057,0.086947,0.512728,-0.473093,-0.283083,-2.382327,6.367990,-11.190329
1790548630.8882,0.008692,-0.013244,0.082773,0.008193,-0.013188,0.082773,-0.106485,0.036847,-0.593904,1.105519,3.691031,-14.566903
1790548630.9022,0.000728,-0.009108,0.084113,0.002968,-0.010332,0.084113,-0.241254,0.537073,-0.734744,2.791950,2.910251,-11.578441
1790548630.9163,-0.000168,-0.007678,0.080584,0.000773,-0.008474,0.080584,-0.157478,0.097554,-0.785738,0.760567,0.307651,-5.485084
1790548630.9301,-0.011662,-0.006125,0.092532,-0.007932,-0.006830,0.092532,-0.233969,0.659702,-0.652182,3.596838,-0.510309,-7.153965
1790548630.9441,-0.022410,-0.001512,0.097193,-0.018066,-0.003107,0.097193,-0.434303,0.645132,-0.488273,2.830278,-0.287229,-7.386832
1790548630.9580,-0.020856,0.001850,0.090604,-0.020019,0.000363,0.090604,-0.382095,0.010136,-0.653397,-0.082648,-1.253909,-12.238231
1790548630.9718,-0.019488,-0.000721,0.085364,-0.019647,-0.000396,0.085364,0.046497,-0.006862,-0.648540,0.415615,-1.030829,-10.763406
1790548630.9854,-0.008363,-0.007679,0.076868,-0.011748,-0.005494,0.076868,0.427738,-0.650358,-0.541696,-1.385800,-0.026969,-9.793126
1790548630.9990,0.003554,-0.018191,0.073557,-0.001037,-0.014382,0.073557,0.681494,-0.789984,-0.403283,-0.504256,-0.101329,-8.279490
1790548631.0129,0.012278,-0.027675,0.072086,0.008283,-0.023687,0.072086,0.696063,-0.696495,-0.260015,1.297159,1.311511,-8.240679
1790548631.0268,0.019626,-0.033326,0.070571,0.016223,-0.030435,0.070571,0.447164,-0.560511,-0.121602,0.492271,1.794851,-9.288581
1790548631.0408,0.007619,-0.022083,0.069357,0.010200,-0.024589,0.069357,-0.790047,0.792043,-0.053610,1.948735,2.464091,-15.343126
1790548631.0547,0.003735,-0.006997,0.060474,0.005675,-0.012275,0.060474,-1.139719,0.454512,-0.045111,-2.995575,0.530731,-10.685784
1790548631.0688,0.007912,-0.000341,0.052378,0.007241,-0.003921,0.052378,-0.633422,-0.107636,-0.074251,-2.229015,-0.882109,-6.998721
1790548631.0826,0.002974,0.010472,0.040729,0.004254,0.006154,0.040729,-0.622495,0.506720,0.032594,-1.577440,2.687171,-5.756762
1790548631.0965,0.008736,0.009937,0.044638,0.007391,0.008802,0.044638,-0.136838,-0.399030,0.394408,-2.267343,-1.923148,-14.760958
1790548631.1104,0.012057,0.008237,0.056560,0.010658,0.008406,0.056560,0.108419,-0.378390,0.793861,-0.082648,1.757671,-13.053266
1790548631.1243,0.005501,0.004534,0.073299,0.007048,0.005696,0.073299,0.244403,0.240823,1.211526,0.492271,1.014071,-8.745224
1790548631.1386,0.006509,0.002191,0.093498,0.006670,0.003242,0.093498,0.155770,-0.215695,1.528417,-1.117504,0.865351,-6.067252
1790548631.1526,0.007245,0.003190,0.100401,0.007073,0.003206,0.100401,0.294182,-0.099137,1.290445,-0.925864,2.538451,-2.302567
1790548631.1664,0.000312,0.003330,0.117145,0.002340,0.003293,0.117145,0.004002,0.260249,1.085255,1.105519,1.757671,-9.482637
1790548631.1804,-0.001502,-0.001473,0.128611,-0.000349,-0.000043,0.128611,0.271114,0.016206,0.932273,-0.695896,0.567911,-13.324944
1790548631.1944,0.006114,-0.000239,0.142619,0.004175,-0.000180,0.142619,-0.093129,-0.690424,0.914061,-0.159304,2.166651,-14.217602
1790548631.2080,0.018326,0.006793,0.153573,0.014081,0.004701,0.153573,-0.458586,-1.001245,0.702800,-0.504256,2.241011,-8.784035
1790548631.2216,0.030724,0.014706,0.165445,0.025731,0.011705,0.165445,-0.502295,-1.077736,0.540105,0.568927,2.352551,-8.240679
1790548631.2355,0.036403,0.018518,0.176035,0.033202,0.016474,0.176035,-0.269180,-0.604220,0.323988,1.718767,1.534591,-9.288581
1790548631.2496,0.039493,0.019725,0.181623,0.037605,0.018750,0.181623,-0.071274,-0.334681,0.132153,0.952207,1.683311,-8.667602
1790548631.2634,0.041248,0.013011,0.176361,0.040155,0.014733,0.176361,0.458092,-0.034788,-0.287940,-1.270816,1.720491,-11.733686
1790548631.2772,0.035128,0.005737,0.165372,0.036636,0.008436,0.165372,0.660853,0.540716,-0.538053,-0.312616,4.174371,-9.288581
1790548631.2912,0.026565,-0.002776,0.152603,0.029586,0.000587,0.152603,0.679065,0.762904,-0.586619,-0.887536,2.761531,-8.978091
1790548631.3051,0.018709,-0.012085,0.135983,0.021972,-0.008283,0.135983,0.806550,0.775045,-0.534411,-1.692424,3.058971,-7.076343
1790548631.3192,0.008578,-0.019495,0.117331,0.012596,-0.016132,0.117331,0.665710,0.976593,-0.609688,-1.960720,2.761531,-6.649420
1790548631.3331,0.013883,-0.024062,0.102241,0.013497,-0.021683,0.102241,0.314823,-0.180485,-0.563550,-2.650623,1.497411,-12.238231
1790548631.3471,0.022453,-0.019488,0.098625,0.019766,-0.020146,0.098625,-0.308032,-0.584794,-0.678894,1.182175,2.947431,-15.731238
1790548631.3609,0.019616,-0.011675,0.089959,0.019661,-0.014217,0.089959,-0.468299,0.307600,-1.012783,0.722239,4.694891,-13.363756
1790548631.3750,0.010559,-0.010396,0.082626,0.013290,-0.011542,0.082626,-0.191474,0.676700,-0.947219,1.680439,-0.026969,-9.637881
1790548631.3895,0.010790,-0.007240,0.069323,0.011540,-0.008531,0.069323,-0.326244,0.116980,-0.776025,-0.274288,-0.212869,-8.512357
1790548631.4036,0.005274,-0.005261,0.067878,0.007154,-0.006242,0.067878,-0.259466,0.345239,-0.635185,2.370342,-0.435949,-9.637881
1790548631.4176,0.006584,-0.007877,0.054763,0.006755,-0.007387,0.054763,0.033142,0.052631,-0.807593,-0.465928,-1.216729,-11.694875
1790548631.4316,0.011161,-0.012866,0.042120,0.009839,-0.011222,0.042120,0.226190,-0.202339,-0.932649,0.108991,-0.696209,-10.841028
1790548631.4452,0.018189,-0.016855,0.036132,0.015684,-0.015165,0.036132,0.235904,-0.516802,-0.755385,1.220503,0.493551,-8.007811
1790548631.4588,0.030077,-0.019431,0.031192,0.025759,-0.018151,0.031192,0.131487,-0.839764,-0.579334,0.338959,0.530731,-8.551168
1790548631.4727,0.037195,-0.022041,0.027310,0.033764,-0.020874,0.027310,0.142415,-0.504661,-0.456706,0.415615,0.716631,-8.861658
1790548631.4866,0.024353,-0.015751,0.024571,0.027177,-0.017288,0.024571,-0.490153,0.878247,-0.230875,1.872079,1.497411,-15.537182
1790548631.5005,0.020997,-0.001459,0.020369,0.022851,-0.006208,0.020369,-1.108152,0.361023,-0.110675,-2.765607,0.344831,-14.993826
1790548631.5145,0.018449,0.009213,0.016452,0.019770,0.004586,0.016452,-0.858038,0.311243,-0.082750,-1.615768,0.121751,-8.007811
1790548631.5283,0.014284,0.016002,0.015020,0.015929,0.012578,0.015020,-0.598212,0.357380,0.038664,-0.695896,-0.026969,-6.532986
1790548631.5423,-0.002570,0.032971,0.014157,0.002980,0.026853,0.014157,-1.031661,1.134431,0.115155,0.798895,3.207691,-5.873196
1790548631.5564,0.010550,0.028080,0.022563,0.008279,0.027712,0.022563,0.177625,-0.980604,0.554675,-2.650623,-2.109048,-20.388581
1790548631.5704,0.009764,0.024852,0.037701,0.009319,0.025710,0.037701,0.320894,-0.226622,1.005121,1.527127,3.170511,-9.521448
1790548631.5842,-0.001168,0.023773,0.055473,0.001978,0.024354,0.055473,0.118132,0.452083,1.324441,1.603783,2.129471,-8.512357
1790548631.5981,-0.009035,0.021050,0.075559,-0.005731,0.022041,0.075559,0.319679,0.144905,1.491992,1.565455,2.241011,-5.135783
1790548631.6119,-0.006573,0.019707,0.090944,-0.006320,0.020408,0.090944,0.133916,-0.365034,1.181172,-0.389272,2.798711,-10.452916
1790548631.6258,-0.015643,0.017831,0.105932,-0.012846,0.018604,0.105932,0.170340,0.361023,1.034261,2.523654,2.947431,-11.229140
1790548631.6403,-0.012681,0.013814,0.118434,-0.012731,0.015251,0.118434,0.232261,-0.328610,0.798717,-0.197632,1.460231,-11.888930
1790548631.6544,-0.004471,0.017206,0.129026,-0.006949,0.016619,0.129026,-0.201188,-0.708636,0.755008,-0.197632,3.058971,-11.578441
1790548631.6680,0.008030,0.025094,0.137853,0.003536,0.022552,0.137853,-0.536291,-1.025528,0.559531,-0.159304,2.501271,-9.676693
1790548631.6817,0.019335,0.031705,0.147391,0.014595,0.028959,0.147391,-0.447658,-0.998816,0.406549,1.067191,2.241011,-9.210958
1790548631.6961,0.024371,0.034301,0.156119,0.021438,0.032699,0.156119,-0.249753,-0.502232,0.132153,1.680439,0.605091,-9.133336
1790548631.7115,0.025067,0.029643,0.152182,0.023979,0.030560,0.152182,0.305110,0.019849,-0.189594,-0.810880,2.129471,-10.685784
1790548631.7262,0.022683,0.022394,0.139157,0.023072,0.024844,0.139157,0.608645,0.268748,-0.477346,-0.465928,4.174371,-9.715504
1790548631.7410,0.012668,0.013912,0.129081,0.015789,0.017192,0.129081,0.703348,0.704625,-0.381429,0.875551,4.174371,-9.599070
1790548631.7555,0.005648,0.001998,0.110460,0.008691,0.006556,0.110460,0.907324,0.733764,-0.460348,-2.688951,2.910251,-8.939280
1790548631.7697,-0.000804,-0.006212,0.094777,0.002044,-0.002382,0.094777,0.738558,0.629348,-0.576906,-0.925864,3.058971,-6.727042
1790548631.7837,-0.006364,-0.015117,0.079334,-0.003841,-0.011296,0.079334,0.790766,0.602637,-0.484631,-1.730752,3.356411,-7.891378
1790548631.7976,0.000148,-0.017708,0.066842,-0.001049,-0.015785,0.066842,0.257758,-0.306755,-0.601189,-2.037376,4.025651,-15.653616
1790548631.8116,0.004043,-0.013633,0.061701,0.002516,-0.014278,0.061701,-0.230327,-0.237549,-0.918080,1.718767,3.021791,-12.044175
1790548631.8256,0.002257,-0.008337,0.062730,0.002335,-0.010120,0.062730,-0.346885,0.096340,-1.001855,2.791950,1.980751,-9.288581
1790548631.8395,-0.000386,-0.005275,0.061268,0.000430,-0.006728,0.061268,-0.267965,0.187400,-1.028567,2.332014,0.679451,-8.822846
1790548631.8535,-0.005333,-0.003482,0.064408,-0.003604,-0.004456,0.064408,-0.275250,0.301530,-0.819734,2.446998,-0.807749,-7.852567
1790548631.8675,-0.010618,-0.001657,0.060233,-0.008514,-0.002497,0.060233,-0.214543,0.412017,-0.797880,1.412143,0.047391,-8.395923
1790548631.8816,-0.005707,-0.004231,0.049775,-0.006549,-0.003711,0.049775,0.063495,-0.184127,-0.943577,-0.312616,-0.770569,-12.471098
1790548631.8955,-0.002244,-0.009982,0.044726,-0.003536,-0.008100,0.044726,0.302681,-0.207196,-0.835518,1.527127,-0.435949,-10.879840
1790548631.9093,0.009400,-0.018024,0.040104,0.005519,-0.015047,0.040104,0.471447,-0.772986,-0.748100,0.338959,-0.361589,-8.978091
1790548631.9234,0.021778,-0.027431,0.038209,0.016901,-0.023716,0.038209,0.585576,-0.871331,-0.533197,0.645583,0.047391,-8.473546
1790548631.9373,0.030537,-0.034251,0.036821,0.026446,-0.031091,0.036821,0.472661,-0.646715,-0.292796,0.492271,0.939711,-8.822846
1790548631.9512,0.015619,-0.024660,0.033528,0.018867,-0.026589,0.033528,-0.685630,0.975379,-0.115532,2.868606,2.241011,-14.295224
1790548631.9652,0.018059,-0.008427,0.026306,0.018302,-0.013876,0.026306,-1.241707,0.005279,-0.036612,-4.107087,0.010211,-13.053266
1790548631.9791,0.017994,0.000268,0.029025,0.018087,-0.003975,0.029025,-0.770620,0.040489,0.049592,-0.772552,-0.770569,-8.978091
1790548631.9930,0.011847,0.002532,0.027710,0.013719,0.000580,0.027710,-0.403949,0.520075,0.128511,-1.079176,-1.700068,-6.610609
1790548632.0068,-0.006084,0.014284,0.023617,-0.000143,0.010173,0.023617,-0.786404,1.334765,0.144295,-0.312616,1.237151,-4.437182
1790548632.0208,-0.001631,0.024080,0.028810,-0.001184,0.019908,0.028810,-0.839826,-0.244834,0.570459,-2.305671,-0.361589,-7.542077
1790548632.0347,0.006984,0.020512,0.041707,0.004533,0.020331,0.041707,0.150914,-0.788770,0.747723,0.530599,0.084571,-16.585084
1790548632.0487,-0.000504,0.020750,0.055110,0.001007,0.020624,0.055110,-0.031208,0.221396,1.190885,1.603783,1.348691,-8.745224
1790548632.0625,-0.005413,0.014709,0.074106,-0.003487,0.016483,0.074106,0.402241,-0.015361,1.529631,1.182175,0.865351,-6.649420
1790548632.0764,-0.001723,0.013224,0.081075,-0.002252,0.014201,0.081075,0.305110,-0.435454,1.251592,-0.580912,3.728211,-6.571797
1790548632.0904,-0.009009,0.010566,0.094920,-0.006982,0.011657,0.094920,0.190980,0.328241,1.085255,0.300631,1.683311,-8.978091
1790548632.1042,-0.003778,0.007042,0.110481,-0.004739,0.008426,0.110481,0.212835,-0.467022,1.016049,-1.577440,1.311511,-11.423196
1790548632.1182,0.002601,0.009772,0.124907,0.000399,0.009368,0.124907,-0.196331,-0.586008,0.952913,-0.734224,2.017931,-11.423196
1790548632.1318,0.009588,0.015222,0.137249,0.006831,0.013466,0.137249,-0.371167,-0.686782,0.849711,0.338959,2.464091,-11.423196
1790548632.1460,0.017701,0.020216,0.144302,0.014440,0.018191,0.144302,-0.255824,-0.769344,0.614168,0.990535,2.761531,-8.124245
1790548632.1600,0.023766,0.024909,0.145993,0.020969,0.022893,0.145993,-0.225470,-0.566582,0.283921,0.875551,2.873071,-7.813756
1790548632.1741,0.021831,0.017646,0.144326,0.021572,0.019220,0.144326,0.529726,0.093911,-0.090035,1.067191,2.538451,-12.471098
1790548632.1880,0.019468,0.010810,0.133559,0.020099,0.013333,0.133559,0.622001,0.201970,-0.363217,0.453943,4.285911,-10.375294
1790548632.2018,0.010393,0.003596,0.118732,0.013305,0.006517,0.118732,0.704562,0.668201,-0.477346,1.220503,4.843611,-9.288581
1790548632.2157,0.003444,-0.006540,0.099380,0.006402,-0.002623,0.099380,0.912181,0.675486,-0.630328,-0.887536,3.616671,-7.386832
1790548632.2297,-0.004063,-0.016054,0.080542,-0.000923,-0.012024,0.080542,0.834476,0.715552,-0.757813,-0.734224,3.133331,-7.542077
1790548632.2437,-0.008534,-0.023924,0.065486,-0.006251,-0.020354,0.065486,0.719132,0.436300,-0.757813,-0.005993,4.025651,-9.987182
1790548632.2578,-0.002498,-0.027447,0.054435,-0.003624,-0.025319,0.054435,0.292968,-0.322539,-0.695892,-0.312616,2.873071,-14.760958
1790548632.2717,0.002470,-0.021567,0.041083,0.000642,-0.022692,0.041083,-0.365097,-0.243620,-0.966645,0.338959,3.505131,-15.110259
1790548632.2858,-0.004294,-0.016112,0.042687,-0.002813,-0.018086,0.042687,-0.362668,0.408374,-1.080775,4.555037,2.203831,-11.267951
1790548632.3001,-0.008450,-0.012339,0.039013,-0.006759,-0.014063,0.039013,-0.383309,0.344025,-1.111128,1.297159,-0.473129,-6.727042
1790548632.3142,-0.012541,-0.009659,0.041288,-0.010806,-0.010980,0.041288,-0.365097,0.284532,-0.819734,1.527127,-1.105189,-6.610609
1790548632.3286,-0.013297,-0.006849,0.035822,-0.012550,-0.008088,0.035822,-0.334743,0.178901,-0.784524,0.032335,-1.068009,-10.181238
1790548632.3427,-0.008522,-0.010927,0.029167,-0.009730,-0.010076,0.029167,0.148485,-0.199911,-0.888940,-0.005993,-1.365448,-13.014455
1790548632.3563,-0.002971,-0.016055,0.023852,-0.004998,-0.014261,0.023852,0.284469,-0.378390,-0.837946,1.527127,-0.175689,-10.569350
1790548632.3700,0.009472,-0.025720,0.021686,0.005131,-0.022282,0.021686,0.566150,-0.871331,-0.692249,0.722239,-0.807749,-9.133336
1790548632.3842,0.020940,-0.037263,0.020070,0.016197,-0.032769,0.020070,0.730059,-0.817909,-0.478560,0.798895,-0.064149,-8.745224
1790548632.3989,0.022478,-0.045811,0.014595,0.020594,-0.041899,0.014595,0.592861,-0.220551,-0.190808,1.795423,1.051251,-8.007811
1790548632.4129,0.014633,-0.036334,0.014023,0.016421,-0.038004,0.014023,-0.715984,0.589281,-0.133744,-0.580912,1.088431,-18.448022
1790548632.4270,0.015126,-0.020924,0.012551,0.015515,-0.026048,0.012551,-1.160360,0.101196,-0.108247,-3.187215,0.530731,-14.644525
1790548632.4409,0.016613,-0.011473,0.010773,0.016283,-0.015845,0.010773,-0.827685,0.084198,0.019238,-1.845736,-0.621849,-5.252217
1790548632.4550,0.009133,-0.004248,0.012113,0.011278,-0.007727,0.012113,-0.633422,0.653631,0.099371,-1.270816,-0.287229,-5.601518
1790548632.4690,-0.010075,0.008429,0.009538,-0.003669,0.003582,0.009538,-0.875036,1.410041,0.113941,-0.350944,1.423051,-6.532986
1790548632.4830,0.002954,0.009466,0.019613,0.000967,0.007701,0.019613,-0.215757,-0.959964,0.417477,-1.730752,-1.253909,-20.078091
1790548632.4970,0.010302,0.006658,0.032638,0.007502,0.006971,0.032638,0.197051,-0.714707,0.870352,0.645583,2.017931,-13.169700
1790548632.5109,-0.002061,0.006054,0.035717,0.000807,0.006329,0.035717,0.114489,0.455726,1.360865,3.558510,2.538451,-9.016902
1790548632.5248,-0.011976,0.002526,0.033612,-0.008141,0.003667,0.033612,0.532154,0.484865,1.539344,-0.044320,3.021791,-3.971448
1790548632.5388,-0.013332,0.002960,0.042357,-0.011775,0.003172,0.042357,0.087778,-0.235121,1.125322,2.063719,2.873071,-6.998721
1790548632.5527,-0.019969,0.004641,0.055775,-0.017511,0.004200,0.055775,-0.100414,0.110909,1.062186,3.405198,2.129471,-9.055714
1790548632.5667,-0.016214,-0.000462,0.070621,-0.016603,0.000936,0.070621,0.340320,-0.412386,1.013620,-0.312616,2.315371,-14.955014
1790548632.5807,-0.010258,0.003973,0.083971,-0.012161,0.003062,0.083971,-0.309246,-0.584794,0.968697,0.147319,2.315371,-11.423196
1790548632.5943,0.001812,0.011042,0.089933,-0.002380,0.008648,0.089933,-0.423376,-0.966035,0.767150,-0.887536,2.984611,-8.628791
1790548632.6079,0.018645,0.017484,0.099031,0.012337,0.014833,0.099031,-0.414877,-1.373986,0.629952,0.032335,2.203831,-8.395923
1790548632.6219,0.023834,0.022578,0.106477,0.020385,0.020254,0.106477,-0.314103,-0.595721,0.381052,2.140375,2.315371,-9.016902
1790548632.6359,0.021333,0.017020,0.112845,0.021049,0.017991,0.112845,0.354889,0.063558,0.129725,1.757095,1.348691,-12.781588
1790548632.6501,0.020071,0.008075,0.096460,0.020365,0.011050,0.096460,0.796837,0.232324,-0.213877,-1.807408,4.174371,-8.589979
1790548632.6642,0.012840,-0.001623,0.083553,0.015097,0.002179,0.083553,0.822334,0.562570,-0.328007,0.147319,3.988471,-9.948371
1790548632.6780,0.003673,-0.014202,0.071506,0.007100,-0.009288,0.071506,0.985029,0.741049,-0.438493,-0.082648,3.096151,-11.112707
1790548632.6920,-0.005286,-0.022751,0.051231,-0.001570,-0.018712,0.051231,0.818692,0.878247,-0.494344,-1.577440,2.873071,-5.562707
1790548632.7057,-0.014818,-0.030273,0.036326,-0.010844,-0.026805,0.036326,0.676637,0.847894,-0.442136,-1.040848,2.724351,-8.124245
1790548632.7196,-0.007698,-0.029569,0.022731,-0.008642,-0.028740,0.022731,0.110847,-0.312826,-0.470061,-2.880591,4.955151,-12.082986
1790548632.7335,-0.002668,-0.024477,0.013534,-0.004460,-0.025756,0.013534,-0.314103,-0.290972,-0.734744,0.683911,3.244871,-15.226693
1790548632.7473,-0.006928,-0.018797,0.012022,-0.006188,-0.020885,0.012022,-0.423376,0.307600,-0.912009,2.600310,1.423051,-12.082986
1790548632.7613,-0.017003,-0.011782,0.020970,-0.013758,-0.014513,0.020970,-0.521721,0.625706,-0.834304,3.098574,0.865351,-7.852567
1790548632.7753,-0.022212,-0.005851,0.038337,-0.019676,-0.008450,0.038337,-0.593355,0.265105,-0.563550,1.910407,-0.807749,-5.485084
1790548632.7892,-0.024937,-0.001099,0.038357,-0.023359,-0.003304,0.038357,-0.431875,0.243251,-0.612116,0.760567,-0.101329,-7.270399
1790548632.8032,-0.023989,-0.002348,0.032905,-0.023800,-0.002635,0.032905,-0.028779,0.102410,-0.856158,-0.389272,-0.844929,-11.306763
1790548632.8168,-0.020922,-0.006715,0.029188,-0.021786,-0.005491,0.029188,0.209192,-0.113707,-0.857373,0.530599,-0.584669,-10.297672
1790548632.8304,-0.009225,-0.010005,0.030246,-0.012993,-0.008651,0.030246,0.152128,-0.862833,-0.565978,1.028863,-0.026969,-7.580888
1790548632.8443,0.003793,-0.011974,0.030415,-0.001243,-0.010977,0.030415,0.088992,-0.922325,-0.416639,0.492271,0.456371,-7.386832
1790548632.8583,0.008055,-0.013975,0.027166,0.005266,-0.013076,0.027166,0.144843,-0.303113,-0.318293,0.645583,1.534591,-10.220049
1790548632.8722,0.001216,-0.009617,0.025226,0.002431,-0.010655,0.025226,-0.325030,0.477580,-0.179881,1.105519,1.906391,-14.450469
1790548632.8865,-0.004001,0.006992,0.019270,-0.002072,0.001698,0.019270,-1.167645,0.470296,-0.223590,-1.615768,2.612811,-16.158161
1790548632.9010,-0.007124,0.018828,0.017026,-0.005608,0.013689,0.017026,-0.895677,0.354952,-0.105819,-1.462456,0.270471,-7.580888
1790548632.9150,-0.014222,0.027064,0.015528,-0.011638,0.023052,0.015528,-0.694129,0.649989,-0.015972,-1.309144,-0.026969,-6.300119
1790548632.9290,-0.006854,0.021400,0.023963,-0.008289,0.021895,0.023963,0.302681,-0.543513,0.296062,-0.925864,0.270471,-13.519000
1790548632.9430,-0.005549,0.014379,0.033282,-0.006371,0.016634,0.033282,0.507871,-0.322539,0.724655,2.217030,2.464091,-12.665154
1790548632.9569,-0.016798,0.012118,0.043084,-0.013670,0.013473,0.043084,0.233475,0.486079,1.284374,2.217030,3.244871,-10.103616
1790548632.9708,-0.019929,0.005121,0.060427,-0.018051,0.007627,0.060427,0.517585,-0.094281,1.457996,0.952207,1.497411,-6.183686
1790548632.9847,-0.023181,0.006322,0.054772,-0.021642,0.006713,0.054772,0.143629,0.070843,1.272233,-0.312616,4.657711,-6.998721
1790548632.9987,-0.022819,0.006524,0.064344,-0.022466,0.006581,0.064344,-0.008139,-0.071212,1.108324,-1.654096,1.794851,-7.969000
1790548633.0125,-0.024797,0.004285,0.081616,-0.024098,0.004974,0.081616,0.095063,-0.105208,0.926202,2.178703,1.125611,-11.694875
1790548633.0264,-0.018509,0.000790,0.094918,-0.020185,0.002045,0.094918,0.209192,-0.571438,0.829071,-0.159304,1.571771,-12.199420
1790548633.0403,-0.008661,0.005584,0.103662,-0.012118,0.004522,0.103662,-0.303176,-0.803340,0.809645,-0.695896,2.835891,-10.841028
1790548633.0539,0.001028,0.011441,0.112963,-0.002916,0.009365,0.112963,-0.436731,-0.806982,0.563174,-0.120976,1.608951,-9.560259
1790548633.0675,0.005695,0.013375,0.123306,0.003112,0.012172,0.123306,-0.185404,-0.516802,0.371339,1.412143,0.902531,-8.589979
1790548633.0814,0.007158,0.013571,0.124062,0.005944,0.013151,0.124062,0.030714,-0.174414,0.158864,0.453943,1.757671,-7.076343
1790548633.0954,0.001470,0.005286,0.122730,0.002812,0.007645,0.122730,0.597718,0.357380,-0.116746,1.373815,1.906391,-10.841028
1790548633.1093,-0.007067,-0.002320,0.108199,-0.004103,0.000670,0.108199,0.677851,0.688841,-0.318293,-0.159304,3.765391,-9.870749
1790548633.1233,-0.018559,-0.012440,0.093496,-0.014222,-0.008507,0.093496,0.863615,0.895245,-0.368073,0.147319,3.244871,-8.745224
1790548633.1372,-0.028216,-0.022720,0.073338,-0.024018,-0.018456,0.073338,0.929179,0.869748,-0.420281,-1.155832,3.356411,-7.503266
1790548633.1515,-0.033165,-0.030155,0.052578,-0.030421,-0.026645,0.052578,0.779839,0.504291,-0.615758,-0.657568,4.137191,-7.037532
1790548633.1656,-0.025733,-0.033802,0.041876,-0.027140,-0.031655,0.041876,0.305110,-0.401459,-0.454277,-1.040848,2.203831,-12.199420
1790548633.1795,-0.019747,-0.029372,0.033250,-0.021965,-0.030057,0.033250,-0.193903,-0.400244,-0.777239,1.718767,4.062831,-12.781588
1790548633.1935,-0.030372,-0.025530,0.035534,-0.027850,-0.026888,0.035534,-0.242468,0.692484,-0.852516,3.941790,1.832031,-11.345574
1790548633.2073,-0.034081,-0.021519,0.032252,-0.032212,-0.023130,0.032252,-0.338386,0.317314,-0.865872,1.373815,0.121751,-9.443825
1790548633.2212,-0.035357,-0.018069,0.044377,-0.034413,-0.019587,0.044377,-0.388165,0.008922,-0.727459,2.600310,-0.993649,-7.580888
1790548633.2352,-0.035267,-0.017729,0.048485,-0.035011,-0.018286,0.048485,-0.157478,0.008922,-0.630328,1.220503,-0.882109,-7.969000
1790548633.2492,-0.032440,-0.022323,0.046509,-0.033211,-0.021112,0.046509,0.231047,-0.110064,-0.676465,0.377287,-0.696209,-11.733686
1790548633.2631,-0.029712,-0.026333,0.044643,-0.030761,-0.024766,0.044643,0.252902,-0.229050,-0.616972,2.446998,0.530731,-10.918651
1790548633.2767,-0.025949,-0.030386,0.046087,-0.027393,-0.028700,0.046087,0.227405,-0.341966,-0.499201,2.102047,-0.026969,-8.939280
1790548633.2904,-0.020914,-0.035687,0.050576,-0.022858,-0.033591,0.050576,0.288112,-0.429384,-0.313437,1.642111,-0.361589,-8.900469
1790548633.3044,-0.016863,-0.040672,0.051874,-0.018661,-0.038548,0.051874,0.325750,-0.365034,-0.183524,1.450471,0.530731,-8.124245
1790548633.3184,-0.017291,-0.045589,0.049765,-0.017702,-0.043477,0.049765,0.360960,-0.060285,-0.132530,1.987063,1.237151,-9.870749
1790548633.3324,-0.022267,-0.045412,0.045725,-0.020897,-0.044831,0.045725,0.027071,0.307600,-0.047540,1.412143,2.055111,-11.811308
1790548633.3465,-0.032519,-0.034726,0.046276,-0.029032,-0.037757,0.046276,-0.797331,0.801756,0.106656,-1.347472,0.828171,-13.557812
1790548633.3605,-0.035283,-0.021641,0.047015,-0.033408,-0.026476,0.047015,-1.011020,0.328241,0.326416,-2.650623,0.270471,-10.569350
