t,imu_roll,imu_pitch,imu_yaw,lpf_roll,lpf_pitch,lpf_yaw,gyro_x,gyro_y,gyro_z,acc_x,acc_y,acc_z
1790548963.0819,-0.037661,-0.043169,-0.001356,-0.026362,-0.030218,-0.001356,-0.006990,-0.005877,-0.001433,0.262303,1.125611,-10.220049
1790548963.0976,-0.047383,-0.036770,-0.009762,-0.041077,-0.034804,-0.009762,0.017293,0.007479,0.004638,0.415615,1.237151,-9.754315
1790548963.1113,-0.037827,-0.036688,-0.005660,-0.038802,-0.036123,-0.005660,-0.006990,0.000194,0.005852,0.032335,1.199971,-9.987182
1790548963.1251,-0.039616,-0.036890,-0.006237,-0.039372,-0.036660,-0.006237,-0.022774,-0.008305,-0.000219,0.300631,1.162791,-9.831937
1790548963.1392,-0.038132,-0.036469,-0.005692,-0.038504,-0.036526,-0.005692,-0.025202,-0.015590,-0.000219,0.185647,1.237151,-10.258860
1790548963.1531,-0.041497,-0.039385,-0.005904,-0.040599,-0.038527,-0.005904,-0.017917,-0.022875,0.000996,0.453943,1.014071,-10.025993
1790548963.1674,-0.043544,-0.039026,-0.007243,-0.042660,-0.038876,-0.007243,-0.037343,-0.062942,0.014351,0.492271,1.237151,-10.608161
1790548963.1818,-0.048321,-0.035043,-0.011311,-0.046623,-0.036193,-0.011311,-0.115048,0.026905,0.032563,0.645583,1.385871,-10.025993
1790548963.1960,-0.050555,-0.028062,-0.016542,-0.049375,-0.030501,-0.016542,-0.135689,-0.028946,0.098127,0.530599,1.608951,-9.443825
1790548963.2101,-0.051923,-0.020410,-0.020398,-0.051159,-0.023438,-0.020398,-0.156329,-0.047158,0.225612,0.492271,1.757671,-9.366203
1790548963.2242,-0.051851,-0.016228,-0.017411,-0.051643,-0.018391,-0.017411,-0.161186,-0.092081,0.399234,0.415615,1.608951,-9.909560
1790548963.2383,-0.057717,-0.020418,-0.001293,-0.055895,-0.019810,-0.001293,0.014865,0.083969,0.599568,0.798895,0.939711,-9.754315
1790548963.2522,-0.063895,-0.026981,0.018517,-0.061495,-0.024830,0.018517,0.086499,-0.013162,0.663917,1.067191,0.679451,-9.599070
1790548963.2662,-0.053366,-0.030697,0.037082,-0.055804,-0.028937,0.037082,0.023364,-0.047158,0.538861,-1.117504,0.939711,-10.802217
1790548963.2800,-0.050470,-0.039354,0.052992,-0.052070,-0.036229,0.052992,0.074358,0.046331,0.406519,-0.274288,0.158931,-11.888930
1790548963.2941,-0.051905,-0.045580,0.061914,-0.051955,-0.042775,0.061914,0.154491,0.128893,0.412590,0.262303,0.642271,-12.082986
1790548963.3080,-0.058135,-0.045177,0.061993,-0.056281,-0.044456,0.061993,0.169061,0.250307,0.463584,0.645583,1.348691,-8.434735
1790548963.3220,-0.058066,-0.048648,0.072037,-0.057530,-0.047391,0.072037,0.237053,0.136178,0.418660,-0.005993,0.976891,-8.900469
1790548963.3357,-0.064099,-0.045716,0.072117,-0.062129,-0.046218,0.072117,0.068287,0.306157,0.332456,0.683911,1.683311,-9.094525
1790548963.3493,-0.065246,-0.044502,0.076332,-0.064311,-0.045017,0.076332,0.042790,0.212669,0.247466,0.108991,1.534591,-10.258860
1790548963.3631,-0.068419,-0.042792,0.077745,-0.067187,-0.043459,0.077745,0.007580,0.127679,0.204971,0.798895,1.608951,-10.491728
1790548963.3771,-0.067561,-0.041199,0.079308,-0.067449,-0.041877,0.079308,-0.034915,-0.035016,0.122410,0.415615,1.423051,-10.103616
1790548963.3911,-0.061572,-0.036147,0.079672,-0.063335,-0.037866,0.079672,-0.118691,-0.473322,0.054418,0.645583,2.203831,-11.112707
1790548963.4050,-0.057861,-0.035505,0.083423,-0.059503,-0.036213,0.083423,-0.189111,-0.644516,0.024064,1.833751,0.865351,-11.306763
1790548963.4191,-0.049182,-0.030822,0.086631,-0.052279,-0.032439,0.086631,-0.604348,-0.820566,-0.207837,1.258831,0.382011,-11.500819
1790548963.4335,-0.050276,-0.022495,0.075941,-0.050876,-0.025478,0.075941,-0.924881,-0.747718,-0.330465,2.830278,-0.026969,-7.852567
1790548963.4476,-0.050146,-0.001900,0.024627,-0.050365,-0.008973,0.024627,-1.056009,-0.773215,-0.347463,1.450471,1.199971,-4.087881
1790548963.4616,-0.068015,-0.011485,0.089797,-0.062720,-0.010731,0.089797,0.030649,0.698325,-0.761486,3.060246,-0.733389,-8.939280
1790548963.4756,-0.058971,-0.006413,-0.060833,-0.060096,-0.007709,-0.060833,0.789487,-0.236564,-0.953320,-0.810880,6.851330,-12.082986
1790548963.4896,-0.060653,-0.000992,-0.109560,-0.060486,-0.003007,-0.109560,0.091356,0.274590,-1.078377,0.760567,4.211551,-13.130889
1790548963.5036,-0.061164,-0.010895,-0.100324,-0.060961,-0.008529,-0.100324,0.479881,0.391147,-1.262926,-0.274288,0.456371,-11.694875
1790548963.5175,-0.054117,-0.011046,-0.127480,-0.056170,-0.010290,-0.127480,0.254051,-0.422328,-1.159724,0.530599,1.571771,-6.921098
1790548963.5317,-0.045716,-0.014271,-0.130715,-0.048852,-0.013077,-0.130715,0.170275,-0.529172,-1.210718,0.530599,0.753811,-7.115154
1790548963.5457,-0.046781,-0.020747,-0.129318,-0.047402,-0.018446,-0.129318,0.416746,-0.011948,-1.201005,0.952207,0.716631,-6.532986
1790548963.5594,-0.041975,-0.024277,-0.150010,-0.043603,-0.022527,-0.150010,0.380322,-0.231707,-0.992173,0.338959,1.757671,-10.220049
1790548963.5730,-0.027636,-0.029202,-0.166167,-0.032426,-0.027200,-0.166167,0.402176,-0.685797,-0.744488,-1.194160,1.423051,-10.375294
1790548963.5870,-0.024516,-0.034161,-0.180356,-0.026889,-0.032072,-0.180356,0.487166,-0.174643,-0.387530,0.108991,1.832031,-10.025993
1790548963.6010,-0.020415,-0.033504,-0.202027,-0.022357,-0.033075,-0.202027,0.221269,-0.025303,0.005852,-1.270816,2.538451,-9.948371
1790548963.6151,-0.023707,-0.035459,-0.208083,-0.023302,-0.034744,-0.208083,0.324471,0.262448,0.492723,-0.427600,2.910251,-13.402567
1790548963.6292,-0.026981,-0.034889,-0.205000,-0.025877,-0.034845,-0.205000,-0.045842,0.348652,0.792616,-1.385800,1.720491,-14.178791
1790548963.6432,-0.027783,-0.030700,-0.187716,-0.027212,-0.031944,-0.187716,-0.421012,0.342582,1.148360,-2.458983,0.753811,-11.035084
1790548963.6571,-0.029637,-0.028799,-0.152753,-0.028909,-0.029742,-0.152753,-0.407657,0.495564,1.308627,-2.650623,-0.138509,-9.094525
1790548963.6713,-0.035647,-0.029802,-0.118138,-0.033626,-0.029784,-0.118138,-0.297170,0.734750,1.308627,-1.577440,-0.473129,-6.028441
1790548963.6859,-0.037872,-0.025474,-0.096880,-0.036599,-0.026767,-0.096880,-0.371232,0.243022,1.462823,-1.040848,0.753811,-7.115154
1790548963.7003,-0.035428,-0.030946,-0.074924,-0.035779,-0.029692,-0.074924,0.177560,-0.289986,1.653443,-0.504256,0.344831,-13.519000
1790548963.7146,-0.048426,-0.034080,-0.045479,-0.044632,-0.032764,-0.045479,0.033077,0.440927,1.817352,1.948735,0.344831,-10.452916
1790548963.7288,-0.051182,-0.037487,-0.013760,-0.049217,-0.036070,-0.013760,0.065859,0.320727,1.820995,-1.960720,0.530731,-10.841028
1790548963.7427,-0.048570,-0.035017,0.021930,-0.048764,-0.035333,0.021930,0.120495,-0.276631,1.372976,-0.120976,2.761531,-7.930189
1790548963.7567,-0.053519,-0.034945,0.033904,-0.052093,-0.035062,0.033904,-0.006990,0.200527,0.764691,0.645583,1.125611,-8.201867
1790548963.7707,-0.072401,-0.037627,0.050462,-0.066308,-0.036857,0.050462,0.125352,0.912014,0.568000,3.251886,0.902531,-10.375294
1790548963.7847,-0.078130,-0.045017,0.060894,-0.074583,-0.042569,0.060894,0.492023,0.218739,0.634778,1.450471,1.125611,-10.103616
1790548963.7985,-0.078798,-0.049406,0.066935,-0.077534,-0.047355,0.066935,0.425245,0.071828,0.433230,0.185647,2.055111,-10.414105
1790548963.8122,-0.079170,-0.050635,0.069610,-0.078679,-0.049651,0.069610,0.173917,0.151961,0.298460,-0.389272,1.683311,-9.560259
1790548963.8263,-0.076757,-0.053033,0.070057,-0.077334,-0.052018,0.070057,0.153277,-0.015590,0.252323,-0.619240,0.976891,-9.405014
1790548963.8404,-0.070130,-0.052520,0.067955,-0.072291,-0.052370,0.067955,-0.201253,-0.379833,0.132123,-0.235960,-0.064149,-11.656063
1790548963.8543,-0.053744,-0.045665,0.067141,-0.059308,-0.047677,0.067141,-0.605562,-1.150813,0.020422,0.223975,0.530731,-15.265504
1790548963.8684,-0.043445,-0.032475,0.066113,-0.048204,-0.037035,0.066113,-1.031726,-0.805997,-0.083994,0.798895,0.530731,-9.405014
1790548963.8824,-0.036650,-0.014903,0.070625,-0.040116,-0.021543,0.070625,-1.426322,-0.850920,-0.313467,1.718767,0.010211,-5.135783
1790548963.8964,-0.029130,0.006733,0.076407,-0.032426,-0.001749,0.076407,-1.609657,-1.000259,-0.345035,2.102047,0.567911,-4.941727
1790548963.9104,-0.010760,0.035147,0.070804,-0.017260,0.024078,0.070804,-1.780851,-1.504128,-0.459164,1.872079,3.653851,-9.094525
1790548963.9244,-0.014852,0.026162,0.063146,-0.015574,0.025537,0.063146,0.577013,0.627905,-0.596362,-3.225543,2.538451,-19.069001
1790548963.9388,-0.011397,0.020170,0.048341,-0.012650,0.021780,0.048341,0.675358,0.127679,-0.808837,-3.647151,7.520570,-18.137532
1790548963.9530,-0.009262,0.014916,0.029792,-0.010278,0.016975,0.029792,0.314758,0.113109,-1.307850,-0.427600,1.608951,-12.277042
1790548963.9669,-0.018011,0.011866,0.015406,-0.015691,0.013399,0.015406,0.053717,0.699539,-1.332132,0.990535,0.270471,-7.192776
1790548963.9808,-0.016141,0.008371,0.010131,-0.016006,0.009879,0.010131,-0.033701,-0.043515,-0.905969,0.377287,-0.510309,-7.386832
1790548963.9948,-0.021732,0.009858,-0.004889,-0.020014,0.009865,-0.004889,-0.026416,0.380220,-0.853760,1.105519,1.757671,-7.503266
1790548964.0089,-0.018445,0.009886,-0.016540,-0.018916,0.009880,-0.016540,-0.000919,0.161675,-0.963033,-1.922392,1.571771,-9.637881
1790548964.0225,-0.018910,0.014664,-0.030643,-0.018911,0.013229,-0.030643,-0.090766,0.277018,-0.837977,-0.734224,3.505131,-8.667602
1790548964.0362,-0.017263,0.015443,-0.039533,-0.017758,0.014779,-0.039533,0.053717,0.151961,-0.485875,-1.615768,2.687171,-9.948371
1790548964.0502,-0.018220,0.014098,-0.041248,-0.018081,0.014302,-0.041248,0.096212,0.229667,0.064131,-1.500784,1.757671,-10.181238
1790548964.0641,-0.010487,0.004003,-0.035972,-0.012766,0.007093,-0.035972,0.586726,-0.429613,0.541289,-2.612295,0.493551,-12.975644
1790548964.0781,-0.006380,-0.000644,-0.006997,-0.008295,0.001677,-0.006997,0.829554,-0.371334,0.623850,-0.312616,5.289771,-7.658511
1790548964.0921,-0.009955,0.002806,0.016572,-0.009457,0.002467,0.016572,0.167847,0.065757,0.952883,0.262303,4.508991,-7.658511
1790548964.1064,-0.007778,-0.003850,0.032387,-0.008282,-0.001955,0.032387,0.551516,-0.288772,1.236992,-0.695896,2.575631,-11.267951
1790548964.1205,-0.006984,-0.009699,0.052676,-0.007373,-0.007376,0.052676,0.679000,-0.208639,1.354764,-0.504256,3.505131,-8.667602
1790548964.1345,-0.011583,-0.006713,0.071685,-0.010320,-0.006912,0.071685,0.075572,0.185957,1.498033,-0.695896,3.914111,-8.900469
1790548964.1485,-0.013451,-0.005587,0.083192,-0.012512,-0.005984,0.083192,0.054931,0.039046,1.697152,-1.577440,3.133331,-10.918651
1790548964.1625,-0.018579,-0.006143,0.094788,-0.016759,-0.006096,0.094788,0.099855,0.252735,1.685011,-0.964192,1.757671,-8.085434
1790548964.1765,-0.024432,-0.009304,0.114758,-0.022130,-0.008341,0.114758,0.130208,0.171388,1.768786,-0.005993,0.493551,-7.270399
1790548964.1910,-0.034061,-0.021852,0.133716,-0.030481,-0.017799,0.133716,0.611009,0.413002,1.618233,0.415615,-0.882109,-8.861658
1790548964.2052,-0.037236,-0.032176,0.130673,-0.035209,-0.027863,0.130673,0.522376,0.264877,1.215138,-1.462456,-0.435949,-8.978091
1790548964.2192,-0.035989,-0.037960,0.119853,-0.035755,-0.034931,0.119853,0.329328,0.274590,0.576499,-4.260399,0.530731,-9.948371
1790548964.2333,-0.042454,-0.045763,0.109511,-0.040444,-0.042513,0.109511,0.383964,0.517418,0.236539,-0.619240,-0.584669,-12.471098
1790548964.2469,-0.054077,-0.056027,0.115074,-0.049987,-0.051973,0.115074,0.672930,0.712895,0.119982,1.948735,0.233291,-11.733686
1790548964.2606,-0.062752,-0.064502,0.120981,-0.058922,-0.060743,0.120981,0.669287,0.580554,0.028921,0.837223,1.162791,-8.473546
1790548964.2743,-0.065391,-0.071350,0.123206,-0.063451,-0.068168,0.123206,0.552730,0.173816,-0.161699,0.875551,1.348691,-10.608161
1790548964.2882,-0.058853,-0.069663,0.116761,-0.060232,-0.069214,0.116761,-0.110192,-0.419900,-0.411813,0.338959,0.976891,-12.121798
1790548964.3022,-0.042678,-0.060909,0.106773,-0.047944,-0.063401,0.106773,-0.702693,-1.128958,-0.597576,0.722239,-0.026969,-13.441378
1790548964.3162,-0.045568,-0.052700,0.151304,-0.046281,-0.055910,0.151304,-0.819251,-0.234136,-0.539298,5.206613,-1.811608,-8.240679
1790548964.3301,-0.037661,-0.042531,0.148069,-0.040247,-0.046545,0.148069,-0.922453,-0.758645,-0.640071,2.178703,-0.807749,-7.231588
1790548964.3441,-0.025259,-0.024912,0.146577,-0.029755,-0.031402,0.146577,-1.334047,-1.103462,-0.619431,2.102047,0.270471,-6.455364
1790548964.3580,-0.006828,0.000123,0.144835,-0.013706,-0.009334,0.144835,-1.814847,-1.490773,-0.570865,1.182175,0.679451,-4.786483
1790548964.3719,0.014461,0.033165,0.138607,0.006011,0.020415,0.138607,-2.236155,-1.909652,-0.661926,1.373815,0.902531,-2.380189
1790548964.3858,-0.015176,0.013613,0.141790,-0.008820,0.015654,0.141790,0.935184,2.104302,-1.148797,6.663076,-7.239888,-20.505015
1790548964.3998,-0.000194,0.001568,0.116694,-0.002782,0.005794,0.116694,0.937613,-0.671227,-1.313920,-5.103614,5.289771,-21.087182
1790548964.4138,-0.016154,-0.003730,0.086205,-0.012142,-0.000873,0.086205,0.383964,1.182768,-1.754654,5.168285,3.244871,-18.331588
1790548964.4279,-0.022288,0.010435,0.043889,-0.019244,0.007043,0.043889,-0.781612,0.462782,-1.641739,2.293686,3.207691,-7.386832
1790548964.4421,-0.024376,0.013682,0.063299,-0.022837,0.011690,0.063299,-0.634701,0.204170,-1.322419,1.182175,-1.662888,-5.446273
1790548964.4562,-0.010137,0.006294,0.051808,-0.013947,0.007913,0.051808,0.246766,-0.440540,-1.209504,-2.497311,-1.030829,-5.252217
1790548964.4702,-0.003194,0.002748,0.016979,-0.006420,0.004297,0.016979,0.448313,-0.086010,-1.111159,-1.884064,2.464091,-6.028441
1790548964.4839,-0.001365,0.004461,-0.002281,-0.002882,0.004412,-0.002281,-0.005776,0.128893,-0.820979,-1.845736,3.430771,-10.957462
1790548964.4974,-0.001228,0.003970,-0.011467,-0.001724,0.004102,-0.011467,0.047647,0.176244,-0.555081,-1.424128,2.129471,-11.656063
1790548964.5114,0.000106,0.002731,-0.014298,-0.000443,0.003142,-0.014298,0.139921,-0.058085,-0.051213,-0.580912,2.538451,-11.462007
1790548964.5253,-0.002011,0.003017,-0.013266,-0.001541,0.003055,-0.013266,0.120495,0.136178,0.534004,-1.040848,3.579491,-11.035084
1790548964.5393,0.004843,-0.006195,-0.002932,0.002928,-0.003420,-0.002932,0.653503,-0.473322,0.819327,-2.803935,1.832031,-14.217602
1790548964.5533,0.006617,-0.012300,0.008823,0.005510,-0.009636,0.008823,0.626792,-0.184356,1.230922,-1.385800,2.761531,-7.852567
1790548964.5673,0.001358,-0.013917,0.027055,0.002604,-0.012632,0.027055,0.245552,0.187172,1.470108,-0.427600,3.021791,-11.190329
1790548964.5812,-0.001274,-0.015915,0.045811,-0.000111,-0.014930,0.045811,0.233410,0.042689,1.595164,-1.232488,2.575631,-11.539630
1790548964.5951,-0.003042,-0.015294,0.065392,-0.002163,-0.015185,0.065392,0.113210,-0.013162,1.698366,-1.155832,2.761531,-8.745224
1790548964.6094,-0.007102,-0.016258,0.086463,-0.005620,-0.015936,0.086463,0.087713,0.108252,1.691081,-0.619240,1.125611,-7.697322
1790548964.6234,-0.013498,-0.015741,0.112214,-0.011135,-0.015799,0.112214,-0.044628,0.173816,1.742075,0.377287,0.976891,-8.046623
1790548964.6376,-0.020361,-0.022769,0.138048,-0.017593,-0.020678,0.138048,0.308687,0.241808,1.686225,0.223975,-0.993649,-10.336483
1790548964.6515,-0.021746,-0.028470,0.153293,-0.020500,-0.026132,0.153293,0.329328,0.134963,1.453110,-2.458983,0.382011,-8.900469
1790548964.6656,-0.023300,-0.030502,0.163805,-0.022460,-0.029191,0.163805,0.094998,0.109466,0.963810,-1.424128,0.753811,-10.142427
1790548964.6798,-0.025309,-0.032607,0.168331,-0.024454,-0.031582,0.168331,0.040362,0.127679,0.503650,-0.580912,-0.064149,-11.811308
1790548964.6942,-0.034229,-0.040165,0.171384,-0.031297,-0.037590,0.171384,0.428887,0.514990,0.282677,1.297159,-0.026969,-11.462007
1790548964.7079,-0.046907,-0.049005,0.175533,-0.042224,-0.045580,0.175533,0.603724,0.752962,0.251109,2.025391,0.605091,-9.482637
1790548964.7217,-0.052086,-0.057625,0.176426,-0.049128,-0.054012,0.176426,0.679000,0.436071,0.082343,-0.389272,1.460231,-8.822846
1790548964.7354,-0.054329,-0.063221,0.176684,-0.052769,-0.060458,0.176684,0.487166,0.199313,-0.026930,-0.005993,1.720491,-9.055714
1790548964.7494,-0.045994,-0.058095,0.173656,-0.048026,-0.058804,0.173656,-0.315382,-0.514603,-0.266116,-0.465928,1.757671,-11.539630
1790548964.7633,-0.033626,-0.048523,0.170368,-0.037946,-0.051607,0.170368,-0.776756,-0.945623,-0.397243,1.795423,-0.175689,-13.363756
1790548964.7773,-0.031320,-0.038837,0.173959,-0.033308,-0.042668,0.173959,-0.855675,-0.462394,-0.501659,5.014973,-1.179549,-9.637881
1790548964.7912,-0.024083,-0.027998,0.173064,-0.026850,-0.032399,0.173064,-1.003800,-0.797498,-0.595148,3.481854,-1.439808,-6.688231
1790548964.8052,-0.012790,-0.010166,0.162063,-0.017008,-0.016836,0.162063,-1.324334,-1.105890,-0.532013,2.868606,0.456371,-5.640329
1790548964.8194,0.003068,0.016470,0.153246,-0.002955,0.006478,0.153246,-1.891338,-1.389999,-0.535655,2.293686,0.679451,-4.708860
1790548964.8359,-0.020188,0.021333,0.152865,-0.015018,0.016877,0.152865,-0.480505,1.411027,-0.812480,4.976645,-1.588528,-18.137532
1790548964.8499,-0.014364,0.007299,0.137320,-0.014561,0.010172,0.137320,1.043243,0.005050,-1.232573,-5.448566,4.211551,-18.680889
1790548964.8640,-0.008013,0.003589,0.108458,-0.009977,0.005564,0.108458,0.390035,0.031761,-1.570104,-5.601878,5.587211,-16.158161
1790548964.8778,-0.018055,0.004013,0.066482,-0.015632,0.004478,0.066482,0.156919,0.653402,-1.466902,3.098574,2.835891,-6.377742
1790548964.8919,-0.016659,0.018072,0.028130,-0.016351,0.013994,0.028130,-0.767043,0.332869,-1.547036,-1.232488,2.426911,-4.786483
1790548964.9059,-0.017753,0.015730,0.032612,-0.017332,0.015209,0.032612,-0.003347,0.176244,-1.046809,0.875551,-0.324409,-7.542077
1790548964.9200,-0.002210,0.009174,0.016146,-0.006747,0.010985,0.016146,0.523590,-0.614162,-1.171866,-4.030431,2.203831,-8.551168
1790548964.9348,-0.006078,0.013010,-0.009826,-0.006279,0.012402,-0.009826,-0.027630,0.337725,-0.971532,0.798895,3.282051,-5.834385
1790548964.9502,-0.002376,0.013781,-0.025075,-0.003547,0.013368,-0.025075,-0.010632,-0.032588,-0.647356,-1.615768,2.389731,-9.987182
1790548964.9645,-0.005957,0.014625,-0.034958,-0.005234,0.014248,-0.034958,0.034291,0.340153,-0.192053,-0.772552,2.910251,-9.443825
1790548964.9789,-0.004320,0.014810,-0.036264,-0.004594,0.014642,-0.036264,0.118067,0.000194,0.450228,-3.110559,3.839751,-10.491728
1790548964.9944,0.001288,0.006315,-0.028528,-0.000477,0.008813,-0.028528,0.578227,-0.361621,0.748907,-2.727279,2.426911,-12.665154
1790548965.0083,0.005637,0.000996,-0.018157,0.003803,0.003341,-0.018157,0.515091,-0.372548,1.011162,-1.769080,3.393591,-10.530539
1790548965.0220,0.004002,-0.003817,0.003415,0.003942,-0.001669,0.003415,0.578227,-0.078726,1.371762,-0.350944,3.876931,-8.628791
1790548965.0361,0.001163,-0.007976,0.019390,0.001996,-0.006084,0.019390,0.336612,0.040260,1.381475,-0.925864,2.092291,-12.005364
1790548965.0500,0.000613,-0.006220,0.038586,0.001028,-0.006179,0.038586,-0.002133,-0.146718,1.617019,-1.040848,3.356411,-11.500819
1790548965.0640,-0.003998,-0.006625,0.057317,-0.002490,-0.006491,0.057317,0.053717,0.144677,1.670441,-0.810880,1.311511,-8.434735
1790548965.0780,-0.011626,-0.006441,0.090072,-0.008885,-0.006456,0.090072,-0.028844,0.198099,1.665584,0.990535,0.865351,-7.658511
1790548965.0919,-0.014943,-0.010140,0.114256,-0.013125,-0.009035,0.114256,0.210342,0.003836,1.698366,-0.235960,0.679451,-10.142427
1790548965.1059,-0.018699,-0.020746,0.138152,-0.017027,-0.017233,0.138152,0.587940,0.185957,1.510174,-1.615768,-0.882109,-8.978091
1790548965.1200,-0.022920,-0.025884,0.150429,-0.021152,-0.023289,0.150429,0.294117,0.304943,1.114364,-1.807408,0.344831,-8.939280
1790548965.1339,-0.024733,-0.028001,0.158227,-0.023659,-0.026588,0.158227,0.045218,0.269733,0.587426,-3.570495,-0.212869,-12.005364
1790548965.1478,-0.029150,-0.031770,0.163456,-0.027503,-0.030215,0.163456,0.164204,0.279446,0.387093,0.032335,-0.212869,-11.733686
1790548965.1618,-0.041683,-0.039572,0.174017,-0.037429,-0.036765,0.174017,0.496879,0.731107,0.382236,2.102047,0.419191,-10.569350
1790548965.1755,-0.051154,-0.046505,0.182725,-0.047037,-0.043583,0.182725,0.553944,0.540487,0.230468,1.833751,1.571771,-8.434735
1790548965.1895,-0.055516,-0.052725,0.182453,-0.052972,-0.049983,0.182453,0.535732,0.341368,0.060489,-0.082648,2.017931,-8.395923
1790548965.2046,-0.055318,-0.056006,0.178281,-0.054614,-0.054199,0.178281,0.249194,0.058472,-0.143487,-0.427600,1.311511,-9.482637
1790548965.2189,-0.045604,-0.049560,0.176188,-0.048307,-0.050952,0.176188,-0.503574,-0.651801,-0.230906,0.338959,0.344831,-15.964105
1790548965.2328,-0.032597,-0.038567,0.178393,-0.037310,-0.042282,0.178393,-0.871459,-0.997831,-0.346249,1.987063,-0.064149,-13.169700
1790548965.2469,-0.034281,-0.026824,0.203252,-0.035190,-0.031461,0.203252,-0.934594,-0.208639,-0.425168,5.973173,-0.435949,-9.016902
1790548965.2610,-0.019004,-0.009999,0.198112,-0.023860,-0.016438,0.198112,-1.127643,-1.088892,-0.417883,0.415615,1.348691,-5.485084
1790548965.2749,-0.006590,0.008314,0.207089,-0.011771,0.000888,0.207089,-1.381399,-1.226090,-0.383887,3.596838,0.382011,-5.795574
1790548965.2889,0.017801,0.032186,0.209197,0.008929,0.022797,0.209197,-1.847629,-1.720246,-0.851332,1.373815,-0.026969,-11.384385
1790548965.3029,0.000869,0.020173,0.195474,0.003287,0.020960,0.195474,0.771275,1.472948,-0.924181,-1.845736,1.460231,-15.459560
1790548965.3169,0.013871,0.011997,0.159442,0.010696,0.014686,0.159442,0.755491,-0.555883,-1.241072,-5.640206,8.896230,-18.370399
1790548965.3309,0.007950,0.010801,0.125639,0.008774,0.011966,0.125639,0.296546,0.559913,-1.516682,1.565455,4.992331,-8.395923
1790548965.3448,0.005098,0.017443,0.083449,0.006201,0.015800,0.083449,-0.249818,0.636404,-1.542179,-1.040848,2.241011,-3.583336
1790548965.3588,0.000603,0.020523,0.072524,0.002283,0.019106,0.072524,-0.254675,0.451855,-1.105088,0.568927,1.125611,-6.959909
1790548965.3728,-0.000547,0.020430,0.059126,0.000302,0.020033,0.059126,0.001509,0.239380,-0.978817,0.108991,1.757671,-9.055714
1790548965.3868,0.005471,0.019447,0.034134,0.003921,0.019622,0.034134,0.121709,-0.094509,-1.044381,-2.573967,2.835891,-10.142427
1790548965.4004,0.005558,0.022182,0.016304,0.005067,0.021414,0.016304,-0.000919,0.213883,-0.839191,-0.925864,3.802571,-7.115154
1790548965.4141,0.010155,0.021201,-0.002920,0.008629,0.021265,-0.002920,0.116853,-0.062942,-0.640071,-2.612295,2.687171,-10.025993
1790548965.4282,0.007475,0.021982,-0.012338,0.007821,0.021766,-0.012338,0.010008,0.332869,0.014351,-2.075704,2.538451,-8.900469
1790548965.4423,0.014747,0.014781,-0.013786,0.012669,0.016877,-0.013786,0.566085,-0.435683,0.449014,-3.033903,2.649991,-10.879840
1790548965.4566,0.016687,0.006557,-0.005672,0.015482,0.009653,-0.005672,0.733637,-0.103008,0.720982,-2.842263,3.914111,-9.948371
1790548965.4706,0.014875,0.004896,0.010490,0.015057,0.006323,0.010490,0.294117,0.036618,1.048800,-1.500784,3.876931,-9.793126
1790548965.4846,0.007688,0.003988,0.022591,0.009899,0.004688,0.022591,0.141136,0.381434,1.287986,-1.539112,2.873071,-12.354665
1790548965.4986,0.002210,0.000631,0.037574,0.004517,0.001848,0.037574,0.320829,0.241808,1.533243,-1.500784,2.464091,-10.220049
1790548965.5126,-0.001616,-0.001390,0.052294,0.000224,-0.000419,0.052294,0.224911,0.150747,1.579380,-1.539112,2.017931,-8.085434
1790548965.5265,-0.006744,-0.001385,0.073863,-0.004654,-0.001095,0.073863,0.058574,0.142248,1.601235,-0.274288,1.646131,-7.464455
1790548965.5405,-0.009373,-0.003600,0.089985,-0.007957,-0.002849,0.089985,0.091356,-0.001020,1.544170,-0.619240,0.344831,-8.667602
1790548965.5546,-0.015508,-0.012688,0.119127,-0.013243,-0.009736,0.119127,0.482309,0.177458,1.472536,0.530599,-1.105189,-9.521448
1790548965.5685,-0.020876,-0.021566,0.143923,-0.018586,-0.018017,0.143923,0.513877,0.149533,1.298913,0.760567,-0.435949,-9.133336
1790548965.5825,-0.024067,-0.028893,0.148686,-0.022423,-0.025630,0.148686,0.407033,0.277018,0.848467,-2.458983,-0.398769,-10.763406
1790548965.5966,-0.027873,-0.034142,0.147833,-0.026238,-0.031589,0.147833,0.296546,0.320727,0.384664,-1.424128,0.158931,-11.190329
1790548965.6105,-0.036557,-0.043010,0.150728,-0.033461,-0.039584,0.150728,0.573370,0.576911,0.221969,0.607255,0.270471,-11.035084
1790548965.6246,-0.047936,-0.051896,0.166446,-0.043594,-0.048202,0.166446,0.677786,0.669186,0.231683,1.987063,1.757671,-9.676693
1790548965.6384,-0.055452,-0.062717,0.167587,-0.051894,-0.058363,0.167587,0.834411,0.556271,0.095699,0.108991,1.385871,-8.124245
1790548965.6521,-0.056506,-0.068010,0.164163,-0.055122,-0.065116,0.164163,0.425245,0.147105,-0.058497,-0.542584,1.497411,-10.414105
1790548965.6661,-0.050248,-0.063763,0.159245,-0.051710,-0.064169,0.159245,-0.325095,-0.418685,-0.352320,0.492271,0.530731,-12.742777
1790548965.6802,-0.039307,-0.054038,0.157146,-0.043028,-0.057077,0.157146,-0.763400,-0.788999,-0.498017,1.450471,-0.361589,-13.790679
1790548965.6943,-0.032717,-0.046495,0.182635,-0.035810,-0.049669,0.182635,-0.638344,-0.674869,-0.686209,3.443526,-0.659029,-7.503266
1790548965.7091,-0.028045,-0.031080,0.207817,-0.030374,-0.036657,0.207817,-1.057223,-0.593522,-0.587863,3.520182,0.530731,-5.523895
1790548965.7232,-0.011518,-0.009285,0.212190,-0.017175,-0.017496,0.212190,-1.533166,-1.301367,-0.593934,1.833751,0.902531,-5.717951
1790548965.7372,0.007999,0.015257,0.221987,0.000447,0.005431,0.221987,-1.867055,-1.655896,-0.578150,2.255358,-0.026969,-4.165504
1790548965.7515,0.028963,0.047273,0.208463,0.020408,0.034720,0.208463,-2.239797,-1.859872,-0.667997,2.408670,0.530731,-2.263755
1790548965.7655,-0.001242,0.030663,0.210215,0.005253,0.031880,0.210215,0.846552,2.205076,-1.182793,7.467964,-5.752688,-21.281238
1790548965.7795,0.032763,0.014984,0.145943,0.024510,0.020053,0.145943,1.321282,-1.908438,-1.383126,-8.054869,7.483390,-12.820399
1790548965.7935,0.020172,0.012879,0.123630,0.021473,0.015031,0.123630,0.258907,0.892588,-1.746155,6.203141,6.070550,-10.996273
1790548965.8075,0.013906,0.018496,0.097291,0.016176,0.017457,0.097291,-0.363948,0.624263,-1.778937,1.373815,2.426911,-7.115154
1790548965.8217,0.011749,0.020732,0.108492,0.013077,0.019749,0.108492,-0.410085,0.239380,-1.208290,1.182175,-0.956469,-7.386832
1790548965.8357,0.017482,0.019863,0.078490,0.016161,0.019829,0.078490,0.085285,-0.062942,-1.006742,-2.650623,2.166651,-8.861658
1790548965.8497,0.019839,0.016717,0.053828,0.018736,0.017651,0.053828,0.271049,0.080327,-0.905969,-1.270816,2.092291,-7.348021
1790548965.8635,0.025375,0.016656,0.025026,0.023383,0.016954,0.025026,0.094998,-0.115150,-0.790625,-2.573967,3.282051,-9.249770
1790548965.8771,0.025031,0.014179,0.009755,0.024537,0.015012,0.009755,0.196986,0.223596,-0.355962,-2.688951,2.352551,-11.112707
1790548965.8910,0.025780,0.012978,0.004445,0.025407,0.013588,0.004445,0.154491,-0.021661,0.107840,-1.347472,3.133331,-11.617252
1790548965.9049,0.021393,0.012234,0.003202,0.022597,0.012641,0.003202,0.165418,0.289159,0.592283,-1.462456,3.319231,-10.608161
1790548965.9188,0.019777,0.010235,0.001783,0.020623,0.010957,0.001783,0.285618,0.148319,0.898247,-3.493839,3.802571,-10.763406
1790548965.9328,0.016015,0.003838,0.008296,0.017397,0.005974,0.008296,0.501736,0.223596,1.096152,-3.302199,2.501271,-14.411658
1790548965.9467,0.012921,0.002150,0.019075,0.014264,0.003297,0.019075,0.190915,0.125250,1.360835,-2.458983,2.464091,-11.811308
1790548965.9612,0.004089,0.008198,0.035999,0.007142,0.006727,0.035999,-0.244962,0.444570,1.471322,-0.964192,3.207691,-7.736133
1790548965.9752,-0.000218,0.009832,0.055273,0.001990,0.008900,0.055273,-0.145402,0.113109,1.629160,-0.887536,0.567911,-7.115154
1790548965.9892,-0.006019,0.007202,0.090798,-0.003616,0.007711,0.090798,0.143564,0.043903,1.691081,0.913879,0.493551,-7.425644
1790548966.0033,-0.012985,0.002001,0.126049,-0.010174,0.003714,0.126049,0.371823,0.107038,1.742075,1.143847,1.088431,-7.115154
1790548966.0173,-0.019510,-0.007667,0.156469,-0.016709,-0.004253,0.156469,0.614651,0.167745,1.686225,0.568927,0.307651,-8.900469
1790548966.0313,-0.023586,-0.011681,0.170347,-0.021523,-0.009453,0.170347,0.267406,0.199313,1.451895,-1.577440,1.162791,-8.861658
1790548966.0452,-0.026768,-0.011799,0.179603,-0.025195,-0.011095,0.179603,-0.026416,0.183529,0.986879,-1.654096,1.311511,-12.509909
1790548966.0593,-0.026568,-0.012685,0.192307,-0.026156,-0.012208,0.192307,-0.006990,-0.120006,0.631135,0.338959,0.530731,-11.267951
1790548966.0734,-0.037178,-0.017901,0.214942,-0.033872,-0.016193,0.214942,0.302616,0.530774,0.506079,2.370342,0.419191,-8.900469
1790548966.0869,-0.044814,-0.024564,0.223830,-0.041531,-0.022053,0.223830,0.477453,0.450640,0.462370,0.875551,1.014071,-7.891378
1790548966.1006,-0.051438,-0.035685,0.228840,-0.048466,-0.031595,0.228840,0.770061,0.449426,0.285105,0.338959,0.567911,-8.551168
1790548966.1145,-0.055000,-0.043879,0.226844,-0.053040,-0.040194,0.226844,0.592796,0.292802,0.056846,-0.235960,1.199971,-9.987182
1790548966.1291,-0.044105,-0.039819,0.226746,-0.046785,-0.039931,0.226746,-0.306883,-0.719793,-0.115562,-0.044320,1.125611,-16.352217
1790548966.1435,-0.032780,-0.028217,0.235604,-0.036982,-0.031731,0.235604,-0.909097,-0.844849,-0.261259,1.948735,-0.547489,-13.014455
1790548966.1576,-0.029453,-0.018950,0.256184,-0.031712,-0.022784,0.256184,-0.855675,-0.406544,-0.524728,3.596838,-1.737248,-8.667602
1790548966.1717,-0.020736,-0.004792,0.257173,-0.024029,-0.010190,0.257173,-0.960091,-0.870346,-0.388744,3.405198,1.460231,-6.144874
1790548966.1859,-0.008537,0.012145,0.261773,-0.013184,0.005445,0.261773,-1.206562,-1.098605,-0.342607,3.175230,1.051251,-6.532986
1790548966.2001,0.020054,0.035761,0.266490,0.010083,0.026666,0.266490,-1.699504,-2.089345,-0.443380,0.875551,0.865351,-5.756762
1790548966.2145,0.015823,0.041031,0.276391,0.014101,0.036721,0.276391,-0.654128,0.274590,-0.854975,5.359925,-3.968048,-18.098721
1790548966.2287,0.014066,0.019727,0.248067,0.014077,0.024825,0.248067,1.514330,0.502848,-0.909611,-7.211653,4.546171,-18.952567
1790548966.2427,0.020195,0.013421,0.211623,0.018359,0.016842,0.211623,0.523590,-0.092081,-1.642953,-2.535639,6.256450,-17.400119
1790548966.2567,0.015478,0.015171,0.181597,0.016342,0.015672,0.181597,-0.098050,0.534416,-1.681805,0.875551,2.129471,-6.882287
1790548966.2707,0.017058,0.021324,0.145904,0.016844,0.019629,0.145904,-0.406443,0.319513,-1.485114,-2.075704,1.943571,-6.532986
1790548966.2847,0.013039,0.019533,0.138560,0.014181,0.019562,0.138560,0.016079,0.428786,-1.083233,0.415615,0.456371,-7.192776
1790548966.2987,0.024699,0.015369,0.111394,0.021543,0.016627,0.111394,0.325685,-0.489106,-1.259284,-2.880591,3.058971,-11.112707
1790548966.3126,0.021162,0.017338,0.081381,0.021277,0.017124,0.081381,0.059788,0.402075,-1.031025,0.262303,4.434631,-7.270399
1790548966.3262,0.026075,0.015819,0.060802,0.024636,0.016211,0.060802,0.147206,-0.099366,-0.756629,-2.918919,3.096151,-11.578441
1790548966.3398,0.024440,0.013800,0.046340,0.024498,0.014523,0.046340,0.205485,0.273376,-0.399671,-1.500784,2.612811,-9.094525
1790548966.3537,0.027574,0.012062,0.045425,0.026651,0.012801,0.045425,0.121709,-0.157645,0.269321,-2.612295,1.646131,-11.578441
1790548966.3676,0.028504,0.008371,0.042426,0.027948,0.009700,0.042426,0.376679,0.001408,0.515792,-3.033903,3.207691,-10.181238
1790548966.3816,0.024956,0.002640,0.044679,0.025854,0.004758,0.044679,0.489594,0.246664,0.713697,-2.880591,3.393591,-13.945924
1790548966.3956,0.020657,0.000516,0.054319,0.022216,0.001789,0.054319,0.209127,0.224810,1.121649,-2.727279,2.798711,-15.187882
1790548966.4095,0.016338,0.001736,0.065528,0.018101,0.001752,0.065528,0.046432,0.243022,1.347479,-2.229015,2.687171,-8.512357
1790548966.4234,0.007429,0.004174,0.082933,0.010630,0.003447,0.082933,-0.073768,0.433642,1.508960,-0.389272,1.646131,-6.183686
1790548966.4374,-0.000781,0.003522,0.105481,0.002643,0.003500,0.105481,0.047647,0.332869,1.659514,-0.197632,0.865351,-7.464455
1790548966.4515,-0.003909,-0.001180,0.130322,-0.001943,0.000224,0.130322,0.288047,-0.018018,1.725077,-0.542584,0.419191,-8.551168
1790548966.4658,-0.007473,-0.007354,0.159016,-0.005814,-0.005080,0.159016,0.377893,-0.031374,1.683797,0.262303,0.307651,-8.861658
1790548966.4798,-0.017315,-0.014463,0.184520,-0.013865,-0.011648,0.184520,0.441029,0.451855,1.559954,0.377287,0.307651,-9.249770
1790548966.4937,-0.019648,-0.016320,0.198474,-0.017913,-0.014919,0.198474,0.103497,0.143462,1.250348,-2.612295,1.088431,-10.957462
1790548966.5077,-0.021658,-0.018216,0.207109,-0.020534,-0.017227,0.207109,0.062216,0.167745,0.702770,-2.229015,0.307651,-11.811308
1790548966.5218,-0.025276,-0.022335,0.214514,-0.023854,-0.020802,0.214514,0.230982,0.206598,0.481796,-0.120976,0.456371,-11.229140
1790548966.5358,-0.037174,-0.030768,0.227160,-0.033178,-0.027778,0.227160,0.585512,0.686184,0.427159,1.680439,0.902531,-8.240679
1790548966.5495,-0.048007,-0.041567,0.235256,-0.043558,-0.037431,0.235256,0.791916,0.671614,0.325172,1.488799,1.162791,-8.861658
1790548966.5632,-0.055856,-0.052569,0.234934,-0.052167,-0.048028,0.234934,0.829554,0.584196,0.157620,0.032335,1.274331,-8.512357
1790548966.5770,-0.060658,-0.059050,0.231752,-0.058110,-0.055744,0.231752,0.470168,0.432428,0.000996,-0.964192,1.088431,-11.229140
1790548966.5910,-0.053763,-0.057793,0.230215,-0.055067,-0.057178,0.230215,-0.144188,-0.432041,-0.162914,-0.542584,0.047391,-14.799770
1790548966.6052,-0.035903,-0.049747,0.227667,-0.041652,-0.051976,0.227667,-0.621346,-1.199379,-0.372960,-0.274288,0.047391,-15.226693
1790548966.6192,-0.039637,-0.039362,0.273871,-0.040241,-0.043146,0.273871,-0.888457,-0.098152,-0.341392,6.624748,-1.328269,-7.774944
1790548966.6334,-0.026712,-0.023561,0.273995,-0.030771,-0.029436,0.273995,-1.185922,-0.943195,-0.515015,1.182175,0.047391,-7.580888
1790548966.6474,-0.017651,-0.004808,0.280056,-0.021587,-0.012196,0.280056,-1.428750,-0.900700,-0.394815,3.673494,-0.026969,-6.688231
1790548966.6615,0.003094,0.022728,0.277044,-0.004310,0.012251,0.277044,-1.947189,-1.631613,-0.561152,1.028863,0.567911,-2.729490
1790548966.6755,0.020149,0.057584,0.236807,0.012811,0.043984,0.236807,-2.140237,-1.534482,-0.749344,2.868606,2.464091,-1.409909
1790548966.6894,-0.003851,0.041058,0.270760,0.001148,0.041936,0.270760,0.785845,1.709706,-1.187650,7.544620,-5.641148,-13.751868
1790548966.7039,0.018937,0.022469,0.235364,0.013600,0.028309,0.235364,1.390488,-1.216377,-1.366128,-4.605350,7.297490,-18.370399
1790548966.7183,0.013849,0.016670,0.210856,0.013774,0.020162,0.210856,0.343897,0.529560,-1.850571,4.823333,3.802571,-20.349770
1790548966.7324,0.014672,0.020746,0.188312,0.014403,0.020570,0.188312,-0.323881,0.075470,-1.746155,2.753622,2.278191,-10.608161
1790548966.7465,0.012866,0.018919,0.195834,0.013327,0.019414,0.195834,-0.112620,0.175030,-1.094161,1.297159,-0.807749,-6.067252
1790548966.7603,0.022054,0.019612,0.153356,0.019436,0.019552,0.153356,0.048861,-0.229279,-1.058950,-3.455511,2.575631,-6.959909
1790548966.7743,0.023004,0.017665,0.117107,0.021934,0.018231,0.117107,0.266192,0.204170,-1.169437,-1.347472,4.174371,-9.288581
1790548966.7879,0.026949,0.015895,0.092385,0.025444,0.016596,0.092385,0.189701,-0.011948,-0.844047,-2.458983,2.984611,-9.560259
1790548966.8016,0.023200,0.016307,0.072922,0.023874,0.016393,0.072922,0.068287,0.423929,-0.489518,-1.117504,3.133331,-8.628791
1790548966.8156,0.024985,0.012881,0.074056,0.024652,0.013935,0.074056,0.213984,-0.062942,0.147907,-2.420655,1.385871,-12.820399
1790548966.8297,0.022293,0.009164,0.070342,0.023000,0.010595,0.070342,0.356039,0.230881,0.510935,-2.688951,3.207691,-11.229140
1790548966.8437,0.021845,0.006081,0.074266,0.022192,0.007435,0.074266,0.301402,0.002622,0.853323,-2.957247,3.319231,-13.635434
1790548966.8577,0.016946,0.003527,0.084198,0.018520,0.004699,0.084198,0.234624,0.285517,1.166572,-2.880591,2.315371,-12.859210
1790548966.8716,0.009894,0.006264,0.094363,0.012481,0.005794,0.094363,-0.085909,0.411788,1.385118,-1.807408,2.278191,-7.969000
1790548966.8856,0.002501,0.010473,0.108807,0.005495,0.009070,0.108807,-0.202467,0.341368,1.491962,-0.542584,1.608951,-5.679140
1790548966.8995,0.000564,0.007535,0.135229,0.002043,0.007995,0.135229,0.155705,-0.100580,1.619447,-0.504256,0.270471,-7.580888
1790548966.9135,-0.005096,0.002880,0.166781,-0.002954,0.004415,0.166781,0.354825,0.020834,1.746932,1.373815,1.460231,-8.861658
1790548966.9275,-0.008496,-0.002051,0.192560,-0.006834,-0.000111,0.192560,0.342683,-0.042301,1.646158,0.338959,1.125611,-9.405014
1790548966.9414,-0.018410,-0.008210,0.216938,-0.014937,-0.005780,0.216938,0.404604,0.460354,1.555097,0.415615,0.828171,-9.870749
1790548966.9555,-0.018965,-0.008544,0.232361,-0.017757,-0.007715,0.232361,0.006366,-0.022875,1.285558,-1.730752,1.051251,-8.279490
1790548966.9698,-0.019770,-0.009721,0.243946,-0.019166,-0.009119,0.243946,0.018507,0.071828,0.764691,-2.267343,0.493551,-10.763406
1790548966.9838,-0.025888,-0.012542,0.261156,-0.023872,-0.011515,0.261156,0.114424,0.260020,0.527933,1.833751,0.158931,-10.569350
1790548966.9979,-0.036652,-0.020877,0.277227,-0.032818,-0.018068,0.277227,0.516305,0.578125,0.461155,2.217030,0.233291,-9.443825
1790548967.0119,-0.047803,-0.030752,0.286028,-0.043308,-0.026947,0.286028,0.703283,0.623049,0.410161,2.025391,1.274331,-8.589979
1790548967.0273,-0.055870,-0.039174,0.282831,-0.052101,-0.035506,0.282831,0.597653,0.542915,0.149121,-0.120976,1.794851,-8.589979
1790548967.0423,-0.054628,-0.043996,0.277421,-0.053870,-0.041449,0.277421,0.360895,-0.013162,-0.105849,-0.772552,2.203831,-13.014455
1790548967.0567,-0.046241,-0.039448,0.279532,-0.048530,-0.040048,0.279532,-0.360305,-0.594736,-0.258831,1.412143,0.530731,-15.071448
1790548967.0716,-0.031548,-0.028652,0.279092,-0.036642,-0.032071,0.279092,-0.788897,-0.928625,-0.491946,0.147319,0.047391,-14.178791
1790548967.0860,-0.028019,-0.019596,0.305164,-0.030606,-0.023338,0.305164,-0.818037,-0.530386,-0.562366,4.248414,-1.253909,-5.679140
1790548967.0998,-0.012906,-0.003033,0.299934,-0.018216,-0.009125,0.299934,-1.176209,-1.115603,-0.550225,1.028863,1.199971,-6.688231
1790548967.1139,0.002644,0.017808,0.299418,-0.003614,0.009729,0.299418,-1.514954,-1.313508,-0.576936,3.558510,0.865351,-6.998721
1790548967.1279,0.025812,0.047597,0.279881,0.016984,0.036236,0.279881,-1.977542,-2.040779,-0.473734,3.980118,2.017931,-3.660958
1790548967.1420,0.005643,0.043809,0.302395,0.009046,0.041537,0.302395,-0.100479,1.402528,-1.109944,8.617804,-5.418068,-16.740329
1790548967.1560,0.019305,0.026965,0.264630,0.016227,0.031337,0.264630,1.271502,-0.469679,-1.268997,-8.591461,4.843611,-15.265504
1790548967.1699,0.012694,0.018324,0.239595,0.013754,0.022228,0.239595,0.570942,0.626691,-1.754654,4.363398,3.207691,-16.740329
1790548967.1838,0.006051,0.020506,0.210397,0.008362,0.021022,0.210397,-0.161186,0.655830,-1.791078,2.217030,2.464091,-10.025993
1790548967.1978,0.004447,0.027118,0.178535,0.005621,0.025289,0.178535,-0.472006,0.589053,-1.511825,-2.114032,1.348691,-5.989630
1790548967.2119,0.012312,0.025051,0.157743,0.010305,0.025123,0.157743,0.096212,-0.076297,-1.055308,-3.992103,0.828171,-6.998721
1790548967.2265,0.023999,0.018075,0.131382,0.019891,0.020189,0.131382,0.506592,-0.404116,-1.103874,-4.068759,2.538451,-9.405014
1790548967.2403,0.023520,0.017855,0.103285,0.022431,0.018555,0.103285,0.154491,0.243022,-0.972746,-0.772552,3.802571,-8.046623
1790548967.2540,0.025400,0.015233,0.084703,0.024509,0.016230,0.084703,0.227340,0.090040,-0.755415,-2.075704,2.910251,-10.569350
1790548967.2681,0.029205,0.008606,0.076858,0.027796,0.010893,0.076858,0.509021,-0.152788,-0.117990,-1.960720,2.166651,-9.327392
1790548967.2822,0.031920,0.000571,0.080114,0.030683,0.003668,0.080114,0.635291,-0.211067,0.587426,-2.152360,2.649991,-12.238231
1790548967.2963,0.026484,-0.001051,0.089173,0.027743,0.000365,0.089173,0.223697,0.284303,1.144717,-2.458983,3.876931,-15.187882
1790548967.3105,0.020714,0.003057,0.099178,0.022823,0.002249,0.099178,-0.185469,0.461568,1.224851,-6.598406,3.765391,-13.751868
1790548967.3244,0.009443,0.003855,0.115335,0.013457,0.003374,0.115335,-0.091980,0.761461,1.281915,-2.305671,0.419191,-8.784035
1790548967.3384,0.007253,0.001264,0.139927,0.009114,0.001897,0.139927,0.122923,0.097325,1.555097,-1.922392,-0.026969,-5.523895
1790548967.3524,0.013360,-0.008289,0.173555,0.012086,-0.005234,0.173555,0.561229,-0.541314,1.742075,-1.922392,-0.807749,-5.950818
1790548967.3665,0.004004,-0.012774,0.199560,0.006428,-0.010512,0.199560,0.408247,0.340153,1.783356,0.837223,1.980751,-8.706413
1790548967.3806,-0.002376,-0.017236,0.228040,0.000265,-0.015219,0.228040,0.271049,0.194456,1.850134,-0.159304,0.196111,-10.452916
1790548967.3946,-0.011451,-0.024421,0.258785,-0.007936,-0.021660,0.258785,0.448313,0.330440,1.844063,1.143847,0.084571,-10.918651
1790548967.4086,-0.013161,-0.027299,0.280561,-0.011593,-0.025607,0.280561,0.190915,0.000194,1.606091,-1.155832,0.790991,-7.969000
1790548967.4226,-0.016125,-0.031211,0.298081,-0.014765,-0.029530,0.298081,0.217626,0.200527,1.182356,-2.343999,0.233291,-10.336483
1790548967.4367,-0.020702,-0.034292,0.309176,-0.018921,-0.032863,0.309176,0.179988,0.308586,0.812043,-1.309144,0.642271,-10.181238
1790548967.4507,-0.029888,-0.041742,0.321402,-0.026598,-0.039078,0.321402,0.467740,0.495564,0.689414,1.527127,0.233291,-10.414105
1790548967.4649,-0.043427,-0.047492,0.330831,-0.038378,-0.044968,0.330831,0.444671,0.772388,0.644491,2.025391,1.794851,-9.016902
1790548967.4791,-0.051316,-0.055306,0.335351,-0.047435,-0.052204,0.335351,0.563657,0.507705,0.413804,0.492271,1.348691,-9.599070
1790548967.4931,-0.054712,-0.061604,0.336688,-0.052529,-0.058784,0.336688,0.455598,0.269733,0.181903,-0.312616,1.162791,-10.452916
1790548967.5073,-0.049864,-0.061570,0.338226,-0.050664,-0.060734,0.338226,-0.045842,-0.319126,0.002210,-0.044320,0.307651,-12.160609
1790548967.5214,-0.039506,-0.055103,0.340426,-0.042854,-0.056792,0.340426,-0.554568,-0.741647,-0.194481,0.798895,-0.807749,-13.441378
1790548967.5355,-0.031715,-0.045037,0.344879,-0.035057,-0.048563,0.344879,-0.855675,-0.649372,-0.365675,2.408670,-1.402628,-9.715504
1790548967.5498,-0.022168,-0.029280,0.348981,-0.026034,-0.035065,0.348981,-1.235702,-0.869132,-0.437310,3.290214,-0.770569,-7.270399
1790548967.5638,-0.012608,-0.010174,0.348525,-0.016636,-0.017641,0.348525,-1.409324,-0.897057,-0.336536,2.791950,0.344831,-6.106063
1790548967.5779,0.012915,0.014388,0.349194,0.004049,0.004779,0.349194,-1.826989,-1.828304,-0.513801,0.492271,0.344831,-6.067252
1790548967.5917,0.038212,0.044303,0.348775,0.027963,0.032446,0.348775,-2.193660,-2.045636,-0.368104,3.750150,1.423051,-9.831937
1790548967.6061,0.012036,0.025882,0.341274,0.016814,0.027851,0.341274,1.091809,2.166223,-0.925395,-4.758662,-0.807749,-19.301868
1790548967.6202,0.036703,0.013316,0.317207,0.030736,0.017676,0.317207,1.018960,-1.375429,-1.285995,-8.131525,10.383430,-21.203616
1790548967.6346,0.028495,0.011274,0.286733,0.029167,0.013195,0.286733,0.063430,0.737178,-1.863927,2.178703,1.906391,-9.637881
1790548967.6488,0.023874,0.020804,0.247337,0.025462,0.018521,0.247337,-0.512073,0.732321,-1.691518,-1.117504,2.761531,-4.359560
1790548967.6628,0.026359,0.025385,0.229883,0.026090,0.023326,0.229883,-0.333594,0.034190,-1.101445,-0.389272,1.423051,-5.834385
1790548967.6772,0.036738,0.024143,0.211974,0.033544,0.023898,0.211974,0.143564,-0.249920,-1.057736,-4.528694,2.724351,-6.882287
1790548967.6913,0.037795,0.024115,0.189384,0.036519,0.024050,0.189384,0.206699,0.273376,-1.055308,-2.305671,4.397451,-5.912007
1790548967.7050,0.040382,0.024827,0.172091,0.039224,0.024594,0.172091,0.061002,0.070614,-0.892613,-2.267343,4.583351,-9.676693
1790548967.7191,0.035033,0.024699,0.160078,0.036290,0.024667,0.160078,0.059788,0.519846,-0.585435,-1.002520,3.393591,-10.181238
1790548967.7337,0.037440,0.021015,0.163124,0.037095,0.022111,0.163124,0.230982,-0.155217,0.253537,-1.769080,1.348691,-11.656063
1790548967.7479,0.040353,0.015158,0.169922,0.039376,0.017244,0.169922,0.496879,-0.225637,0.712483,-2.803935,2.910251,-11.656063
1790548967.7620,0.036233,0.012214,0.180307,0.037176,0.013723,0.180307,0.382750,0.200527,0.951669,-1.845736,4.323091,-10.841028
1790548967.7760,0.025399,0.016075,0.189349,0.028932,0.015369,0.189349,-0.176970,0.710467,1.056085,-3.340527,4.025651,-14.799770
1790548967.7900,0.024644,0.011128,0.205265,0.025930,0.012400,0.205265,0.358467,-0.038659,1.382689,-3.493839,1.051251,-12.626343
1790548967.8041,0.015398,0.009713,0.228400,0.018558,0.010519,0.228400,0.249194,0.372935,1.513817,0.262303,2.761531,-8.124245
1790548967.8181,0.006614,0.011136,0.252636,0.010197,0.010951,0.252636,-0.009418,0.315871,1.620661,0.338959,1.608951,-6.261308
1790548967.8322,0.004035,0.005842,0.279071,0.005884,0.007374,0.279071,0.380322,-0.133362,1.726292,0.262303,0.976891,-8.667602
1790548967.8461,0.001508,-0.001254,0.308079,0.002820,0.001335,0.308079,0.502950,-0.173429,1.649801,1.028863,0.753811,-7.930189
1790548967.8601,-0.011165,-0.007169,0.334740,-0.006970,-0.004618,0.334740,0.414317,0.570840,1.545384,1.488799,0.976891,-8.745224
1790548967.8739,-0.012372,-0.009331,0.350626,-0.010751,-0.007917,0.350626,0.114424,-0.022875,1.272202,-1.462456,0.828171,-11.306763
1790548967.8879,-0.013026,-0.011286,0.358665,-0.012343,-0.010275,0.358665,0.085285,0.034190,0.690628,-1.769080,0.642271,-12.121798
1790548967.9019,-0.019765,-0.014501,0.368347,-0.017539,-0.013233,0.368347,0.164204,0.365650,0.498794,0.952207,0.419191,-11.617252
1790548967.9158,-0.029925,-0.020205,0.376908,-0.026209,-0.018113,0.376908,0.426459,0.579339,0.419875,1.527127,1.423051,-8.434735
1790548967.9296,-0.039896,-0.027953,0.383211,-0.035790,-0.025001,0.383211,0.563657,0.601194,0.281462,1.642111,1.311511,-9.482637
1790548967.9433,-0.045929,-0.033955,0.381408,-0.042887,-0.031269,0.381408,0.488380,0.445784,0.032563,0.185647,1.794851,-8.745224
1790548967.9572,-0.050423,-0.040123,0.376914,-0.048162,-0.037466,0.376914,0.454384,0.399646,-0.132560,-0.542584,1.162791,-9.443825
1790548967.9713,-0.046181,-0.044861,0.375620,-0.046776,-0.042643,0.375620,0.243123,-0.209853,-0.175055,-1.040848,-0.584669,-11.850119
1790548967.9862,-0.033345,-0.038607,0.374300,-0.037375,-0.039818,0.374300,-0.442867,-0.866704,-0.324394,1.182175,1.014071,-14.683336
1790548968.0003,-0.020510,-0.025911,0.370347,-0.025569,-0.030083,0.370347,-0.932166,-0.892201,-0.555081,0.798895,0.790991,-10.802217
1790548968.0147,-0.013095,-0.016567,0.379616,-0.016838,-0.020622,0.379616,-0.854461,-0.655443,-0.581793,2.370342,-1.402628,-6.222497
1790548968.0288,0.005525,0.002550,0.379489,-0.001184,-0.004402,0.379489,-1.389898,-1.415496,-0.535655,1.412143,0.567911,-5.485084
1790548968.0428,0.024171,0.024277,0.383626,0.016564,0.015673,0.383626,-1.671579,-1.507771,-0.551439,2.293686,-0.026969,-5.834385
1790548968.0570,0.036470,0.047106,0.369610,0.030498,0.037676,0.369610,-1.606015,-0.678512,-0.961819,-0.619240,2.017931,-7.270399
1790548968.0711,0.018754,0.038320,0.344927,0.022277,0.038127,0.344927,0.624364,1.665997,-0.995815,-7.824901,6.330810,-21.281238
1790548968.0851,0.028612,0.034885,0.323824,0.026711,0.035858,0.323824,0.297760,-0.470893,-1.345488,-0.235960,4.917971,-13.363756
1790548968.0991,0.021095,0.029116,0.301328,0.022780,0.031138,0.301328,0.351182,0.734750,-1.693947,1.910407,2.166651,-10.258860
1790548968.1134,0.024070,0.042016,0.255918,0.023683,0.038753,0.255918,-0.690552,0.454283,-1.644167,-2.382327,2.315371,-2.341378
1790548968.1275,0.018342,0.040307,0.255649,0.019944,0.039841,0.255649,-0.113834,0.455497,-1.157296,1.642111,-0.696209,-5.795574
1790548968.1415,0.018547,0.036273,0.242527,0.018966,0.037343,0.242527,0.147206,0.258806,-1.061379,-1.309144,0.196111,-9.521448
1790548968.1555,0.019410,0.035336,0.227307,0.019277,0.035938,0.227307,0.121709,0.099753,-0.904754,-0.120976,3.244871,-9.443825
1790548968.1693,0.023656,0.038284,0.208520,0.022342,0.037580,0.208520,-0.084695,-0.013162,-0.739631,-2.765607,4.174371,-8.589979
1790548968.1831,0.020977,0.038132,0.200662,0.021386,0.037966,0.200662,0.036719,0.335297,-0.240619,-1.769080,2.501271,-9.676693
1790548968.1974,0.029451,0.034467,0.199576,0.027031,0.035517,0.199576,0.245552,-0.411401,0.240182,-6.100142,1.906391,-12.742777
1790548968.2114,0.032302,0.023585,0.206779,0.030721,0.027165,0.206779,0.801629,-0.248705,0.648133,-2.420655,2.352551,-13.557812
1790548968.2258,0.034334,0.019018,0.221178,0.033250,0.021462,0.221178,0.572156,-0.229279,1.022089,-2.075704,5.103871,-8.589979
1790548968.2405,0.027413,0.017761,0.241852,0.029164,0.018871,0.241852,0.232196,0.219953,1.399687,-0.274288,3.951291,-11.927742
1790548968.2547,0.024275,0.013726,0.260574,0.025742,0.015269,0.260574,0.370608,0.017192,1.528386,-1.807408,2.873071,-13.324944
1790548968.2684,0.021380,0.013053,0.280729,0.022688,0.013718,0.280729,0.237053,0.009907,1.674083,-1.462456,3.319231,-8.434735
1790548968.2815,0.018198,0.012619,0.299955,0.019545,0.012949,0.299955,0.064645,0.006264,1.623089,-0.772552,1.162791,-8.745224
1790548968.2945,0.015408,0.012205,0.322531,0.016649,0.012428,0.322531,0.040362,-0.087225,1.625518,0.070663,0.828171,-8.046623
1790548968.3080,0.011017,0.008762,0.343981,0.012707,0.009862,0.343981,0.256479,0.057258,1.587879,-0.159304,0.902531,-9.327392
1790548968.3220,0.004133,-0.000424,0.364634,0.006705,0.002662,0.364634,0.569728,0.266091,1.434897,-0.197632,-0.324409,-8.745224
1790548968.3360,-0.000050,-0.004914,0.376655,0.001976,-0.002641,0.376655,0.306259,0.227238,1.139861,-1.462456,0.790991,-8.124245
1790548968.3500,-0.001211,-0.006879,0.380642,-0.000255,-0.005608,0.380642,0.065859,0.153176,0.571642,-3.187215,0.121751,-11.656063
1790548968.3638,-0.008600,-0.010851,0.388062,-0.006096,-0.009278,0.388062,0.215198,0.408145,0.367667,1.412143,0.270471,-12.160609
1790548968.3777,-0.019017,-0.018042,0.395103,-0.015141,-0.015413,0.395103,0.477453,0.616978,0.334885,1.450471,0.679451,-9.482637
1790548968.3914,-0.031108,-0.026326,0.404102,-0.026318,-0.023052,0.404102,0.628006,0.693469,0.255965,2.485326,1.497411,-8.667602
1790548968.4050,-0.037994,-0.033194,0.403752,-0.034491,-0.030151,0.403752,0.567299,0.500420,0.045919,0.262303,1.794851,-8.046623
1790548968.4190,-0.040573,-0.037869,0.400240,-0.038748,-0.035554,0.400240,0.379107,0.238166,-0.119204,-0.350944,1.794851,-9.482637
1790548968.4330,-0.034213,-0.037013,0.397459,-0.035573,-0.036575,0.397459,-0.115048,-0.407758,-0.238190,-0.235960,0.344831,-14.528091
1790548968.4468,-0.016248,-0.027815,0.393214,-0.022046,-0.030443,0.393214,-0.720905,-1.223662,-0.440952,-0.542584,0.382011,-12.975644
1790548968.4608,-0.010306,-0.016606,0.398571,-0.013828,-0.020757,0.398571,-0.910312,-0.578952,-0.400885,3.328542,-0.473129,-9.637881
1790548968.4748,-0.003915,-0.002769,0.408668,-0.006889,-0.008165,0.408668,-1.028083,-0.780500,-0.561152,4.938317,0.567911,-5.950818
1790548968.4891,0.008198,0.016836,0.411986,0.003672,0.009336,0.411986,-1.440892,-1.093748,-0.513801,3.865134,0.344831,-6.494175
1790548968.5033,0.029414,0.040976,0.414630,0.021691,0.031484,0.414630,-1.805134,-1.715389,-0.575722,2.638638,0.233291,-5.368651
1790548968.5172,0.017599,0.039900,0.403114,0.018827,0.037375,0.403114,-0.083481,1.007932,-1.126942,1.987063,0.456371,-20.233336
1790548968.5314,0.028157,0.031610,0.376449,0.025358,0.033339,0.376449,0.677786,-0.376190,-1.067449,-7.901557,8.970590,-21.164805
1790548968.5455,0.025282,0.027759,0.345704,0.025305,0.029433,0.345704,0.357253,0.501634,-1.486328,-0.849208,5.661571,-12.509909
1790548968.5593,0.019168,0.027703,0.319871,0.021009,0.028222,0.319871,-0.014275,0.735964,-1.611385,-0.120976,2.203831,-8.395923
1790548968.5732,0.020917,0.030900,0.301477,0.020944,0.030096,0.301477,-0.315382,0.149533,-1.426835,-0.580912,1.460231,-10.957462
1790548968.5872,0.016813,0.027371,0.291488,0.018052,0.028188,0.291488,0.136279,0.408145,-1.103874,1.028863,0.530731,-8.240679
1790548968.6011,0.025911,0.025472,0.269664,0.023554,0.026287,0.269664,0.131422,-0.241421,-1.021312,-4.337055,2.166651,-9.405014
1790548968.6153,0.023990,0.028690,0.243401,0.023859,0.027969,0.243401,-0.019131,0.368079,-0.983674,-0.887536,4.657711,-6.727042
1790548968.6292,0.026722,0.027424,0.226978,0.025863,0.027588,0.226978,0.143564,0.048759,-0.681352,-2.152360,2.798711,-8.628791
1790548968.6431,0.023669,0.026424,0.218839,0.024328,0.026773,0.218839,0.096212,0.343796,-0.244261,-1.462456,2.203831,-8.978091
1790548968.6572,0.029351,0.019851,0.224480,0.027844,0.021928,0.224480,0.428887,-0.382261,0.503650,-2.803935,0.828171,-11.539630
1790548968.6712,0.028156,0.014330,0.230044,0.028062,0.016609,0.230044,0.499307,0.051188,0.731909,-2.152360,3.244871,-10.763406
1790548968.6851,0.027551,0.008962,0.239721,0.027704,0.011256,0.239721,0.544231,-0.052014,0.946812,-1.577440,3.914111,-10.375294
1790548968.6991,0.022598,0.006646,0.250107,0.024130,0.008029,0.250107,0.229768,0.290374,1.142289,-2.880591,2.426911,-12.044175
1790548968.7130,0.018643,0.006177,0.267713,0.020289,0.006733,0.267713,0.094998,0.121608,1.557526,-2.114032,2.092291,-11.811308
1790548968.7271,0.011930,0.003993,0.288019,0.014438,0.004815,0.288019,0.181202,0.266091,1.636445,-0.964192,1.088431,-8.589979
1790548968.7414,0.005882,0.002619,0.312415,0.008449,0.003278,0.312415,0.099855,0.151961,1.728720,-0.159304,0.642271,-6.571797
1790548968.7555,0.002886,-0.000749,0.338239,0.004555,0.000459,0.338239,0.165418,-0.031374,1.801568,-0.695896,-0.212869,-8.434735
1790548968.7696,-0.004693,-0.009265,0.365598,-0.001919,-0.006348,0.365598,0.532089,0.227238,1.680154,0.760567,-0.101329,-9.016902
1790548968.7836,-0.009952,-0.015773,0.388705,-0.007542,-0.012945,0.388705,0.387606,0.149533,1.546598,0.032335,-0.064149,-9.637881
1790548968.7976,-0.011476,-0.019089,0.403136,-0.010296,-0.017246,0.403136,0.181202,0.117965,1.124077,-3.187215,0.419191,-11.112707
1790548968.8117,-0.015774,-0.021631,0.411995,-0.014131,-0.020315,0.411995,0.113210,0.267305,0.695485,-0.964192,0.233291,-10.763406
1790548968.8259,-0.022441,-0.026868,0.419748,-0.019948,-0.024902,0.419748,0.305045,0.396004,0.558287,0.185647,0.270471,-11.384385
1790548968.8398,-0.033192,-0.033302,0.431210,-0.029219,-0.030782,0.431210,0.493237,0.570840,0.604424,2.102047,1.683311,-8.861658
1790548968.8535,-0.045573,-0.040428,0.437596,-0.040667,-0.037534,0.437596,0.561229,0.772388,0.400448,1.488799,1.683311,-8.434735
1790548968.8672,-0.052659,-0.046369,0.439043,-0.049061,-0.043718,0.439043,0.522376,0.491921,0.184331,0.415615,2.055111,-7.774944
1790548968.8813,-0.049403,-0.049299,0.438270,-0.049301,-0.047625,0.438270,0.179988,-0.202568,-0.070639,-0.044320,0.753811,-13.286133
1790548968.8952,-0.036022,-0.043433,0.436769,-0.040006,-0.044690,0.436769,-0.470792,-0.934696,-0.269758,0.262303,0.382011,-15.731238
1790548968.9092,-0.030226,-0.033389,0.438544,-0.033160,-0.036780,0.438544,-0.782827,-0.512174,-0.347463,2.140375,0.010211,-8.706413
1790548968.9230,-0.025702,-0.023227,0.444234,-0.027940,-0.027292,0.444234,-0.864174,-0.515817,-0.542940,2.983590,-0.659029,-6.416553
1790548968.9369,-0.013620,-0.005820,0.446612,-0.017916,-0.012261,0.446612,-1.295195,-1.077965,-0.460378,2.868606,0.456371,-6.028441
1790548968.9509,0.004801,0.015141,0.450794,-0.002014,0.006920,0.450794,-1.586589,-1.540553,-0.455522,3.021918,0.158931,-6.261308
1790548968.9649,0.024756,0.044794,0.445207,0.016725,0.033432,0.445207,-2.007896,-1.874442,-0.337750,4.478381,1.757671,-3.350469
1790548968.9788,0.001217,0.051893,0.441946,0.005869,0.046355,0.441946,-0.667483,1.633215,-0.796696,4.478381,0.047391,-10.220049
1790548968.9934,0.004614,0.027060,0.412874,0.004990,0.032849,0.412874,1.810581,0.145891,-1.100231,-7.096669,8.784690,-21.281238
1790548969.0076,0.024139,0.027057,0.380905,0.018394,0.028794,0.380905,0.108354,-1.113175,-1.751011,0.300631,5.326951,-11.733686
1790548969.0217,0.014260,0.022582,0.369307,0.015500,0.024446,0.369307,0.228554,0.726251,-1.465688,4.056774,1.348691,-9.637881
1790548969.0356,0.014799,0.028558,0.343905,0.015009,0.027324,0.343905,-0.413727,0.201741,-1.525181,0.223975,1.794851,-6.261308
1790548969.0496,0.023269,0.024930,0.345887,0.020791,0.025648,0.345887,0.016079,-0.311841,-1.012813,-1.769080,-1.216729,-7.542077
1790548969.0636,0.034847,0.018921,0.318452,0.030630,0.020939,0.318452,0.495665,-0.395617,-0.994601,-4.145415,2.724351,-7.386832
1790548969.0773,0.037382,0.016634,0.294348,0.035357,0.017925,0.294348,0.291689,0.015978,-0.941179,-1.155832,4.620531,-9.793126
1790548969.0910,0.043461,0.011538,0.279834,0.041029,0.013454,0.279834,0.388821,-0.183142,-0.601219,-3.417183,2.501271,-10.142427
1790548969.1064,0.043998,0.006363,0.273528,0.043108,0.008490,0.273528,0.370608,0.047545,-0.117990,-1.960720,2.649991,-11.190329
1790548969.1209,0.044945,-0.001710,0.279060,0.044394,0.001350,0.279060,0.613437,-0.087225,0.611709,-2.114032,2.092291,-10.996273
1790548969.1356,0.035712,-0.000055,0.290050,0.038317,0.000367,0.290050,-0.022774,0.531988,1.098580,-2.650623,3.467951,-15.964105
1790548969.1506,0.026015,0.007288,0.302832,0.029706,0.005211,0.302832,-0.472006,0.613335,1.081582,-3.877119,1.497411,-13.480189
1790548969.1659,0.007836,0.014004,0.317688,0.014397,0.011366,0.317688,-0.461079,1.095350,1.155645,-1.577440,0.716631,-9.210958
1790548969.1799,0.014297,0.009445,0.347409,0.014327,0.010022,0.347409,0.170275,-0.458752,1.382689,-2.497311,-0.956469,-5.213406
1790548969.1935,0.008362,0.008092,0.375054,0.010151,0.008671,0.375054,0.319614,-0.048372,1.523530,2.102047,2.575631,-4.980539
1790548969.2075,-0.004475,0.002837,0.403340,-0.000087,0.004587,0.403340,0.416746,0.496778,1.799140,2.063719,1.683311,-9.249770
1790548969.2214,-0.010111,-0.000732,0.428650,-0.007104,0.000864,0.428650,0.213984,0.171388,1.762716,-0.925864,0.828171,-12.277042
1790548969.2358,-0.019923,-0.004781,0.455185,-0.016077,-0.003087,0.455185,0.222483,0.425143,1.759073,-0.082648,0.567911,-10.608161
1790548969.2504,-0.018618,-0.008278,0.479130,-0.017856,-0.006721,0.479130,0.158134,-0.177071,1.553883,-2.037376,0.158931,-7.969000
1790548969.2645,-0.019820,-0.010479,0.493386,-0.019231,-0.009351,0.493386,0.088927,0.080327,0.986879,-1.960720,0.344831,-8.512357
1790548969.2785,-0.028780,-0.015740,0.506629,-0.025915,-0.013823,0.506629,0.284404,0.467638,0.763477,1.297159,0.010211,-10.336483
1790548969.2926,-0.040453,-0.024943,0.518240,-0.036092,-0.021607,0.518240,0.581869,0.641261,0.705198,1.987063,0.307651,-10.336483
1790548969.3062,-0.051723,-0.033805,0.523495,-0.047034,-0.030146,0.523495,0.681429,0.728679,0.595925,0.722239,1.869211,-9.172147
1790548969.3199,-0.059511,-0.040993,0.524770,-0.055768,-0.037739,0.524770,0.591582,0.562341,0.372523,-0.044320,2.241011,-9.327392
1790548969.3335,-0.061349,-0.044723,0.525434,-0.059675,-0.042628,0.525434,0.294117,0.153176,0.155192,-0.082648,1.460231,-9.521448
1790548969.3475,-0.053459,-0.042121,0.526808,-0.055324,-0.042273,0.526808,-0.242533,-0.536457,-0.091279,0.070663,0.270471,-13.713056
1790548969.3614,-0.041232,-0.035095,0.526072,-0.045459,-0.037249,0.526072,-0.566709,-0.839993,-0.309825,0.147319,0.158931,-13.790679
1790548969.3752,-0.037234,-0.027410,0.526804,-0.039702,-0.030361,0.526804,-0.690552,-0.393188,-0.436096,3.213558,-1.291089,-11.112707
1790548969.3893,-0.026391,-0.011233,0.520712,-0.030384,-0.016971,0.520712,-1.114287,-0.860633,-0.464021,1.757095,1.311511,-6.649420
1790548969.4034,-0.017185,0.007792,0.519021,-0.021145,0.000363,0.519021,-1.399611,-0.887344,-0.432453,3.596838,0.530731,-6.610609
1790548969.4175,0.009211,0.032039,0.520256,0.000104,0.022536,0.520256,-1.784494,-2.005569,-0.493160,1.297159,0.344831,-4.243126
1790548969.4315,0.033077,0.061587,0.508659,0.023185,0.049872,0.508659,-2.007896,-1.483488,-0.638857,-1.385800,2.129471,-4.980539
1790548969.4454,0.004833,0.049357,0.495525,0.010338,0.049511,0.495525,0.666859,2.304635,-1.123300,-0.082648,-0.807749,-19.340679
1790548969.4595,0.028918,0.035727,0.471514,0.023344,0.039862,0.471514,1.077239,-1.200593,-1.341846,-10.852812,8.412890,-17.477742
1790548969.4735,0.022530,0.030966,0.446745,0.022774,0.033635,0.446745,0.288047,0.561127,-1.703660,3.826806,2.426911,-10.452916
1790548969.4876,0.018901,0.039280,0.414202,0.020063,0.037587,0.414202,-0.508430,0.586624,-1.680591,-0.235960,3.096151,-6.765853
1790548969.5019,0.021413,0.038306,0.416763,0.021008,0.038090,0.416763,-0.286242,0.138606,-1.124514,-1.155832,-2.146228,-5.834385
1790548969.5160,0.034672,0.035221,0.394267,0.030573,0.036081,0.394267,0.311115,-0.481821,-1.089304,-3.148887,2.501271,-5.368651
1790548969.5300,0.037538,0.030768,0.376532,0.035449,0.032362,0.376532,0.322043,0.083969,-1.066235,-1.960720,2.798711,-9.560259
1790548969.5437,0.038532,0.030786,0.362613,0.037607,0.031259,0.362613,0.045218,0.075470,-0.817336,-0.427600,3.058971,-8.939280
1790548969.5573,0.036519,0.028174,0.352580,0.036846,0.029099,0.352580,0.186059,0.320727,-0.564795,-1.385800,2.017931,-8.745224
1790548969.5714,0.038335,0.022231,0.351007,0.037888,0.024291,0.351007,0.473810,-0.031374,0.081129,-2.267343,2.352551,-8.978091
1790548969.5853,0.040334,0.015949,0.357380,0.039600,0.018452,0.357380,0.519948,-0.164930,0.582570,-2.114032,2.501271,-10.685784
1790548969.5994,0.034594,0.012151,0.367151,0.036096,0.014041,0.367151,0.416746,0.313442,0.952883,-1.922392,4.137191,-11.733686
1790548969.6135,0.024863,0.012367,0.376665,0.028233,0.012869,0.376665,0.037933,0.677685,0.990521,-4.758662,3.244871,-16.468651
1790548969.6276,0.019493,0.011554,0.392112,0.022115,0.011949,0.392112,0.000295,0.318299,1.209067,-3.685479,-0.026969,-13.790679
1790548969.6416,0.015086,0.009643,0.411078,0.017194,0.010334,0.411078,0.126566,0.121608,1.403330,-0.887536,0.716631,-9.210958
1790548969.6556,0.006628,0.011334,0.430536,0.009798,0.011034,0.430536,-0.071339,0.382648,1.501675,-0.274288,0.939711,-4.902916
1790548969.6697,0.005885,0.005068,0.453928,0.007059,0.006858,0.453928,0.353610,-0.175857,1.603663,-0.695896,-0.398769,-8.357112
1790548969.6836,0.001265,-0.005776,0.479372,0.003004,-0.001986,0.479372,0.635291,0.008693,1.664370,0.760567,-1.216729,-8.589979
1790548969.6976,-0.005440,-0.015546,0.501435,-0.002907,-0.011478,0.501435,0.645004,0.213883,1.578166,0.530599,0.158931,-9.637881
1790548969.7115,-0.006511,-0.018572,0.521485,-0.005430,-0.016444,0.521485,0.213984,0.023262,1.376619,-2.382327,1.125611,-9.909560
1790548969.7256,-0.006580,-0.022382,0.534218,-0.006235,-0.020600,0.534218,0.234624,0.081541,0.791402,-3.800463,0.716631,-11.578441
1790548969.7397,-0.013636,-0.029641,0.542677,-0.011416,-0.026929,0.542677,0.433744,0.337725,0.697913,1.335487,-0.175689,-10.763406
1790548969.7543,-0.024894,-0.036594,0.552206,-0.020850,-0.033694,0.552206,0.521162,0.519846,0.737980,2.523654,1.683311,-8.124245
1790548969.7680,-0.040731,-0.046155,0.559124,-0.034767,-0.042417,0.559124,0.714211,0.922942,0.631135,2.830278,1.385871,-9.094525
1790548969.7816,-0.053237,-0.055291,0.562332,-0.047696,-0.051429,0.562332,0.705712,0.847665,0.367667,0.913879,1.683311,-9.599070
1790548969.7953,-0.055380,-0.059497,0.563203,-0.053075,-0.057076,0.563203,0.334184,0.211454,0.087200,-0.695896,1.646131,-11.190329
1790548969.8094,-0.048808,-0.056791,0.560969,-0.050088,-0.056876,0.560969,-0.206109,-0.450253,-0.218764,0.492271,0.902531,-13.519000
1790548969.8234,-0.041466,-0.047694,0.557066,-0.044052,-0.050449,0.557066,-0.713621,-0.493962,-0.396029,0.453943,-0.175689,-10.957462
1790548969.8377,-0.038864,-0.041201,0.553879,-0.040421,-0.043976,0.553879,-0.626202,-0.336124,-0.489518,3.290214,-1.811608,-8.046623
1790548969.8520,-0.028425,-0.028866,0.549231,-0.032023,-0.033399,0.549231,-0.907883,-0.839993,-0.386316,2.178703,0.344831,-8.007811
1790548969.8661,-0.016570,-0.012185,0.546880,-0.021206,-0.018549,0.546880,-1.286696,-1.016043,-0.360819,2.638638,-0.324409,-6.804665
1790548969.8801,0.008556,0.014183,0.544281,-0.000373,0.004363,0.544281,-1.888910,-2.007997,-0.262473,2.102047,0.865351,-5.485084
1790548969.8943,0.025978,0.043986,0.541304,0.018073,0.032099,0.541304,-2.081959,-1.621900,-0.285542,3.443526,0.902531,-3.738581
1790548969.9083,-0.003606,0.019570,0.536152,0.002898,0.023329,0.536152,1.572609,2.513468,-0.901112,-5.870174,-0.844929,-17.827042
1790548969.9223,0.016268,0.007492,0.517716,0.012257,0.012243,0.517716,0.948540,-0.943195,-1.465688,-10.699500,8.226990,-21.281238
1790548969.9363,0.004278,0.005302,0.483184,0.006672,0.007384,0.483184,0.218841,0.946010,-1.742512,3.673494,3.802571,-10.452916
1790548969.9503,0.003920,0.011019,0.457779,0.004746,0.009928,0.457779,-0.393087,0.615764,-1.895494,-3.493839,1.757671,-6.494175
1790548969.9643,0.010124,0.009727,0.442820,0.008510,0.009788,0.442820,-0.019131,-0.296057,-1.352773,0.722239,0.233291,-7.231588
1790548969.9783,0.022334,0.001360,0.431144,0.018187,0.003889,0.431144,0.434958,-0.553455,-1.415908,-1.117504,-0.250049,-5.679140
1790548969.9924,0.027993,-0.000738,0.402755,0.025051,0.000650,0.402755,0.326899,-0.158859,-1.396482,-0.542584,3.207691,-5.291028
1790548970.0066,0.033963,-0.002258,0.383045,0.031289,-0.001386,0.383045,0.224911,-0.184356,-1.051666,-1.692424,3.914111,-8.551168
1790548970.0202,0.039741,-0.009003,0.371483,0.037205,-0.006718,0.371483,0.523590,-0.147932,-0.742059,-3.263871,2.464091,-9.405014
1790548970.0346,0.044032,-0.017156,0.367585,0.041984,-0.014024,0.367585,0.603724,-0.162501,-0.192053,-2.765607,2.389731,-10.763406
1790548970.0483,0.037345,-0.019814,0.372467,0.038737,-0.018077,0.372467,0.279548,0.433642,0.508507,-1.002520,3.244871,-13.557812
1790548970.0619,0.029131,-0.014513,0.384701,0.032012,-0.015582,0.384701,-0.365162,0.546558,1.002663,-2.803935,1.906391,-16.895574
1790548970.0760,0.021751,-0.009477,0.399004,0.024829,-0.011308,0.399004,-0.320238,0.533202,1.125291,-4.222071,1.794851,-12.781588
1790548970.0900,0.010544,-0.005165,0.414114,0.014830,-0.007008,0.414114,-0.316596,0.774816,1.199354,-2.075704,0.605091,-7.542077
1790548970.1039,0.010553,-0.001030,0.436893,0.011836,-0.002823,0.436893,-0.367590,0.110681,1.400901,-1.424128,-0.101329,-2.147322
1790548970.1178,0.010068,0.004463,0.460771,0.010598,0.002277,0.460771,-0.202467,-0.164930,1.528386,-0.427600,1.869211,-4.243126
1790548970.1318,0.007915,-0.004862,0.482932,0.008720,-0.002721,0.482932,0.586726,-0.154002,1.607306,0.645583,-0.435949,-9.482637
1790548970.1459,0.003759,-0.008923,0.505743,0.005247,-0.007062,0.505743,0.237053,0.025691,1.682582,0.185647,0.047391,-14.217602
1790548970.1598,-0.008817,-0.012583,0.530435,-0.004598,-0.010926,0.530435,0.223697,0.564770,1.880488,1.143847,0.456371,-10.802217
1790548970.1739,-0.004088,-0.018756,0.557273,-0.004241,-0.016407,0.557273,0.374251,-0.435683,1.807639,-2.267343,0.010211,-7.969000
1790548970.1880,-0.006911,-0.021806,0.575016,-0.006110,-0.020186,0.575016,0.239481,0.137392,1.216352,-1.462456,1.274331,-8.085434
1790548970.2021,-0.019760,-0.025165,0.586588,-0.015665,-0.023672,0.586588,0.200628,0.757818,0.983237,0.453943,0.530731,-8.085434
1790548970.2160,-0.034476,-0.033806,0.597289,-0.028832,-0.030765,0.597289,0.580655,0.854950,0.933457,1.680439,0.716631,-9.909560
1790548970.2297,-0.043644,-0.041439,0.608471,-0.039201,-0.038237,0.608471,0.568514,0.582982,0.866679,0.147319,1.608951,-10.025993
1790548970.2436,-0.047488,-0.044272,0.617314,-0.045002,-0.042461,0.617314,0.279548,0.227238,0.561929,0.108991,2.947431,-10.879840
1790548970.2582,-0.045092,-0.039341,0.621924,-0.045065,-0.040277,0.621924,-0.295956,-0.214709,0.245038,0.760567,2.352551,-11.345574
1790548970.2724,-0.039722,-0.031927,0.621955,-0.041325,-0.034432,0.621955,-0.580065,-0.444182,-0.026930,1.718767,0.344831,-12.626343
1790548970.2864,-0.028557,-0.028006,0.619419,-0.032387,-0.029934,0.619419,-0.376089,-0.897057,-0.277043,2.753622,-0.473129,-12.121798
1790548970.3003,-0.021024,-0.013644,0.619249,-0.024433,-0.018531,0.619249,-0.884815,-0.820566,-0.257617,4.210086,2.947431,-6.532986
1790548970.3144,-0.010180,0.003629,0.619649,-0.014456,-0.003019,0.619649,-1.262413,-0.963835,-0.241833,3.213558,0.828171,-8.357112
1790548970.3283,0.006779,0.022124,0.622145,0.000409,0.014581,0.622145,-1.431178,-1.365716,-0.261259,2.217030,-0.026969,-7.930189
1790548970.3423,0.018361,0.042503,0.620875,0.012975,0.034127,0.620875,-1.598730,-0.854562,-0.500445,1.948735,-0.175689,-14.062357
1790548970.3563,0.009210,0.035701,0.609626,0.010339,0.035229,0.609626,0.286833,0.893802,-1.048023,-1.155832,-1.662888,-21.281238
1790548970.3703,0.020889,0.026777,0.593279,0.017724,0.029313,0.593279,0.630435,-0.433255,-1.362486,-4.490366,3.467951,-14.489280
1790548970.3844,0.023362,0.031495,0.567638,0.021671,0.030840,0.567638,-0.210966,-0.013162,-1.380698,0.607255,2.538451,-4.864105
1790548970.3983,0.014254,0.032919,0.544589,0.016479,0.032295,0.544589,-0.033701,0.938725,-1.267783,-0.657568,2.947431,-7.386832
1790548970.4123,0.014207,0.025321,0.529447,0.014888,0.027414,0.529447,0.516305,0.194456,-1.060165,-0.159304,1.757671,-9.288581
1790548970.4263,0.028847,0.020499,0.510708,0.024659,0.022573,0.510708,0.409461,-0.678512,-1.278710,-2.650623,3.170511,-8.395923
1790548970.4403,0.028766,0.016231,0.491544,0.027534,0.018134,0.491544,0.370608,0.162889,-1.224074,0.453943,3.207691,-8.279490
1790548970.4543,0.028586,0.016184,0.472794,0.028270,0.016769,0.472794,0.179988,0.251521,-0.977603,-1.155832,3.914111,-6.455364
1790548970.4678,0.039172,0.010998,0.459132,0.035902,0.012730,0.459132,0.360895,-0.467251,-0.888971,-3.723807,2.092291,-10.685784
1790548970.4814,0.041796,0.004403,0.450581,0.040028,0.006901,0.450581,0.545445,-0.047158,-0.504088,-1.577440,2.984611,-9.443825
1790548970.4956,0.050095,-0.004222,0.449233,0.047075,-0.000885,0.449233,0.638934,-0.479392,0.007066,-2.957247,2.129471,-11.035084
1790548970.5098,0.043917,-0.011221,0.454768,0.044864,-0.008120,0.454768,0.586726,0.392362,0.496366,-1.500784,3.653851,-13.557812
1790548970.5240,0.036422,-0.007764,0.462175,0.038955,-0.007871,0.462175,-0.156329,0.572055,0.842396,-4.950302,3.505131,-14.799770
1790548970.5380,0.025916,-0.000117,0.473070,0.029827,-0.002443,0.473070,-0.448938,0.840380,1.142289,-4.988630,2.464091,-9.482637
1790548970.5520,0.011421,0.005638,0.482818,0.016943,0.003213,0.482818,-0.463507,1.005503,1.158073,-1.615768,0.121751,-6.144874
1790548970.5660,0.007584,0.009767,0.496748,0.010392,0.007801,0.496748,-0.346950,0.273376,1.309841,-1.960720,0.121751,-4.980539
1790548970.5798,0.015579,0.000635,0.513850,0.014022,0.002785,0.513850,0.557586,-0.694296,1.437326,-2.343999,-0.770569,-9.909560
1790548970.5938,0.005101,-0.005871,0.538950,0.007778,-0.003274,0.538950,0.519948,0.423929,1.719007,1.028863,1.943571,-11.306763
1790548970.6080,-0.003602,-0.009840,0.561602,-0.000188,-0.007870,0.561602,0.241909,0.396004,1.850134,-1.079176,0.419191,-11.035084
1790548970.6219,-0.013690,-0.019031,0.587647,-0.009639,-0.015683,0.587647,0.587940,0.383863,1.969120,0.837223,-0.026969,-7.891378
1790548970.6360,-0.017968,-0.029136,0.607737,-0.015470,-0.025100,0.607737,0.609794,0.217525,1.613376,-1.769080,-0.398769,-8.357112
1790548970.6500,-0.027319,-0.036226,0.620306,-0.023764,-0.032888,0.620306,0.455598,0.631548,1.086439,-1.117504,0.382011,-8.163056
1790548970.6640,-0.040399,-0.044003,0.629752,-0.035409,-0.040669,0.629752,0.502950,0.820954,0.850895,0.645583,0.493551,-10.414105
1790548970.6780,-0.054326,-0.054955,0.642814,-0.048651,-0.050669,0.642814,0.768847,0.808812,0.859394,2.293686,1.385871,-11.306763
1790548970.6916,-0.064756,-0.064567,0.652236,-0.059925,-0.060398,0.652236,0.703283,0.675257,0.680915,1.067191,1.423051,-10.957462
1790548970.7052,-0.066594,-0.067078,0.660086,-0.064593,-0.065074,0.660086,0.241909,0.131321,0.405305,-0.005993,2.464091,-11.500819
1790548970.7192,-0.059751,-0.062618,0.661684,-0.061204,-0.063355,0.661684,-0.295956,-0.490320,0.013137,0.530599,1.608951,-11.966553
1790548970.7330,-0.053664,-0.055380,0.662011,-0.055926,-0.057773,0.662011,-0.535142,-0.530386,-0.170198,2.600310,0.939711,-12.432287
1790548970.7470,-0.046082,-0.049328,0.664343,-0.049035,-0.051862,0.664343,-0.458651,-0.723435,-0.365675,3.635166,0.344831,-8.706413
1790548970.7616,-0.036785,-0.035449,0.672667,-0.040460,-0.040373,0.672667,-0.904241,-0.883702,-0.204194,3.980118,1.534591,-7.309210
1790548970.7757,-0.019153,-0.017056,0.677296,-0.025545,-0.024051,0.677296,-1.368043,-1.433708,-0.183554,2.753622,0.196111,-7.891378
1790548970.7898,0.004567,0.005807,0.683248,-0.004467,-0.003150,0.683248,-1.754140,-1.868371,-0.204194,2.140375,-0.473129,-6.649420
1790548970.8038,0.026180,0.032686,0.689638,0.016986,0.021936,0.689638,-2.068603,-1.806450,-0.235762,2.446998,-0.361589,-5.523895
1790548970.8178,0.003390,0.059473,0.671969,0.007469,0.048212,0.671969,-1.914407,1.896684,-0.845261,-0.772552,1.683311,-6.106063
1790548970.8319,-0.011327,0.041076,0.645811,-0.005688,0.043217,0.645811,1.273930,1.709706,-1.596815,-12.654227,3.765391,-21.009560
1790548970.8459,0.003185,0.039559,0.620460,0.000523,0.040657,0.620460,0.132637,-0.745290,-1.979270,1.182175,2.947431,-10.685784
1790548970.8598,-0.007605,0.044509,0.597092,-0.005166,0.043353,0.597092,-0.156329,0.723822,-1.540965,4.440053,3.765391,-4.708860
1790548970.8739,-0.007137,0.042708,0.573059,-0.006546,0.042902,0.573059,0.097426,0.380220,-1.636882,-1.347472,1.571771,-9.327392
1790548970.8878,0.010229,0.027581,0.556668,0.005196,0.032177,0.556668,0.966752,-0.825423,-1.398910,-3.915447,0.158931,-12.471098
1790548970.9018,0.025108,0.015124,0.534067,0.019135,0.020240,0.534067,1.100308,-0.561954,-1.367343,-3.455511,3.876931,-5.058161
1790548970.9154,0.030383,0.011800,0.517099,0.027008,0.014332,0.517099,0.438600,-0.096938,-1.205862,-1.462456,4.174371,-6.455364
1790548970.9290,0.037918,0.003900,0.502706,0.034645,0.007029,0.502706,0.596439,-0.298485,-0.915682,-2.382327,2.649991,-10.025993
1790548970.9427,0.046591,-0.006719,0.490733,0.043008,-0.002594,0.490733,0.723924,-0.374976,-0.606075,-3.723807,1.199971,-10.569350
1790548970.9566,0.040843,-0.016282,0.492871,0.041492,-0.012176,0.492871,0.727566,0.392362,0.177046,-0.810880,2.724351,-13.751868
1790548970.9706,0.032825,-0.013248,0.497556,0.035425,-0.012926,0.497556,-0.149044,0.619406,0.625065,-5.065286,4.100011,-18.874945
1790548970.9844,0.029472,-0.001756,0.505185,0.031258,-0.005107,0.505185,-0.753687,0.397218,0.946812,-6.828373,2.649991,-11.229140
1790548970.9984,0.016226,0.005999,0.513454,0.020736,0.002667,0.513454,-0.597063,0.857378,1.016018,-0.964192,0.270471,-7.270399
1790548971.0129,0.009015,0.010284,0.522186,0.012531,0.007999,0.522186,-0.475649,0.480994,1.165358,-0.964192,-0.621849,-2.923546
1790548971.0270,0.003860,0.016141,0.537206,0.006461,0.013698,0.537206,-0.413727,0.257592,1.286772,-0.925864,0.642271,-4.708860
1790548971.0411,0.003462,0.015039,0.553190,0.004362,0.014637,0.553190,0.064645,-0.113936,1.321982,-0.887536,0.605091,-5.446273
1790548971.0552,0.004255,0.004011,0.572699,0.004287,0.007199,0.572699,0.765205,-0.252348,1.561168,-1.884064,1.274331,-14.683336
1790548971.0690,-0.004966,0.005008,0.595948,-0.002190,0.005665,0.595948,-0.042200,0.451855,1.820995,-1.309144,1.794851,-10.414105
1790548971.0829,-0.013822,0.003045,0.618890,-0.010332,0.003831,0.618890,0.042790,0.342582,2.062609,-0.580912,-0.175689,-10.918651
1790548971.0969,-0.017146,-0.005793,0.640205,-0.015102,-0.002906,0.640205,0.493237,0.019620,1.915698,-1.232488,-0.696209,-9.560259
1790548971.1109,-0.024638,-0.012511,0.658665,-0.021777,-0.009630,0.658665,0.489594,0.389933,1.340194,-0.580912,1.460231,-8.395923
1790548971.1249,-0.035844,-0.016080,0.671354,-0.031624,-0.014145,0.671354,0.246766,0.629119,0.924958,0.837223,1.274331,-8.628791
1790548971.1388,-0.046557,-0.025248,0.676865,-0.042077,-0.021917,0.676865,0.602510,0.671614,0.609281,0.760567,0.605091,-10.452916
1790548971.1524,-0.056469,-0.034883,0.686240,-0.052151,-0.030993,0.686240,0.732423,0.614550,0.547360,1.258831,1.943571,-10.297672
1790548971.1660,-0.062702,-0.039986,0.691834,-0.059537,-0.037288,0.691834,0.425245,0.415430,0.223184,0.875551,2.352551,-11.190329
1790548971.1801,-0.063297,-0.039041,0.691791,-0.062169,-0.038515,0.691791,-0.023988,0.049973,-0.134988,0.722239,2.055111,-11.539630
1790548971.1955,-0.053952,-0.034941,0.683749,-0.056417,-0.036014,0.683749,-0.315382,-0.592308,-0.484661,1.335487,-0.026969,-11.539630
1790548971.2102,-0.042142,-0.029576,0.677844,-0.046425,-0.031507,0.677844,-0.431940,-0.875203,-0.642500,2.791950,-0.250049,-9.754315
1790548971.2250,-0.032494,-0.016964,0.681023,-0.036673,-0.021327,0.681023,-0.861746,-0.835136,-0.542940,3.980118,0.828171,-8.046623
1790548971.2395,-0.017300,-0.003318,0.678516,-0.023112,-0.008721,0.678516,-1.077863,-1.155670,-0.546582,2.945262,-0.956469,-9.210958
1790548971.2545,-0.004095,0.011673,0.674034,-0.009800,0.005555,0.674034,-1.200491,-0.945623,-0.655855,2.715294,-1.960328,-9.521448
1790548971.2686,0.016460,0.028061,0.663359,0.008582,0.021309,0.663359,-1.327976,-1.313508,-1.015241,-0.044320,-0.510309,-7.658511
1790548971.2827,0.002076,0.025756,0.641056,0.004028,0.024422,0.641056,-0.071339,1.175483,-1.446262,3.711822,-2.666748,-17.516553
1790548971.2966,0.004555,0.021532,0.620298,0.004397,0.022399,0.620298,0.436172,0.167745,-1.695161,-1.079176,5.512851,-11.345574
1790548971.3107,0.010993,0.026376,0.603018,0.009014,0.025183,0.603018,-0.166042,-0.217138,-1.505755,0.147319,5.252591,-8.784035
1790548971.3246,0.003037,0.023304,0.581378,0.004830,0.023867,0.581378,0.224911,0.743249,-1.458403,1.220503,1.943571,-7.774944
1790548971.3386,0.014021,0.021367,0.563997,0.011264,0.022117,0.563997,0.075572,-0.347051,-1.496042,-3.417183,1.237151,-10.025993
1790548971.3524,0.025457,0.016098,0.548656,0.021199,0.017904,0.548656,0.411889,-0.497605,-1.328490,-1.960720,2.612811,-8.667602
1790548971.3664,0.030092,0.010611,0.534185,0.027424,0.012799,0.534185,0.425245,-0.110293,-1.148797,-0.734224,2.315371,-7.503266
1790548971.3800,0.036394,0.007127,0.526093,0.033703,0.008829,0.526093,0.330542,-0.177071,-0.799124,-2.688951,2.910251,-8.007811
1790548971.3936,0.044483,-0.001162,0.520277,0.041249,0.001835,0.520277,0.613437,-0.382261,-0.513801,-2.957247,2.129471,-10.220049
1790548971.4077,0.048122,-0.009423,0.521278,0.046060,-0.006045,0.521278,0.655932,-0.157645,-0.043928,-2.382327,2.687171,-10.103616
1790548971.4217,0.039237,-0.013495,0.523504,0.041284,-0.011260,0.523504,0.307473,0.649760,0.271749,-2.152360,2.426911,-15.537182
1790548971.4358,0.032597,-0.010592,0.530901,0.035203,-0.010793,0.530901,-0.187897,0.525917,0.700341,-5.448566,2.203831,-17.594175
1790548971.4498,0.026031,-0.000301,0.542508,0.028782,-0.003449,0.542508,-0.680839,0.548986,0.929814,-5.640206,2.426911,-12.975644
1790548971.4637,0.012997,0.007069,0.553738,0.017733,0.003914,0.553738,-0.573994,0.802742,1.216352,-0.734224,0.233291,-6.843476
1790548971.4777,0.011057,0.011872,0.567016,0.013060,0.009485,0.567016,-0.427083,0.302515,1.144717,-2.420655,-0.175689,-3.272846
1790548971.4916,0.010574,0.014838,0.589695,0.011319,0.013232,0.589695,-0.101693,-0.072655,1.289200,-0.734224,1.014071,-3.311658
1790548971.5059,0.012296,0.005884,0.609596,0.012003,0.008088,0.609596,0.630435,-0.365263,1.539314,-0.772552,1.385871,-14.101168
1790548971.5202,-0.003055,0.002304,0.638309,0.001462,0.004039,0.638309,0.354825,0.756604,1.794283,0.492271,2.501271,-8.900469
1790548971.5343,-0.013483,0.005616,0.663489,-0.009000,0.005143,0.663489,-0.224321,0.482208,1.932696,-0.810880,1.794851,-11.035084
1790548971.5483,-0.018803,-0.001351,0.682912,-0.015862,0.000597,0.682912,0.370608,0.116751,1.967906,-0.772552,-0.435949,-10.491728
1790548971.5623,-0.026148,-0.008621,0.701750,-0.023062,-0.005856,0.701750,0.481095,0.307372,1.513817,-0.044320,0.902531,-8.279490
1790548971.5763,-0.031034,-0.014407,0.714128,-0.028642,-0.011842,0.714128,0.388821,0.454283,0.983237,-3.110559,0.902531,-7.542077
1790548971.5902,-0.038570,-0.023261,0.718006,-0.035592,-0.019835,0.718006,0.529661,0.449426,0.773190,0.070663,-0.101329,-10.142427
1790548971.6043,-0.054769,-0.035459,0.725587,-0.049016,-0.030772,0.725587,0.816199,0.948439,0.673630,2.485326,0.753811,-10.297672
1790548971.6181,-0.064277,-0.044424,0.734025,-0.059698,-0.040328,0.734025,0.691142,0.599980,0.402877,1.450471,2.203831,-11.151518
1790548971.6319,-0.065574,-0.047485,0.737050,-0.063811,-0.045338,0.737050,0.256479,0.083969,0.064131,0.645583,1.906391,-11.384385
1790548971.6460,-0.058862,-0.044867,0.733532,-0.060347,-0.045008,0.733532,-0.157543,-0.438112,-0.355962,0.492271,1.534591,-11.500819
1790548971.6601,-0.049337,-0.042702,0.722835,-0.052640,-0.043394,0.722835,-0.242533,-0.752574,-0.586649,2.753622,-0.696209,-10.103616
1790548971.6742,-0.042805,-0.033336,0.718164,-0.045755,-0.036353,0.718164,-0.665055,-0.615376,-0.617003,3.481854,0.716631,-8.124245
1790548971.6882,-0.027775,-0.019478,0.713524,-0.033169,-0.024540,0.713524,-1.018370,-1.207878,-0.583007,2.983590,0.679451,-8.473546
1790548971.7022,-0.011287,-0.003137,0.709774,-0.017852,-0.009558,0.709774,-1.262413,-1.358431,-0.484661,2.945262,-0.212869,-6.804665
1790548971.7163,0.012475,0.018337,0.704556,0.003377,0.009969,0.704556,-1.677649,-1.794308,-0.544154,1.795423,-0.584669,-6.494175
1790548971.7302,0.028702,0.039046,0.693720,0.021105,0.030323,0.693720,-1.703146,-1.188451,-0.893827,1.757095,-0.919289,-7.503266
1790548971.7442,-0.009959,0.034992,0.666734,-0.000640,0.033591,0.666734,0.203057,3.285662,-1.582246,-5.103614,2.501271,-19.340679
1790548971.7584,0.027856,0.032066,0.652006,0.019307,0.032523,0.652006,0.156919,-2.102700,-1.936775,-8.591461,2.873071,-18.253966
1790548971.7730,0.021231,0.035747,0.641706,0.020654,0.034780,0.641706,0.068287,0.728679,-1.635668,0.338959,6.182090,-4.747672
1790548971.7875,0.023627,0.037440,0.619569,0.022735,0.036642,0.619569,-0.081052,0.323155,-1.670878,-2.650623,2.873071,-7.464455
1790548971.8016,0.030522,0.030363,0.595635,0.028186,0.032247,0.595635,0.296546,-0.212281,-1.404981,-0.580912,-0.510309,-8.318301
1790548971.8160,0.041257,0.022989,0.582862,0.037336,0.025766,0.582862,0.573370,-0.444182,-1.288423,-1.462456,2.984611,-7.348021
1790548971.8301,0.045532,0.018858,0.572843,0.043073,0.020931,0.572843,0.358467,-0.098152,-1.034668,-0.810880,2.984611,-7.464455
1790548971.8439,0.046587,0.016133,0.565517,0.045532,0.017573,0.565517,0.295332,0.158032,-0.810051,-1.845736,3.467951,-7.852567
1790548971.8576,0.056828,0.010237,0.558404,0.053439,0.012438,0.558404,0.451956,-0.468465,-0.490732,-4.222071,2.464091,-9.560259
1790548971.8716,0.059684,0.004052,0.563544,0.057811,0.006568,0.563544,0.549087,-0.191641,0.044705,-1.155832,3.244871,-9.715504
1790548971.8855,0.052919,0.002945,0.571381,0.054386,0.004032,0.571381,0.171489,0.470067,0.538861,-2.458983,3.542311,-13.480189
1790548971.8995,0.046586,0.009163,0.579263,0.048926,0.007624,0.579263,-0.400372,0.461568,1.007519,-5.563550,2.315371,-15.770049
1790548971.9136,0.036754,0.016049,0.588126,0.040406,0.013521,0.588126,-0.481719,0.661901,1.222423,-3.647151,1.051251,-11.345574
1790548971.9278,0.021528,0.024882,0.604794,0.027192,0.021474,0.604794,-0.532713,0.956938,1.345051,-0.887536,0.976891,-3.893825
1790548971.9424,0.015244,0.029739,0.618263,0.018828,0.027259,0.618263,-0.333594,0.312228,1.411829,-1.079176,0.456371,-3.971448
1790548971.9564,0.019693,0.024611,0.633137,0.019433,0.025405,0.633137,0.335398,-0.492748,1.532029,-1.692424,0.419191,-7.580888
1790548971.9706,0.012737,0.012860,0.668149,0.014746,0.016623,0.668149,0.995892,0.124036,1.920554,0.300631,3.579491,-10.181238
1790548971.9849,0.004443,0.016866,0.694399,0.007534,0.016793,0.694399,-0.197610,0.348652,1.852562,-1.615768,2.538451,-10.258860
1790548971.9989,-0.009574,0.014210,0.713655,-0.004442,0.014985,0.713655,0.098641,0.626691,2.005544,0.875551,-0.138509,-13.868301
1790548972.0134,-0.013913,0.006244,0.728719,-0.011072,0.008867,0.728719,0.430101,0.073042,1.768786,-0.695896,-0.250049,-6.300119
1790548972.0277,-0.022044,-0.000755,0.745652,-0.018752,0.002131,0.745652,0.453170,0.368079,1.434897,-0.235960,0.790991,-7.348021
1790548972.0417,-0.025714,-0.005470,0.753317,-0.023626,-0.003189,0.753317,0.314758,0.286731,0.797473,-1.922392,1.088431,-8.395923
1790548972.0556,-0.033595,-0.017146,0.755090,-0.030605,-0.012959,0.755090,0.737279,0.443356,0.583784,0.913879,-0.026969,-10.569350
1790548972.0694,-0.048906,-0.028602,0.758905,-0.043416,-0.023909,0.758905,0.785845,0.970293,0.479368,2.217030,0.790991,-12.277042
1790548972.0830,-0.053582,-0.034202,0.761417,-0.050532,-0.031114,0.761417,0.436172,0.413002,0.134551,-1.079176,1.832031,-10.802217
1790548972.0971,-0.050561,-0.032220,0.762548,-0.050552,-0.031888,0.762548,-0.089551,-0.202568,-0.185982,0.530599,2.129471,-10.802217
1790548972.1111,-0.043943,-0.026366,0.755972,-0.045926,-0.028023,0.755972,-0.425869,-0.441754,-0.451879,0.760567,1.051251,-10.957462
1790548972.1250,-0.036551,-0.023062,0.746758,-0.039364,-0.024550,0.746758,-0.306883,-0.594736,-0.581793,2.140375,0.010211,-8.784035
1790548972.1390,-0.029028,-0.013795,0.744473,-0.032129,-0.017021,0.744473,-0.657770,-0.674869,-0.591506,3.328542,1.125611,-8.551168
1790548972.1529,-0.016453,0.002217,0.744894,-0.021156,-0.003554,0.744894,-1.154354,-1.094963,-0.535655,3.481854,0.976891,-7.231588
1790548972.1668,0.003194,0.023492,0.742356,-0.004111,0.015378,0.742356,-1.607229,-1.572120,-0.530799,2.370342,0.382011,-6.494175
1790548972.1808,0.024233,0.046640,0.738680,0.015730,0.037261,0.738680,-1.852486,-1.720246,-0.613360,2.868606,-0.844929,-5.446273
1790548972.1948,-0.005728,0.053381,0.719883,0.000709,0.048545,0.719883,-0.643200,2.105516,-0.919324,6.854716,-0.361589,-14.450469
1790548972.2087,-0.025347,0.037718,0.693803,-0.017530,0.040966,0.693803,0.984964,1.893041,-1.584674,-3.685479,-0.807749,-18.137532
1790548972.2227,-0.005829,0.038723,0.676374,-0.009339,0.039396,0.676374,0.149635,-1.195736,-1.781365,1.718767,4.992331,-7.736133
1790548972.2366,-0.022840,0.035028,0.653336,-0.018790,0.036338,0.653336,0.326899,1.220406,-1.583460,3.098574,1.534591,-4.592427
1790548972.2507,-0.022469,0.038258,0.629079,-0.021365,0.037682,0.629079,-0.297170,0.468853,-1.751011,-2.420655,0.530731,-9.793126
1790548972.2652,-0.009837,0.031143,0.613025,-0.013295,0.033105,0.613025,0.390035,-0.515817,-1.279924,-2.842263,0.121751,-13.402567
1790548972.2798,0.000734,0.023508,0.599125,-0.003475,0.026387,0.599125,0.601295,-0.269346,-1.283567,-3.493839,2.687171,-7.503266
1790548972.2939,0.006320,0.022006,0.588530,0.003382,0.023321,0.588530,0.222483,-0.065370,-1.016455,-2.842263,3.988471,-9.249770
1790548972.3076,0.013324,0.015689,0.579425,0.010341,0.017978,0.579425,0.444671,-0.254776,-0.715348,-3.148887,2.129471,-12.277042
1790548972.3213,0.023396,0.007368,0.577162,0.019479,0.010551,0.577162,0.623150,-0.512174,-0.295255,-3.608823,2.092291,-10.220049
1790548972.3354,0.031371,-0.001163,0.586500,0.027803,0.002351,0.586500,0.723924,-0.527958,0.337313,-2.229015,3.356411,-9.987182
1790548972.3494,0.033586,-0.008212,0.604828,0.031851,-0.005043,0.604828,0.751849,-0.157645,0.810828,-2.612295,4.917971,-8.861658
1790548972.3634,0.027525,-0.012613,0.618619,0.028823,-0.010342,0.618619,0.403390,0.388719,1.054871,-2.957247,2.947431,-13.363756
1790548972.3777,0.019454,-0.008791,0.632513,0.022265,-0.009257,0.632513,-0.235249,0.539273,1.397259,-4.528694,1.646131,-13.286133
1790548972.3920,0.007113,-0.003738,0.647385,0.011658,-0.005394,0.647385,-0.377303,0.755390,1.585451,-1.960720,0.419191,-8.512357
1790548972.4062,0.001494,-0.004299,0.662211,0.004544,-0.004627,0.662211,-0.096836,0.139820,1.800354,-0.350944,-0.956469,-7.697322
1790548972.4202,0.000383,-0.008691,0.681461,0.001631,-0.007472,0.681461,0.271049,-0.059299,1.720221,-1.539112,0.270471,-7.153965
1790548972.4344,-0.009807,-0.014290,0.701978,-0.006375,-0.012244,0.701978,0.320829,0.371721,1.835564,0.952207,-0.064149,-6.998721
1790548972.4487,-0.019411,-0.022016,0.724714,-0.015500,-0.019085,0.724714,0.465311,0.426358,1.975191,-0.389272,0.121751,-12.471098
1790548972.4626,-0.025613,-0.024141,0.746578,-0.022579,-0.022624,0.746578,0.113210,0.320727,1.714150,-1.615768,0.939711,-10.258860
1790548972.4766,-0.023611,-0.024306,0.762767,-0.023301,-0.023802,0.762767,-0.022774,-0.149146,1.187212,-2.535639,0.976891,-10.181238
1790548972.4908,-0.030712,-0.024677,0.771423,-0.028489,-0.024415,0.771423,-0.038558,0.326798,0.873964,1.143847,0.419191,-9.715504
1790548972.5049,-0.041014,-0.029582,0.783700,-0.037257,-0.028032,0.783700,0.368180,0.527131,0.710055,2.217030,1.832031,-9.987182
1790548972.5190,-0.051427,-0.038335,0.797533,-0.047176,-0.035244,0.797533,0.647433,0.523489,0.753764,2.485326,1.869211,-9.599070
1790548972.5333,-0.060386,-0.048581,0.805474,-0.056423,-0.044580,0.805474,0.717853,0.533202,0.524291,1.067191,1.348691,-9.637881
1790548972.5472,-0.070666,-0.056637,0.811495,-0.066393,-0.053020,0.811495,0.653503,0.749319,0.218327,0.070663,2.017931,-8.706413
1790548972.5614,-0.068728,-0.058787,0.810813,-0.068028,-0.057057,0.810813,0.173917,-0.105437,-0.104635,0.223975,1.608951,-12.859210
1790548972.5754,-0.059163,-0.049560,0.805029,-0.061822,-0.051809,0.805029,-0.656556,-0.673655,-0.449451,1.297159,1.014071,-12.859210
1790548972.5896,-0.053659,-0.039244,0.796311,-0.056108,-0.043014,0.796311,-0.788897,-0.489106,-0.568437,3.865134,-0.324409,-12.005364
1790548972.6038,-0.046694,-0.024558,0.791849,-0.049518,-0.030094,0.791849,-1.069364,-0.649372,-0.465235,2.255358,0.233291,-5.446273
1790548972.6179,-0.031920,-0.008763,0.785720,-0.037200,-0.015162,0.785720,-1.215061,-1.155670,-0.488304,2.332014,-0.250049,-7.658511
1790548972.6320,-0.004451,0.015624,0.787788,-0.014276,0.006388,0.787788,-1.703146,-2.159765,-0.422740,1.987063,0.939711,-4.320748
1790548972.6462,0.021923,0.044591,0.791146,0.011063,0.033130,0.791146,-2.106241,-2.113628,-0.263687,2.370342,0.419191,-5.291028
1790548972.6603,-0.023346,0.036727,0.769060,-0.013023,0.035648,0.769060,0.258907,3.254094,-1.118443,10.687515,-7.239888,-21.281238
1790548972.6743,-0.004133,0.029804,0.754394,-0.006800,0.031557,0.754394,0.472596,-0.848492,-1.557963,-6.406766,2.203831,-14.528091
1790548972.6886,-0.012699,0.029039,0.725580,-0.010929,0.029794,0.725580,0.131422,0.593909,-1.710945,7.352980,4.062831,-10.375294
1790548972.7026,-0.016029,0.027350,0.698885,-0.014499,0.028084,0.698885,0.139921,0.568412,-1.808076,0.147319,1.832031,-8.279490
1790548972.7166,-0.010226,0.027444,0.676493,-0.011508,0.027636,0.676493,0.023364,0.070614,-1.744941,-2.305671,1.869211,-7.736133
1790548972.7309,0.001196,0.022744,0.659513,-0.002615,0.024212,0.659513,0.411889,-0.447825,-1.336989,-1.692424,2.724351,-7.542077
1790548972.7451,0.009302,0.014960,0.642802,0.005727,0.017736,0.642802,0.578227,-0.202568,-1.295708,-2.114032,1.943571,-7.309210
1790548972.7588,0.017949,0.009115,0.628566,0.014283,0.011701,0.628566,0.513877,-0.367691,-1.196149,-1.539112,3.728211,-9.948371
1790548972.7727,0.023138,0.001603,0.619143,0.020482,0.004633,0.619143,0.587940,-0.185570,-0.756629,-1.769080,3.170511,-11.190329
1790548972.7874,0.031493,-0.007955,0.617390,0.028189,-0.004179,0.617390,0.715425,-0.413829,-0.204194,-2.650623,2.724351,-9.405014
1790548972.8016,0.029817,-0.016598,0.625627,0.029329,-0.012872,0.625627,0.720281,0.085184,0.504865,-1.654096,4.323091,-14.566903
1790548972.8160,0.019921,-0.013764,0.636465,0.022743,-0.013496,0.636465,-0.128404,0.718966,0.965024,-5.486894,3.542311,-16.973196
1790548972.8301,0.015303,-0.008545,0.649229,0.017535,-0.010030,0.649229,-0.356663,0.357151,1.211495,-6.560078,1.869211,-16.895574
1790548972.8443,0.000804,-0.002061,0.662024,0.005823,-0.004452,0.662024,-0.470792,0.953295,1.245491,-1.002520,0.493551,-5.213406
1790548972.8586,-0.005008,-0.000115,0.671182,-0.001759,-0.001416,0.671182,-0.350592,0.421501,1.371762,-1.654096,-1.030829,-3.816203
1790548972.8726,0.001418,-0.005425,0.688201,0.000465,-0.004222,0.688201,0.278334,-0.537671,1.471322,-2.037376,-0.361589,-7.309210
1790548972.8866,-0.011459,-0.017566,0.710177,-0.007882,-0.013563,0.710177,0.880548,0.627905,1.686225,1.182175,1.683311,-12.898021
1790548972.9006,-0.018844,-0.021926,0.735781,-0.015555,-0.019417,0.735781,0.285618,0.430000,1.891415,-2.803935,1.014071,-10.491728
1790548972.9149,-0.025402,-0.026665,0.760466,-0.022448,-0.024491,0.760466,0.216412,0.256378,2.122102,-1.462456,-0.435949,-12.742777
1790548972.9288,-0.025459,-0.033584,0.784040,-0.024556,-0.030856,0.784040,0.306259,0.013549,1.921768,-2.497311,-0.993649,-5.562707
1790548972.9427,-0.030983,-0.040539,0.802683,-0.029055,-0.037634,0.802683,0.439814,0.364436,1.425184,-1.654096,0.382011,-7.969000
1790548972.9566,-0.037427,-0.043170,0.815275,-0.034915,-0.041509,0.815275,0.138707,0.584196,0.810828,-3.187215,0.456371,-9.405014
1790548972.9706,-0.044020,-0.052174,0.820067,-0.041288,-0.048974,0.820067,0.585512,0.370507,0.611709,0.952207,0.456371,-11.112707
1790548972.9849,-0.055232,-0.061602,0.830344,-0.051049,-0.057814,0.830344,0.688714,0.648546,0.558287,2.255358,2.017931,-12.044175
1790548972.9985,-0.062659,-0.066568,0.839416,-0.059176,-0.063942,0.839416,0.420388,0.523489,0.347026,0.415615,2.389731,-12.199420
1790548973.0123,-0.061802,-0.066172,0.845450,-0.061014,-0.065503,0.845450,0.058574,-0.049586,-0.019645,0.338959,2.612811,-11.656063
1790548973.0264,-0.053236,-0.060875,0.844120,-0.055569,-0.062263,0.844120,-0.327523,-0.617805,-0.338964,1.182175,1.757671,-11.462007
1790548973.0408,-0.050076,-0.055152,0.832758,-0.051724,-0.057285,0.832758,-0.461079,-0.354336,-0.546582,3.865134,-0.398769,-10.491728
1790548973.0552,-0.041043,-0.044965,0.822141,-0.044247,-0.048661,0.822141,-0.750045,-0.757431,-0.640071,3.060246,0.010211,-8.007811
1790548973.0696,-0.028712,-0.026984,0.816492,-0.033373,-0.033487,0.816492,-1.258770,-1.019686,-0.552653,3.098574,0.790991,-7.503266
1790548973.0835,-0.006851,-0.005513,0.806080,-0.014808,-0.013905,0.806080,-1.674007,-1.613401,-0.603647,1.335487,-0.547489,-7.192776
1790548973.0975,0.015163,0.020140,0.796397,0.006172,0.009927,0.796397,-1.958116,-1.657110,-0.681352,1.948735,-0.175689,-7.348021
1790548973.1114,0.020381,0.043385,0.778581,0.016118,0.033348,0.778581,-1.903480,-0.304556,-1.038310,2.830278,-2.257768,-17.632987
1790548973.1253,-0.011942,0.032631,0.755987,-0.003524,0.032846,0.755987,0.704497,2.931133,-1.727943,-5.448566,1.906391,-14.256413
1790548973.1393,0.007340,0.025122,0.744667,0.004081,0.027440,0.744667,0.523590,-0.740433,-1.946488,-7.556605,2.315371,-13.053266
1790548973.1532,-0.002456,0.031980,0.722261,-0.000495,0.030618,0.722261,-0.320238,0.808812,-1.855428,4.861661,6.107730,-9.637881
1790548973.1672,-0.005345,0.041631,0.700781,-0.003890,0.038327,0.700781,-0.594635,0.721394,-1.940418,-1.845736,3.133331,-7.580888
1790548973.1811,0.002183,0.033156,0.671790,0.000361,0.034707,0.671790,0.402176,-0.137004,-1.720658,-1.577440,-1.291089,-11.384385
1790548973.1951,0.013429,0.028926,0.660817,0.009509,0.030661,0.660817,0.408247,-0.402902,-1.520324,-1.845736,3.058971,-7.076343
1790548973.2092,0.014306,0.029793,0.647797,0.012867,0.030053,0.647797,0.035505,0.217525,-1.361272,-0.504256,2.835891,-6.571797
1790548973.2228,0.020623,0.029799,0.638327,0.018296,0.029875,0.638327,0.044004,-0.112722,-1.080805,-2.612295,2.761531,-8.628791
1790548973.2365,0.026972,0.025047,0.633824,0.024369,0.026495,0.633824,0.396105,-0.213495,-0.687423,-2.688951,3.096151,-10.103616
1790548973.2505,0.031798,0.015606,0.632568,0.029569,0.018873,0.632568,0.686285,-0.192855,-0.227263,-2.803935,2.352551,-11.384385
1790548973.2646,0.039329,0.008215,0.643693,0.036401,0.011412,0.643693,0.647433,-0.450253,0.319101,-3.455511,3.839751,-10.879840
1790548973.2807,0.031067,0.005363,0.659605,0.032667,0.007178,0.659605,0.254051,0.462782,0.973523,-3.915447,3.579491,-15.770049
1790548973.2955,0.025093,0.010074,0.680471,0.027365,0.009205,0.680471,-0.218251,0.347438,1.467679,-5.410238,3.616671,-14.450469
1790548973.3100,0.016681,0.006965,0.696942,0.019886,0.007637,0.696942,0.221269,0.465210,1.615805,-2.727279,0.865351,-9.249770
1790548973.3245,0.008690,0.006048,0.727771,0.012049,0.006525,0.727771,0.211556,0.352295,1.734790,-0.734224,1.534591,-4.514804
1790548973.3389,0.006337,0.001880,0.748546,0.008051,0.003273,0.748546,0.288047,-0.033802,1.808853,-1.385800,0.753811,-7.813756
1790548973.3527,0.002446,-0.003408,0.764368,0.004128,-0.001404,0.764368,0.329328,0.087612,1.767572,-1.232488,0.233291,-8.395923
1790548973.3665,-0.000386,-0.011409,0.778552,0.000968,-0.008407,0.778552,0.488380,-0.018018,1.782142,-0.849208,-0.287229,-10.181238
1790548973.3806,-0.010824,-0.018002,0.794404,-0.007286,-0.015123,0.794404,0.413103,0.494349,1.615805,0.377287,0.344831,-10.569350
1790548973.3945,-0.013027,-0.021071,0.808614,-0.011305,-0.019287,0.808614,0.178774,0.094897,1.346265,-1.769080,0.605091,-8.861658
1790548973.4086,-0.011851,-0.024377,0.815734,-0.011687,-0.022850,0.815734,0.196986,0.012335,0.764691,-3.800463,0.790991,-10.879840
1790548973.4227,-0.019957,-0.027703,0.816783,-0.017476,-0.026247,0.816783,0.193344,0.562341,0.417446,-0.580912,0.679451,-10.142427
1790548973.4366,-0.029326,-0.036494,0.822673,-0.025771,-0.033420,0.822673,0.647433,0.527131,0.359168,2.063719,1.534591,-10.646972
1790548973.4506,-0.040912,-0.047292,0.835191,-0.036370,-0.043130,0.835191,0.858693,0.652188,0.362810,2.485326,2.315371,-9.210958
1790548973.4647,-0.055785,-0.057167,0.845874,-0.049960,-0.052956,0.845874,0.806485,0.950867,0.191616,1.833751,2.612811,-9.521448
1790548973.4787,-0.059395,-0.062219,0.849447,-0.056565,-0.059440,0.849447,0.438600,0.324370,-0.054855,-0.619240,2.315371,-11.073895
1790548973.4926,-0.049395,-0.060610,0.845829,-0.051546,-0.060259,0.845829,-0.098050,-0.678512,-0.351106,0.262303,1.460231,-13.829490
1790548973.5066,-0.044872,-0.051214,0.836823,-0.046875,-0.053927,0.836823,-0.696623,-0.446611,-0.549011,4.056774,0.456371,-12.121798
1790548973.5206,-0.039357,-0.044685,0.813028,-0.041612,-0.047457,0.813028,-0.668697,-0.487891,-0.629144,2.676966,-2.183408,-8.745224
1790548973.5349,-0.023466,-0.031219,0.799767,-0.028910,-0.036090,0.799767,-1.046295,-1.148385,-0.570865,1.258831,-0.398769,-7.386832
1790548973.5491,-0.005559,-0.013873,0.785699,-0.012564,-0.020538,0.785699,-1.366829,-1.358431,-0.557510,1.948735,-0.770569,-7.076343
1790548973.5632,0.022747,0.013002,0.782796,0.012154,0.002940,0.782796,-1.919264,-2.089345,-0.495589,0.875551,0.865351,-5.096972
1790548973.5772,0.034791,0.036936,0.768424,0.028000,0.026737,0.768424,-1.833060,-0.886130,-0.833120,4.861661,0.567911,-21.281238
1790548973.5912,0.015680,0.027160,0.748683,0.019376,0.027033,0.748683,0.672930,2.001100,-1.822646,-7.326637,3.988471,-14.372847
1790548973.6052,0.049983,0.027596,0.742063,0.040801,0.027427,0.742063,0.031863,-2.071133,-1.510611,-4.682006,5.810290,-14.993826
1790548973.6194,0.027151,0.026710,0.723927,0.031246,0.026925,0.723927,0.138707,1.588292,-1.685448,5.513237,4.397451,-7.192776
1790548973.6336,0.030970,0.034999,0.703058,0.031053,0.032577,0.703058,-0.484148,0.317085,-2.054547,-2.229015,2.761531,-4.747672
1790548973.6478,0.037043,0.034364,0.677932,0.035246,0.033828,0.677932,-0.110192,-0.186784,-1.527609,0.185647,0.456371,-7.852567
1790548973.6618,0.043364,0.026993,0.659023,0.040929,0.029044,0.659023,0.512663,-0.019233,-1.624741,-1.960720,2.092291,-6.649420
1790548973.6755,0.049498,0.018594,0.644609,0.046927,0.021729,0.644609,0.589154,-0.167358,-1.283567,-1.309144,2.129471,-8.201867
1790548973.6892,0.056982,0.016528,0.640370,0.053966,0.018088,0.640370,0.272263,-0.303342,-1.005528,-1.730752,4.025651,-7.969000
1790548973.7028,0.064350,0.008431,0.632282,0.061235,0.011328,0.632282,0.560015,-0.353122,-0.621859,-2.612295,2.129471,-11.617252
1790548973.7170,0.070261,-0.000592,0.633944,0.067553,0.002984,0.633944,0.715425,-0.282701,-0.167770,-3.225543,3.467951,-11.073895
1790548973.7310,0.063510,-0.004840,0.643169,0.064723,-0.002493,0.643169,0.425245,0.495564,0.459941,-2.842263,4.025651,-13.247322
1790548973.7450,0.056042,0.000109,0.651033,0.058647,-0.000671,0.651033,-0.282600,0.572055,1.046372,-6.483422,2.612811,-15.498371
1790548973.7590,0.044634,0.006605,0.663031,0.048838,0.004422,0.663031,-0.407657,0.748105,1.304984,-2.995575,1.460231,-10.530539
