t,imu_roll,imu_pitch,imu_yaw,lpf_roll,lpf_pitch,lpf_yaw,gyro_x,gyro_y,gyro_z,acc_x,acc_y,acc_z
1790548503.7164,-0.040312,-0.051476,-0.009720,-0.028218,-0.036033,-0.009720,0.016079,0.008833,-0.002621,0.338959,1.274331,-10.064805
1790548503.7320,-0.029657,-0.056073,-0.007742,-0.029226,-0.050061,-0.007742,-0.014275,-0.008165,-0.006263,0.108991,1.199971,-10.220049
1790548503.7458,-0.033794,-0.054702,-0.008549,-0.032423,-0.053309,-0.008549,0.000295,-0.005737,-0.000192,0.338959,1.237151,-9.754315
1790548503.7595,-0.026358,-0.054875,-0.007407,-0.028178,-0.054406,-0.007407,0.014865,0.001548,0.001022,-0.044320,1.237151,-9.987182
1790548503.7735,-0.026212,-0.052909,-0.007072,-0.026802,-0.053358,-0.007072,-0.006990,-0.010593,0.002236,0.185647,1.348691,-10.103616
1790548503.7875,-0.026491,-0.052040,-0.007208,-0.026584,-0.052435,-0.007208,-0.098050,-0.015450,-0.003835,0.223975,1.311511,-10.569350
1790548503.8017,-0.030796,-0.046958,-0.007288,-0.029532,-0.048601,-0.007288,-0.158758,0.003976,-0.001407,0.492271,1.497411,-10.025993
1790548503.8161,-0.031079,-0.042374,-0.007518,-0.030615,-0.044242,-0.007518,-0.196396,0.061041,0.014377,0.185647,1.460231,-9.793126
1790548503.8301,-0.029931,-0.041193,-0.006528,-0.030136,-0.042108,-0.006528,-0.206109,0.002762,0.079941,0.108991,1.199971,-9.676693
1790548503.8441,-0.027387,-0.042768,-0.003946,-0.028212,-0.042570,-0.003946,-0.151473,-0.050660,0.192856,-0.005993,1.014071,-9.870749
1790548503.8582,-0.030475,-0.042307,-0.000079,-0.029796,-0.042386,-0.000079,-0.157543,-0.037305,0.350695,0.492271,1.125611,-9.405014
1790548503.8726,-0.033375,-0.043937,0.006027,-0.032301,-0.043472,0.006027,-0.084695,-0.115010,0.497606,0.607255,0.976891,-9.327392
1790548503.8867,-0.036503,-0.045393,0.011618,-0.035242,-0.044816,0.011618,-0.034915,-0.105296,0.508533,0.683911,1.051251,-9.405014
1790548503.9010,-0.035688,-0.041339,0.016551,-0.035555,-0.042382,0.016551,-0.132046,-0.020307,0.406545,0.108991,1.683311,-9.987182
1790548503.9150,-0.030640,-0.046962,0.028430,-0.032114,-0.045588,0.028430,-0.004562,-0.172074,0.378620,-0.274288,0.605091,-11.267951
1790548503.9290,-0.035843,-0.047454,0.028445,-0.034725,-0.046895,0.028445,-0.014275,-0.010593,0.442969,0.913879,1.162791,-9.482637
1790548503.9431,-0.028505,-0.049278,0.043569,-0.030371,-0.048563,0.043569,0.054931,-0.213355,0.449040,-0.542584,1.014071,-8.784035
1790548503.9573,-0.023698,-0.047465,0.053231,-0.025700,-0.047794,0.053231,-0.060412,-0.207284,0.378620,-0.274288,1.460231,-9.754315
1790548503.9710,-0.018694,-0.045992,0.061564,-0.020796,-0.046533,0.061564,-0.176970,-0.189072,0.309414,-0.427600,1.162791,-9.987182
1790548503.9848,-0.013604,-0.043621,0.067485,-0.015762,-0.044495,0.067485,-0.142974,-0.355410,0.275418,-0.082648,1.423051,-9.909560
1790548503.9989,-0.009393,-0.040295,0.071169,-0.011304,-0.041555,0.071169,-0.186683,-0.365123,0.213497,0.108991,1.534591,-10.025993
1790548504.0129,-0.002290,-0.033582,0.077487,-0.004994,-0.035974,0.077487,-0.285028,-0.529032,0.197713,-0.082648,1.906391,-9.366203
1790548504.0270,0.008516,-0.027055,0.082603,0.004463,-0.029731,0.082603,-0.445295,-0.725723,0.189214,-0.389272,1.534591,-9.831937
1790548504.0411,0.012449,-0.021182,0.082964,0.010053,-0.023747,0.082964,-0.414942,-0.507178,0.121222,0.415615,1.460231,-9.249770
1790548504.0551,0.010071,-0.029636,0.075874,0.010066,-0.027869,0.075874,0.211556,0.149673,-0.164102,-0.044320,0.307651,-15.847672
1790548504.0697,0.013357,-0.039843,0.086230,0.012370,-0.036251,0.086230,0.920615,0.397358,-0.342581,-2.765607,2.612811,-11.694875
1790548504.0838,0.025373,-0.033603,0.098876,0.021472,-0.034397,0.098876,0.436172,0.228593,-0.470065,-2.727279,2.984611,-5.523895
1790548504.0978,0.029077,-0.037703,0.092161,0.026795,-0.036712,0.092161,0.434958,0.126605,-0.585409,-1.577440,2.055111,-10.103616
1790548504.1121,0.035959,-0.028601,0.108501,0.033210,-0.031034,0.108501,-0.282600,-0.312915,-0.915656,-0.887536,3.876931,-12.898021
1790548504.1261,0.027963,-0.019094,0.127379,0.029537,-0.022676,0.127379,-0.416156,0.092609,-1.163341,2.140375,2.649991,-9.249770
1790548504.1400,0.015012,-0.009558,0.132822,0.019370,-0.013494,0.132822,-0.406443,0.787098,-1.122060,0.683911,1.869211,-6.144874
1790548504.1540,0.003973,-0.005913,0.098741,0.008592,-0.008187,0.098741,-0.543641,1.022642,-1.120846,-0.159304,0.567911,-8.784035
1790548504.1681,-0.003752,0.000278,0.072795,-0.000049,-0.002262,0.072795,-0.541212,0.825951,-1.185195,-0.274288,1.348691,-9.637881
1790548504.1822,-0.008851,0.010576,0.043743,-0.006211,0.006725,0.043743,-0.825322,0.699680,-1.370959,-0.350944,1.646131,-11.035084
1790548504.1960,-0.011621,0.015198,0.003398,-0.009998,0.012656,0.003398,-0.648057,0.507845,-1.357603,-0.120976,0.642271,-11.888930
1790548504.2097,-0.008484,0.017100,-0.040418,-0.008938,0.015767,-0.040418,-0.523000,0.133890,-1.157270,-0.580912,0.196111,-9.560259
1790548504.2237,0.004364,0.018954,-0.069949,0.000373,0.017997,-0.069949,-0.343307,-0.372408,-0.987290,-1.730752,0.902531,-8.978091
1790548504.2377,0.018243,0.020948,-0.083250,0.012882,0.020063,-0.083250,-0.201253,-0.405190,-0.854948,-1.845736,1.311511,-7.348021
1790548504.2517,0.027598,0.023671,-0.089101,0.023183,0.022588,-0.089101,-0.196396,-0.350553,-0.667971,-1.309144,2.017931,-9.560259
1790548504.2661,0.036708,0.026378,-0.085858,0.032651,0.025241,-0.085858,-0.117477,-0.497464,-0.470065,-0.887536,2.984611,-11.888930
1790548504.2801,0.047835,0.019835,-0.068042,0.043280,0.021457,-0.068042,0.638934,-0.973408,0.064157,0.300631,3.765391,-13.324944
1790548504.2941,0.040457,0.018137,-0.034581,0.041304,0.019133,-0.034581,0.465311,-0.082228,0.818139,2.293686,3.951291,-10.608161
1790548504.3084,0.031961,0.021118,-0.000426,0.034764,0.020522,-0.000426,0.172703,0.280801,1.153243,0.108991,3.914111,-9.637881
1790548504.3233,0.027078,0.014538,0.017037,0.029383,0.016333,0.017037,0.403390,-0.078585,1.244303,0.492271,1.051251,-7.503266
1790548504.3380,0.021239,0.011500,0.048891,0.023682,0.012950,0.048891,0.393677,-0.183002,1.444637,1.182175,2.017931,-7.192776
1790548504.3519,0.015508,0.015254,0.076938,0.017960,0.014563,0.076938,-0.021560,0.000334,1.558766,0.415615,2.947431,-9.016902
1790548504.3659,0.015668,0.013807,0.097047,0.016356,0.014034,0.097047,0.040362,-0.331127,1.640114,-0.274288,1.497411,-11.500819
1790548504.3799,0.004748,0.010269,0.118612,0.008230,0.011398,0.118612,0.131422,0.192168,1.479847,2.140375,1.088431,-11.656063
1790548504.3938,-0.000202,0.010579,0.139919,0.002328,0.010825,0.139919,0.035505,-0.067658,1.229733,1.067191,2.017931,-9.172147
1790548504.4078,0.008889,0.010712,0.144330,0.006920,0.010746,0.144330,-0.050699,-0.661374,0.928626,-1.347472,1.608951,-10.336483
1790548504.4214,0.021537,0.013759,0.134491,0.017152,0.012855,0.134491,-0.339665,-0.757291,0.518246,-2.420655,1.237151,-11.306763
1790548504.4348,0.033922,0.019626,0.126121,0.028891,0.017595,0.126121,-0.564281,-0.751220,0.208640,-2.152360,1.237151,-11.462007
1790548504.4484,0.038307,0.019085,0.119743,0.035482,0.018638,0.119743,-0.201253,-0.482895,-0.075469,0.760567,0.419191,-11.578441
1790548504.4625,0.034686,0.014034,0.115207,0.034925,0.015415,0.115207,0.254051,0.088966,-0.189599,1.028863,1.237151,-9.909560
1790548504.4763,0.031391,0.010412,0.111516,0.032451,0.011913,0.111516,0.365752,0.154530,-0.279445,0.530599,2.464091,-8.861658
1790548504.4902,0.025953,0.006548,0.103637,0.027902,0.008158,0.103637,0.437386,0.523629,-0.342581,-0.810880,3.244871,-10.142427
1790548504.5042,0.021162,0.001601,0.092772,0.023184,0.003568,0.092772,0.618293,0.516344,-0.427570,-0.964192,3.951291,-9.754315
1790548504.5181,0.015097,-0.003001,0.079930,0.017523,-0.001030,0.079930,0.674144,0.641401,-0.453067,-1.079176,4.323091,-9.094525
1790548504.5320,0.009231,-0.008249,0.070283,0.011719,-0.006083,0.070283,0.717853,0.592835,-0.539272,-0.580912,3.542311,-7.580888
1790548504.5460,0.013065,-0.008842,0.058299,0.012661,-0.008014,0.058299,0.601295,-0.051874,-0.726249,-0.772552,4.657711,-6.494175
1790548504.5600,0.019031,-0.014212,0.040743,0.017120,-0.012353,0.040743,0.343897,-0.240066,-0.669185,-1.347472,2.426911,-16.429840
1790548504.5753,0.020310,-0.010929,0.049770,0.019353,-0.011356,0.049770,-0.224321,-0.125937,-1.012787,1.948735,2.612811,-14.334035
1790548504.5914,0.014380,-0.008239,0.067734,0.015872,-0.009174,0.067734,-0.277744,0.186098,-1.014001,2.370342,0.753811,-8.085434
1790548504.6067,-0.001007,-0.006443,0.073007,0.004057,-0.007262,0.073007,-0.295956,0.849019,-0.884088,2.217030,0.233291,-8.085434
1790548504.6210,-0.018479,-0.002969,0.071012,-0.011718,-0.004257,0.071012,-0.439224,0.900013,-0.665542,3.175230,0.010211,-7.774944
1790548504.6362,-0.020895,0.000153,0.067810,-0.018142,-0.001170,0.067810,-0.448938,0.204310,-0.750532,0.875551,-0.435949,-9.560259
1790548504.6505,-0.019954,-0.005275,0.057312,-0.019410,-0.004044,0.057312,0.061002,0.056184,-0.710466,0.185647,-1.291089,-11.694875
1790548504.6644,-0.012912,-0.014027,0.049611,-0.014862,-0.011032,0.049611,0.404604,-0.338412,-0.697110,-0.389272,-0.287229,-9.016902
1790548504.6785,0.006875,-0.026194,0.036545,0.000354,-0.021645,0.036545,0.698427,-1.128818,-0.598764,-1.424128,0.047391,-7.697322
1790548504.6925,0.024056,-0.035284,0.032933,0.016945,-0.031192,0.032933,0.680215,-1.196810,-0.332867,-0.159304,1.199971,-6.804665
1790548504.7071,0.024156,-0.046083,0.033375,0.021993,-0.041616,0.033375,0.719067,-0.078585,-0.029332,0.607255,1.906391,-16.623896
1790548504.7214,0.012766,-0.029879,0.030485,0.015534,-0.033400,0.030485,-1.099718,0.798025,0.035018,-0.350944,3.876931,-20.893126
1790548504.7351,0.012313,-0.015241,0.024417,0.013279,-0.020688,0.024417,-1.105788,0.221308,0.122436,-2.765607,1.683311,-13.519000
1790548504.7494,0.015992,-0.011484,0.010095,0.015178,-0.014246,0.010095,-0.439224,0.022188,0.120008,-1.194160,-0.026969,-3.816203
1790548504.7636,0.006690,-0.004472,0.008725,0.009236,-0.007404,0.008725,-0.455008,0.448352,0.226852,0.492271,0.679451,-3.272846
1790548504.7777,0.004655,-0.008209,0.017262,0.006030,-0.007968,0.017262,0.263764,-0.062801,0.642089,1.335487,2.724351,-17.012007
1790548504.7909,0.007210,-0.015173,0.031421,0.006856,-0.013012,0.031421,0.536946,-0.441614,1.030614,0.952207,3.096151,-19.224245
1790548504.8040,-0.001277,-0.012364,0.043234,0.001163,-0.012558,0.043234,-0.105335,0.207952,1.461635,1.987063,2.724351,-10.841028
1790548504.8176,-0.006973,-0.016247,0.069141,-0.004532,-0.015140,0.069141,0.199414,0.074397,1.721461,0.453943,0.605091,-7.891378
1790548504.8325,-0.000606,-0.008169,0.034681,-0.001784,-0.010261,0.034681,-0.022774,-0.458612,1.170241,-0.580912,2.352551,-2.690678
1790548504.8467,-0.014766,-0.008880,0.065089,-0.010871,-0.009294,0.065089,-0.010632,0.461708,0.770788,3.903462,0.976891,-8.706413
1790548504.8609,-0.010181,-0.016495,0.082981,-0.010388,-0.014335,0.082981,0.385178,-0.401547,0.706438,-0.619240,0.270471,-14.799770
1790548504.8748,-0.002258,-0.011727,0.085282,-0.004697,-0.012509,0.085282,-0.241319,-0.570313,0.691869,-1.615768,3.393591,-12.548721
1790548504.8884,0.011006,-0.003054,0.090575,0.006295,-0.005890,0.090575,-0.582493,-0.972194,0.619020,-1.692424,2.649991,-11.850119
1790548504.9022,0.024878,0.003831,0.098500,0.019303,0.000914,0.098500,-0.441653,-1.117891,0.469681,-0.159304,1.794851,-8.007811
1790548504.9162,0.029874,0.007057,0.110455,0.026703,0.005215,0.110455,-0.277744,-0.605523,0.161288,1.488799,1.088431,-8.357112
1790548504.9301,0.032271,0.004566,0.115653,0.030601,0.004760,0.115653,0.110782,-0.257064,-0.071827,0.453943,0.976891,-8.357112
1790548504.9440,0.029158,-0.008535,0.118202,0.029591,-0.004546,0.118202,0.698427,0.363362,-0.511346,-0.887536,-0.584669,-10.802217
1790548504.9578,0.021049,-0.013792,0.086532,0.023611,-0.011019,0.086532,0.662002,0.733676,-0.570839,-0.657568,4.397451,-8.589979
1790548504.9718,0.016219,-0.020543,0.069504,0.018437,-0.017686,0.069504,0.621936,0.477492,-0.479779,-0.772552,3.282051,-10.064805
1790548504.9857,0.006922,-0.024479,0.046631,0.010376,-0.022441,0.046631,0.521162,0.859946,-0.505276,-0.887536,3.096151,-7.037532
1790548504.9996,0.001222,-0.030076,0.023077,0.003968,-0.027786,0.023077,0.592796,0.694823,-0.602407,-1.845736,3.170511,-8.357112
1790548505.0136,0.004277,-0.031203,0.011307,0.004184,-0.030177,0.011307,0.346326,-0.074943,-0.616977,-0.964192,5.996190,-12.665154
1790548505.0274,0.008787,-0.026469,-0.009680,0.007406,-0.027582,-0.009680,-0.232820,-0.087084,-0.953294,-1.615768,3.839751,-13.208511
1790548505.0412,0.008677,-0.020672,-0.003543,0.008296,-0.022745,-0.003543,-0.439224,-0.020307,-1.077136,2.102047,1.869211,-11.539630
1790548505.0551,0.003015,-0.020186,0.011951,0.004599,-0.020954,0.011951,-0.200038,0.324510,-1.028571,2.140375,0.010211,-8.589979
1790548505.0692,-0.000658,-0.019522,0.022327,0.000919,-0.019951,0.022327,-0.305669,0.224950,-0.896229,1.488799,-0.919289,-7.930189
1790548505.0835,-0.008113,-0.018280,0.027797,-0.005403,-0.018782,0.027797,-0.280172,0.432568,-0.784528,1.987063,-0.435949,-7.969000
1790548505.0976,-0.007031,-0.019122,0.023480,-0.006542,-0.019020,0.023480,-0.127190,0.064683,-0.913227,0.032335,-0.547489,-11.267951
1790548505.1114,-0.002993,-0.023243,0.016881,-0.004058,-0.021976,0.016881,0.153277,-0.127151,-0.910799,-0.350944,-0.026969,-10.414105
1790548505.1251,0.006644,-0.027569,0.014081,0.003433,-0.025891,0.014081,0.222483,-0.624949,-0.642474,-0.005993,0.456371,-8.240679
1790548505.1386,0.016656,-0.032216,0.012222,0.012690,-0.030319,0.012222,0.278334,-0.679586,-0.467637,-0.197632,0.679451,-8.163056
1790548505.1527,0.025507,-0.036142,0.005910,0.021662,-0.034395,0.005910,0.306259,-0.595810,-0.377791,-0.159304,1.794851,-9.754315
1790548505.1668,0.016942,-0.033672,-0.001590,0.018358,-0.033889,-0.001590,-0.138117,0.536985,-0.222380,1.373815,2.612811,-13.130889
1790548505.1806,0.006632,-0.018887,-0.004376,0.010150,-0.023387,-0.004376,-1.087576,0.805310,-0.074255,-0.925864,2.129471,-15.032637
1790548505.1947,0.007404,-0.008378,-0.013055,0.008227,-0.012881,-0.013055,-0.900598,0.178813,0.049587,-2.765607,-0.212869,-8.939280
1790548505.2085,0.003071,-0.001887,-0.012257,0.004618,-0.005185,-0.012257,-0.604348,0.422855,0.072656,-0.887536,0.084571,-5.950818
1790548505.2226,-0.009313,0.006574,-0.011176,-0.005133,0.003046,-0.011176,-0.733047,0.981361,0.266919,-1.155832,0.158931,-7.115154
1790548505.2367,0.005337,-0.002835,-0.001464,0.002196,-0.001070,-0.001464,0.495665,-1.087537,0.456325,-1.462456,-0.733389,-17.671798
1790548505.2506,-0.002217,-0.001673,-0.007470,-0.000894,-0.001492,-0.007470,0.022150,0.133890,0.907986,2.983590,2.761531,-9.288581
1790548505.2647,-0.003101,-0.001002,0.005491,-0.002439,-0.001149,0.005491,0.053717,-0.145363,1.239447,-0.159304,2.352551,-7.852567
1790548505.2788,-0.011430,-0.002737,0.013687,-0.008733,-0.002261,0.013687,0.223697,0.190954,1.266158,1.527127,1.906391,-6.300119
1790548505.2928,-0.015835,-0.003639,0.014632,-0.013704,-0.003226,0.014632,0.210342,-0.047018,0.895844,1.642111,2.129471,-5.717951
1790548505.3068,-0.022628,-0.005564,0.022606,-0.019951,-0.004863,0.022606,0.200628,0.216451,0.917699,1.833751,2.984611,-11.267951
1790548505.3208,-0.018345,-0.008981,0.037591,-0.018827,-0.007745,0.037591,0.184845,-0.410046,0.785357,-0.427600,1.497411,-13.247322
1790548505.3352,-0.011139,-0.007050,0.046565,-0.013445,-0.007259,0.046565,-0.095622,-0.615236,0.780501,-0.389272,2.724351,-11.850119
1790548505.3488,-0.001183,-0.000082,0.051400,-0.004861,-0.002235,0.051400,-0.445295,-0.786430,0.583810,-0.695896,2.352551,-9.094525
1790548505.3628,0.012053,0.006141,0.057446,0.006979,0.003628,0.057446,-0.402800,-1.032901,0.424757,-0.235960,1.720491,-7.464455
1790548505.3771,0.021273,0.009617,0.065966,0.016985,0.007820,0.065966,-0.243748,-0.804642,0.270561,0.798895,1.460231,-8.279490
1790548505.3912,0.023158,0.008140,0.074856,0.021306,0.008044,0.074856,0.027006,-0.242495,0.066585,1.143847,1.162791,-13.208511
1790548505.4052,0.019128,-0.001210,0.073074,0.019782,0.001566,0.073074,0.601295,0.471421,-0.269732,-2.267343,1.237151,-11.888930
1790548505.4193,0.012859,-0.006977,0.051748,0.014936,-0.004414,0.051748,0.589154,0.615904,-0.396003,-1.347472,3.876931,-8.822846
1790548505.4335,0.005108,-0.017198,0.034309,0.008056,-0.013363,0.034309,0.872049,0.716678,-0.357150,-1.079176,2.687171,-6.998721
1790548505.4475,-0.005265,-0.023936,0.016527,-0.001268,-0.020764,0.016527,0.675358,0.908512,-0.399645,-0.964192,3.133331,-7.192776
1790548505.4616,-0.009974,-0.029414,-0.000708,-0.007362,-0.026819,-0.000708,0.546659,0.672969,-0.444568,-2.765607,2.761531,-7.270399
1790548505.4758,-0.012722,-0.036578,-0.010760,-0.011114,-0.033651,-0.010760,0.587940,0.324510,-0.311013,-1.385800,3.356411,-13.092077
1790548505.4898,-0.010817,-0.032514,-0.018773,-0.010906,-0.032855,-0.018773,-0.206109,-0.067658,-0.760245,0.952207,4.583351,-17.749420
1790548505.5038,-0.012158,-0.021883,-0.021421,-0.011783,-0.025174,-0.021421,-0.655342,0.109607,-0.986076,2.025391,3.319231,-11.073895
1790548505.5177,-0.022648,-0.014965,-0.006934,-0.019388,-0.018028,-0.006934,-0.580065,0.647472,-0.887730,2.102047,0.307651,-5.989630
1790548505.5317,-0.025931,-0.010523,-0.004508,-0.023968,-0.012775,-0.004508,-0.497503,0.296585,-0.666756,0.530599,-0.510309,-6.455364
1790548505.5455,-0.034498,-0.006189,0.000469,-0.031339,-0.008165,0.000469,-0.487790,0.589193,-0.626690,1.795423,-0.621849,-8.318301
1790548505.5595,-0.034061,-0.002568,-0.010587,-0.033244,-0.004247,-0.010587,-0.355449,0.207952,-0.924155,-0.964192,0.158931,-12.781588
1790548505.5733,-0.034369,-0.003540,-0.017695,-0.034032,-0.003752,-0.017695,-0.047057,0.161815,-0.964221,0.798895,-0.138509,-12.005364
1790548505.5873,-0.026012,-0.007496,-0.021981,-0.028418,-0.006373,-0.021981,0.156919,-0.480466,-0.796670,0.300631,-0.138509,-8.434735
1790548505.6015,-0.014474,-0.011019,-0.024368,-0.018657,-0.009625,-0.024368,0.150849,-0.731794,-0.601193,0.147319,0.233291,-8.279490
1790548505.6154,-0.007956,-0.012312,-0.028702,-0.011166,-0.011506,-0.028702,0.079214,-0.453755,-0.433641,0.645583,1.385871,-9.405014
1790548505.6294,-0.000467,-0.008416,-0.037491,-0.003677,-0.009343,-0.037491,-0.223107,-0.442828,-0.426356,-0.504256,2.649991,-10.608161
1790548505.6434,0.005321,-0.002655,-0.046436,0.002622,-0.004662,-0.046436,-0.376089,-0.255850,-0.389932,-1.577440,2.501271,-10.957462
1790548505.6573,0.000018,0.007355,-0.052580,0.000799,0.003750,-0.052580,-0.699051,0.458065,-0.252734,-0.465928,2.501271,-11.306763
1790548505.6713,-0.007190,0.023397,-0.057781,-0.004793,0.017503,-0.057781,-1.157997,0.662041,0.002236,-1.539112,1.497411,-8.046623
1790548505.6853,-0.001900,0.020769,-0.053247,-0.002768,0.019789,-0.053247,0.075572,-0.325056,0.304557,-2.918919,0.679451,-16.740329
1790548505.6992,-0.001694,0.015396,-0.043481,-0.002016,0.016714,-0.043481,0.411889,-0.214569,0.724650,0.722239,2.315371,-10.336483
1790548505.7131,-0.008140,0.014509,-0.029921,-0.006303,0.015171,-0.029921,0.085285,0.184883,1.087679,0.913879,1.943571,-8.822846
1790548505.7270,-0.014510,0.009536,-0.013498,-0.012048,0.011227,-0.013498,0.368180,0.172742,1.272228,0.607255,1.757671,-8.318301
1790548505.7409,-0.017675,0.002749,0.001614,-0.015987,0.005292,0.001614,0.509021,0.091395,1.341435,-1.309144,2.092291,-9.172147
1790548505.7548,-0.023602,0.001899,0.016725,-0.021318,0.002917,0.016725,0.125352,0.178813,1.347505,0.262303,2.687171,-8.978091
1790548505.7688,-0.024076,-0.000068,0.033509,-0.023249,0.000827,0.033509,0.101069,-0.146577,1.187239,-0.350944,1.720491,-11.423196
1790548505.7827,-0.018088,-0.001653,0.049149,-0.019636,-0.000909,0.049149,0.056146,-0.566670,1.019687,-0.695896,1.274331,-10.879840
1790548505.7967,-0.005033,0.003047,0.061115,-0.009414,0.001860,0.061115,-0.371232,-0.973408,0.782929,-1.922392,1.571771,-11.345574
1790548505.8103,0.007735,0.010683,0.072303,0.002591,0.008036,0.072303,-0.554568,-1.034115,0.655444,-0.695896,1.869211,-10.064805
1790548505.8243,0.016773,0.016232,0.080618,0.012518,0.013773,0.080618,-0.404014,-0.776717,0.440541,0.147319,1.571771,-9.133336
1790548505.8387,0.016226,0.017491,0.082682,0.015114,0.016376,0.082682,-0.151473,-0.099226,0.127292,1.795423,1.237151,-12.898021
1790548505.8527,0.015271,0.009145,0.079709,0.015224,0.011314,0.079709,0.516305,0.137532,-0.280659,-0.465928,0.939711,-11.035084
1790548505.8667,0.009523,0.003681,0.071124,0.011234,0.005971,0.071124,0.504164,0.456851,-0.263661,-0.044320,3.467951,-9.366203
1790548505.8808,0.004334,-0.004013,0.060751,0.006404,-0.001018,0.060751,0.646219,0.568552,-0.340152,-1.807408,2.873071,-8.473546
1790548505.8948,-0.002809,-0.011575,0.048989,-0.000045,-0.008408,0.048989,0.715425,0.669326,-0.405716,-0.964192,3.319231,-7.309210
1790548505.9088,-0.011718,-0.017846,0.038021,-0.008216,-0.015014,0.038021,0.640148,0.779813,-0.385075,-1.040848,4.434631,-9.327392
1790548505.9226,-0.016224,-0.022082,0.025699,-0.013822,-0.019961,0.025699,0.524804,0.517558,-0.497991,-1.654096,5.215411,-10.336483
1790548505.9365,-0.007932,-0.023704,0.009978,-0.009699,-0.022581,0.009978,0.153277,-0.338412,-0.539272,-3.072231,2.426911,-11.578441
1790548505.9504,-0.003633,-0.017406,0.002812,-0.005453,-0.018959,0.002812,-0.356663,-0.203642,-0.867090,0.453943,4.025651,-13.014455
1790548505.9644,-0.005727,-0.013741,-0.005364,-0.005644,-0.015306,-0.005364,-0.331166,0.204310,-0.932654,1.527127,0.753811,-10.879840
1790548505.9784,-0.010598,-0.011701,-0.014691,-0.009112,-0.012783,-0.014691,-0.270459,0.393716,-1.020072,1.488799,-0.138509,-7.852567
1790548505.9922,-0.018739,-0.006787,-0.019694,-0.015851,-0.008586,-0.019694,-0.425869,0.558839,-0.774815,1.987063,0.456371,-7.736133
1790548506.0062,-0.025636,-0.000719,-0.027538,-0.022700,-0.003079,-0.027538,-0.552140,0.546698,-0.699538,1.182175,-0.101329,-9.094525
1790548506.0202,-0.026385,0.000782,-0.039805,-0.025280,-0.000376,-0.039805,-0.254675,0.227378,-0.846449,-0.120976,-0.733389,-12.121798
1790548506.0336,-0.027649,-0.001498,-0.050636,-0.026938,-0.001162,-0.050636,0.031863,0.217665,-0.839165,0.568927,-0.398769,-9.521448
1790548506.0473,-0.018396,-0.003775,-0.057551,-0.020959,-0.002991,-0.057551,0.110782,-0.526604,-0.614548,-0.465928,0.605091,-7.309210
1790548506.0612,-0.009769,-0.007490,-0.061357,-0.013126,-0.006141,-0.061357,0.183630,-0.550887,-0.393574,-0.082648,0.382011,-8.201867
1790548506.0751,-0.002412,-0.010955,-0.063412,-0.005626,-0.009511,-0.063412,0.215198,-0.482895,-0.250306,-0.197632,1.051251,-8.900469
1790548506.0894,0.002813,-0.011724,-0.065436,0.000281,-0.011060,-0.065436,0.104711,-0.342054,-0.162887,-0.120976,2.464091,-9.870749
1790548506.1035,0.003263,-0.007958,-0.067362,0.002368,-0.008888,-0.067362,-0.248604,0.028259,-0.125249,-0.849208,2.464091,-12.044175
1790548506.1175,-0.004016,0.002029,-0.067592,-0.002101,-0.001246,-0.067592,-0.735475,0.564910,0.084798,-0.964192,1.720491,-11.733686
1790548506.1314,-0.009370,0.014192,-0.067292,-0.007189,0.009561,-0.067292,-0.818037,0.512702,0.196499,-1.845736,2.129471,-7.542077
1790548506.1452,-0.002044,0.012386,-0.064464,-0.003588,0.011539,-0.064464,0.040362,-0.441614,0.370121,-2.803935,0.567911,-10.724595
1790548506.1591,-0.000903,0.006957,-0.052545,-0.001709,0.008332,-0.052545,0.461669,-0.203642,0.717366,-0.350944,3.207691,-11.112707
1790548506.1736,-0.006064,0.005547,-0.034418,-0.004757,0.006382,-0.034418,0.181202,0.075611,1.169026,1.067191,3.096151,-9.831937
1790548506.1876,-0.016957,0.000147,-0.014867,-0.013297,0.002017,-0.014867,0.373037,0.336651,1.533269,2.600310,1.534591,-9.327392
1790548506.2016,-0.024360,-0.003218,0.004618,-0.021041,-0.001647,0.004618,0.377893,0.285657,1.483489,-0.005993,2.835891,-6.532986
1790548506.2154,-0.022063,-0.003827,0.021792,-0.021756,-0.003173,0.021792,0.040362,-0.315343,1.342649,-1.117504,1.906391,-9.327392
1790548506.2296,-0.026660,-0.002074,0.036487,-0.025189,-0.002404,0.036487,-0.157543,0.103536,1.031828,0.875551,1.571771,-10.530539
1790548506.2436,-0.017605,-0.005352,0.045103,-0.019881,-0.004467,0.045103,0.170275,-0.661374,0.791428,-2.267343,1.125611,-11.656063
1790548506.2576,-0.007788,-0.000586,0.058306,-0.011416,-0.001750,0.058306,-0.298384,-0.833782,0.753790,-0.197632,3.096151,-12.315854
1790548506.2714,0.005574,0.007514,0.065588,0.000477,0.004735,0.065588,-0.587350,-0.987978,0.495178,-1.500784,1.869211,-10.258860
1790548506.2852,0.017243,0.014357,0.072445,0.012213,0.011470,0.072445,-0.510859,-0.984335,0.287559,0.683911,1.497411,-9.405014
1790548506.2992,0.028048,0.019632,0.076747,0.023298,0.017184,0.076747,-0.399158,-0.901774,0.089654,0.952207,1.274331,-8.434735
1790548506.3134,0.024079,0.014329,0.073392,0.023845,0.015185,0.073392,0.303831,0.229807,-0.194455,1.450471,1.274331,-13.092077
1790548506.3276,0.023533,0.004421,0.064560,0.023627,0.007650,0.064560,0.795558,0.267445,-0.505276,-2.343999,3.542311,-9.172147
1790548506.3424,0.016867,0.003732,0.061648,0.018895,0.004908,0.061648,0.278334,0.505417,-0.360793,0.070663,5.066691,-7.697322
1790548506.3565,0.012592,-0.001786,0.051498,0.014483,0.000222,0.051498,0.501736,0.489633,-0.423928,-1.730752,3.430771,-8.822846
1790548506.3708,0.004240,-0.008485,0.042608,0.007313,-0.005873,0.042608,0.659574,0.760387,-0.524702,-1.002520,3.616671,-6.765853
1790548506.3849,-0.004089,-0.016066,0.041817,-0.000668,-0.013008,0.041817,0.755491,0.652328,-0.494348,0.262303,3.505131,-6.338930
1790548506.3989,-0.004863,-0.025191,0.025305,-0.003604,-0.021536,0.025305,0.666859,0.249233,-0.567197,-2.305671,2.687171,-14.722147
1790548506.4128,-0.000184,-0.020800,0.019845,-0.001210,-0.021021,0.019845,-0.266816,-0.260707,-1.028571,2.255358,4.880791,-20.155714
1790548506.4268,-0.004133,-0.012101,0.015202,-0.003256,-0.014777,0.015202,-0.594635,0.325724,-1.148771,3.711822,3.802571,-16.934385
1790548506.4407,-0.005872,-0.009408,-0.006589,-0.005087,-0.011018,-0.006589,-0.327523,0.329366,-1.089278,-0.197632,-0.250049,-8.085434
1790548506.4549,-0.015258,-0.006734,-0.018190,-0.012207,-0.008020,-0.018190,-0.366376,0.672969,-0.847664,1.910407,-0.956469,-8.046623
1790548506.4689,-0.022516,-0.003327,-0.027368,-0.019423,-0.004735,-0.027368,-0.353020,0.529700,-0.833094,2.217030,-0.138509,-9.482637
1790548506.4828,-0.019039,-0.003515,-0.045094,-0.019154,-0.003881,-0.045094,-0.129618,-0.056731,-1.049211,-0.044320,-0.770569,-11.500819
1790548506.4964,-0.016966,-0.008318,-0.059466,-0.017623,-0.006987,-0.059466,0.226125,-0.011808,-0.988504,0.607255,-0.435949,-11.617252
1790548506.5100,-0.006570,-0.011230,-0.068054,-0.009886,-0.009957,-0.068054,0.133851,-0.675943,-0.750532,0.415615,0.419191,-9.715504
1790548506.5239,0.007312,-0.014687,-0.073622,0.002153,-0.013268,-0.073622,0.227340,-0.889632,-0.495562,-0.619240,1.162791,-8.512357
1790548506.5379,0.017894,-0.018927,-0.078717,0.013172,-0.017229,-0.078717,0.296546,-0.634662,-0.346223,-1.385800,1.460231,-9.366203
1790548506.5517,0.014994,-0.017098,-0.082002,0.014447,-0.017138,-0.082002,-0.071339,0.271088,-0.177457,-1.079176,4.025651,-14.993826
1790548506.5658,0.008239,-0.002255,-0.087046,0.010101,-0.006720,-0.087046,-1.066936,0.598906,-0.042687,-2.688951,2.464091,-14.916203
1790548506.5800,0.003533,0.010756,-0.093311,0.005504,0.005513,-0.093311,-0.972233,0.485991,0.075084,-2.765607,1.051251,-10.181238
1790548506.5942,-0.000395,0.018181,-0.102273,0.001374,0.014380,-0.102273,-0.594635,0.523629,0.083583,-2.114032,0.344831,-4.708860
1790548506.6082,0.009862,0.012857,-0.102409,0.007316,0.013314,-0.102409,0.261336,-0.751220,0.362836,-1.309144,-0.026969,-10.763406
1790548506.6222,0.008656,0.005726,-0.091023,0.008254,0.008003,-0.091023,0.555158,-0.081014,0.662729,0.683911,3.207691,-13.402567
1790548506.6360,-0.002810,0.005371,-0.074592,0.000509,0.006161,-0.074592,0.044004,0.524843,1.249160,1.488799,2.203831,-11.384385
1790548506.6501,-0.006966,-0.001687,-0.055361,-0.004723,0.000667,-0.055361,0.467740,0.003976,1.500487,0.300631,1.088431,-9.094525
1790548506.6648,-0.006106,-0.004165,-0.035306,-0.005691,-0.002715,-0.035306,0.118067,-0.342054,1.490774,0.223975,0.716631,-8.163056
1790548506.6803,-0.012177,-0.003962,-0.014705,-0.010232,-0.003588,-0.014705,-0.014275,0.245591,1.352362,-1.462456,1.794851,-10.103616
1790548506.6949,-0.015411,-0.003838,-0.000677,-0.013857,-0.003763,-0.000677,-0.031273,-0.022735,1.023329,1.258831,1.571771,-10.685784
1790548506.7094,-0.008752,-0.005285,0.013616,-0.010284,-0.004828,0.013616,0.108354,-0.519319,0.827852,-1.692424,2.203831,-11.267951
1790548506.7235,0.004206,-0.000699,0.028951,-0.000141,-0.001938,0.028951,-0.287457,-0.994048,0.787786,-1.500784,2.612811,-11.345574
1790548506.7378,0.015415,0.007489,0.040346,0.010748,0.004661,0.040346,-0.526643,-0.877491,0.502462,-0.504256,2.724351,-11.073895
1790548506.7516,0.023518,0.010827,0.043807,0.019687,0.008977,0.043807,-0.280172,-0.719652,0.283917,0.683911,1.088431,-9.560259
1790548506.7654,0.031157,0.013226,0.047943,0.027716,0.011951,0.047943,-0.125976,-0.620093,-0.005049,0.415615,2.129471,-8.085434
1790548506.7795,0.027725,0.007430,0.044405,0.027722,0.008786,0.044405,0.414317,0.181241,-0.375362,2.178703,2.538451,-11.694875
1790548506.7933,0.023772,0.000489,0.041800,0.024957,0.002978,0.041800,0.662002,0.448352,-0.590265,-1.002520,4.137191,-8.279490
1790548506.8073,0.015095,-0.002596,0.043539,0.018054,-0.000924,0.043539,0.424031,0.635330,-0.427570,0.798895,4.806431,-8.318301
1790548506.8212,0.011158,-0.009481,0.032006,0.013227,-0.006914,0.032006,0.584297,0.511488,-0.455496,-2.152360,2.835891,-8.357112
1790548506.8352,0.002414,-0.017060,0.023211,0.005658,-0.014016,0.023211,0.672930,0.818666,-0.558698,-1.270816,3.021791,-7.348021
1790548506.8497,0.000383,-0.026489,0.020752,0.001966,-0.022747,0.020752,0.896332,0.302655,-0.429999,-1.769080,5.847470,-8.900469
1790548506.8637,0.009036,-0.024286,0.011001,0.006915,-0.023824,0.011001,-0.133261,-0.482895,-0.805169,-0.734224,3.058971,-14.605714
1790548506.8777,0.008883,-0.018186,0.005811,0.008293,-0.019877,0.005811,-0.442867,0.048900,-1.040712,2.561982,2.501271,-14.334035
1790548506.8917,0.006654,-0.015478,0.000315,0.007146,-0.016798,0.000315,-0.259531,0.126605,-0.935082,3.060246,0.828171,-10.802217
1790548506.9058,0.003171,-0.013536,-0.018304,0.004363,-0.014515,-0.018304,-0.342093,0.288086,-0.777243,1.067191,-1.105189,-7.542077
1790548506.9199,-0.003252,-0.011022,-0.028682,-0.000968,-0.012070,-0.028682,-0.298384,0.460494,-0.665542,1.373815,-0.138509,-7.813756
1790548506.9338,-0.001683,-0.010827,-0.043236,-0.001468,-0.011200,-0.043236,-0.130832,0.010047,-0.833094,0.223975,-0.101329,-10.724595
1790548506.9478,-0.000416,-0.014290,-0.057617,-0.000732,-0.013363,-0.057617,0.130208,0.010047,-0.896229,0.760567,-0.138509,-11.035084
1790548506.9613,0.005199,-0.018482,-0.068270,0.003420,-0.016947,-0.068270,0.223697,-0.334769,-0.786957,0.453943,0.344831,-9.094525
1790548506.9749,0.018746,-0.022518,-0.076246,0.014148,-0.020847,-0.076246,0.239481,-0.875063,-0.620619,-0.580912,0.679451,-8.085434
1790548506.9889,0.031203,-0.027049,-0.080673,0.026087,-0.025188,-0.080673,0.319614,-0.819212,-0.436069,-0.542584,1.423051,-8.784035
1790548507.0028,0.030798,-0.025208,-0.084100,0.029385,-0.025202,-0.084100,-0.064054,0.054970,-0.341366,0.032335,3.282051,-11.306763
1790548507.0167,0.021758,-0.010021,-0.087046,0.024046,-0.014575,-0.087046,-1.075435,0.674183,-0.130106,-0.427600,3.356411,-16.507462
1790548507.0306,0.019578,0.004566,-0.097188,0.020918,-0.001176,-0.097188,-1.164067,0.330581,-0.008691,-3.072231,-0.026969,-10.181238
1790548507.0445,0.017936,0.012340,-0.106420,0.018830,0.008285,-0.106420,-0.700265,0.302655,0.039874,-2.267343,-0.287229,-6.727042
1790548507.0583,0.011593,0.017557,-0.111501,0.013764,0.014775,-0.111501,-0.462293,0.680253,0.052016,-1.999048,0.307651,-5.174595
1790548507.0722,0.012835,0.021859,-0.115119,0.013114,0.019734,-0.115119,-0.472006,-0.045804,0.374977,-3.455511,-1.179549,-16.119350
1790548507.0862,0.018680,0.017479,-0.106549,0.017010,0.018156,-0.106549,0.274691,-0.590953,0.801141,-0.350944,1.571771,-15.381938
1790548507.1009,0.013205,0.014645,-0.083534,0.014347,0.015698,-0.083534,0.280762,0.079253,1.345077,0.415615,3.058971,-10.414105
1790548507.1149,0.003687,0.015168,-0.053100,0.006885,0.015327,-0.053100,0.125352,0.303869,1.578192,0.645583,2.129471,-4.902916
1790548507.1287,0.001617,0.017991,-0.011737,0.003197,0.017191,-0.011737,0.167847,-0.168432,1.273443,0.377287,2.687171,-2.690678
1790548507.1426,-0.007895,0.014047,0.007728,-0.004567,0.014990,0.007728,0.382750,0.387645,1.051255,1.297159,2.724351,-7.658511
1790548507.1565,-0.007961,0.008597,0.015651,-0.006943,0.010515,0.015651,0.325685,-0.134436,0.886131,-0.695896,1.237151,-14.760958
1790548507.1706,-0.002975,0.008728,0.027188,-0.004165,0.009264,0.027188,-0.006990,-0.482895,0.842422,-0.925864,2.687171,-14.139979
1790548507.1842,0.005304,0.014959,0.039595,0.002463,0.013251,0.039595,-0.408871,-0.729366,0.731935,-0.695896,3.058971,-11.733686
1790548507.1978,0.016874,0.021713,0.053343,0.012551,0.019174,0.053343,-0.434368,-1.025616,0.570454,0.377287,2.389731,-8.551168
1790548507.2118,0.029991,0.026427,0.064106,0.024759,0.024251,0.064106,-0.304455,-1.103321,0.349480,0.568927,1.832031,-7.852567
1790548507.2257,0.037306,0.028929,0.069263,0.033542,0.027526,0.069263,-0.215822,-0.702654,0.150361,1.565455,1.162791,-9.094525
1790548507.2396,0.033575,0.019037,0.058608,0.033565,0.021584,0.058608,0.634077,0.409500,-0.235736,-2.152360,1.125611,-12.160609
1790548507.2536,0.033231,0.012802,0.050491,0.033331,0.015436,0.050491,0.568514,0.217665,-0.416643,-2.305671,4.360271,-9.560259
1790548507.2675,0.029874,0.007843,0.053269,0.030911,0.010121,0.053269,0.543017,0.240734,-0.240593,0.377287,4.732071,-8.512357
1790548507.2816,0.020610,0.000233,0.051348,0.023700,0.003200,0.051348,0.668073,0.710607,-0.251520,-0.159304,3.467951,-8.201867
1790548507.2956,0.012972,-0.006805,0.035529,0.016190,-0.003804,0.035529,0.623150,0.751888,-0.324368,-1.960720,3.096151,-7.386832
1790548507.3095,0.012201,-0.014368,0.027048,0.013398,-0.011199,0.027048,0.607366,0.193382,-0.444568,-1.577440,3.765391,-12.820399
1790548507.3235,0.020844,-0.013057,0.020741,0.018611,-0.012500,0.020741,-0.084695,-0.522961,-0.726249,-0.082648,3.356411,-16.274595
1790548507.3376,0.022188,-0.006130,0.012540,0.021115,-0.008041,0.012540,-0.485362,0.018546,-1.054068,0.875551,2.910251,-12.626343
1790548507.3522,0.016129,-0.002146,0.009071,0.017625,-0.003914,0.009071,-0.339665,0.352435,-0.939938,3.021918,0.828171,-7.852567
1790548507.3663,0.012760,0.002589,-0.004545,0.014219,0.000638,-0.004545,-0.467150,0.336651,-0.805169,0.607255,0.010211,-9.327392
1790548507.3802,0.006620,0.007064,-0.017906,0.008899,0.005136,-0.017906,-0.495075,0.454423,-0.704395,1.680439,-0.733389,-9.016902
1790548507.3942,0.004999,0.010636,-0.036501,0.006169,0.008986,-0.036501,-0.373661,0.322082,-0.865876,-0.810880,0.196111,-11.073895
1790548507.4082,0.005629,0.009512,-0.055089,0.005791,0.009354,-0.055089,-0.072553,0.131461,-0.975149,0.032335,-0.435949,-11.345574
1790548507.4219,0.012060,0.004536,-0.069600,0.010179,0.005981,-0.069600,0.222483,-0.329913,-0.878017,0.108991,-0.175689,-9.870749
1790548507.4356,0.024812,-0.001531,-0.078707,0.020422,0.000722,-0.078707,0.329328,-0.849566,-0.670399,0.070663,0.158931,-8.745224
1790548507.4497,0.034810,-0.006696,-0.083750,0.030494,-0.004471,-0.083750,0.314758,-0.689299,-0.472494,0.377287,1.014071,-9.327392
1790548507.4638,0.041391,-0.007652,-0.087962,0.038122,-0.006697,-0.087962,0.069501,-0.439186,-0.420286,0.108991,1.832031,-9.094525
1790548507.4778,0.031461,-0.000856,-0.094473,0.033459,-0.002608,-0.094473,-0.532713,0.733676,-0.355936,0.568927,1.980751,-14.566903
1790548507.4917,0.025844,0.014031,-0.101406,0.028128,0.009039,-0.101406,-1.076649,0.562482,-0.268518,-2.612295,2.761531,-13.092077
1790548507.5056,0.022880,0.024475,-0.109364,0.024455,0.019844,-0.109364,-0.822893,0.402215,-0.160459,-2.842263,0.902531,-9.987182
1790548507.5196,0.021088,0.036029,-0.115392,0.022098,0.031174,-0.115392,-0.850819,0.380360,-0.007477,-1.615768,0.642271,-3.466902
1790548507.5334,0.027806,0.031003,-0.118394,0.026094,0.031054,-0.118394,0.212770,-0.518105,0.258420,-1.155832,-0.659029,-13.130889
1790548507.5475,0.026024,0.028368,-0.108588,0.026045,0.029174,-0.108588,0.189701,-0.057945,0.799927,-0.044320,1.832031,-10.996273
1790548507.5616,0.019223,0.021448,-0.096629,0.021269,0.023766,-0.096629,0.459241,0.102322,1.167812,2.063719,0.828171,-9.443825
1790548507.5755,0.016412,0.011567,-0.080079,0.017870,0.015227,-0.080079,0.662002,-0.102868,1.406998,0.185647,0.419191,-7.813756
1790548507.5894,0.005602,0.013676,-0.059943,0.009282,0.014141,-0.059943,0.037933,0.336651,1.150814,2.906934,3.542311,-6.727042
1790548507.6038,0.002671,0.011991,-0.047704,0.004655,0.012636,-0.047704,0.102283,-0.011808,0.903129,0.645583,1.497411,-10.142427
1790548507.6179,0.007310,0.006543,-0.036155,0.006514,0.008371,-0.036155,0.315972,-0.484109,0.778073,-0.159304,0.642271,-12.509909
1790548507.6317,0.013598,0.011925,-0.021757,0.011472,0.010859,-0.021757,-0.337236,-0.582454,0.871562,-1.194160,3.096151,-12.315854
1790548507.6453,0.023194,0.019005,-0.009114,0.019677,0.016561,-0.009114,-0.474435,-0.824069,0.728293,-0.772552,1.980751,-8.279490
1790548507.6589,0.034934,0.024161,0.002340,0.030357,0.021881,0.002340,-0.312954,-1.023188,0.619020,-0.120976,2.017931,-7.619700
1790548507.6727,0.039264,0.026357,0.009023,0.036592,0.025014,0.009023,-0.145402,-0.548458,0.422329,1.718767,1.757671,-9.327392
1790548507.6866,0.041799,0.027058,0.012663,0.040237,0.026445,0.012663,-0.005776,-0.260707,0.218353,-0.044320,2.352551,-8.978091
1790548507.7006,0.036800,0.016275,0.009438,0.037831,0.019326,0.009438,0.697213,0.347579,-0.158031,0.492271,1.274331,-14.139979
1790548507.7146,0.032073,0.010260,0.003612,0.033801,0.012980,0.003612,0.626792,0.451995,-0.400859,-0.810880,4.806431,-7.774944
1790548507.7285,0.023721,0.003478,-0.001228,0.026745,0.006329,-0.001228,0.618293,0.643829,-0.269732,-0.044320,3.653851,-8.201867
1790548507.7425,0.015384,-0.006368,-0.008855,0.018792,-0.002559,-0.008855,0.787059,0.715464,-0.359578,-0.849208,2.798711,-8.124245
1790548507.7564,0.008893,-0.013675,-0.018042,0.011863,-0.010340,-0.018042,0.710568,0.643829,-0.501633,-1.462456,4.471811,-8.318301
1790548507.7704,0.016192,-0.017466,-0.026716,0.014893,-0.015328,-0.026716,0.246766,-0.385763,-0.488278,-1.769080,1.832031,-13.674245
1790548507.7844,0.023217,-0.011613,-0.034755,0.020720,-0.012727,-0.034755,-0.393087,-0.418545,-0.887730,0.990535,3.951291,-15.964105
1790548507.7988,0.017712,-0.004894,-0.041933,0.018615,-0.007244,-0.041933,-0.523000,0.392502,-1.023714,2.293686,1.125611,-8.667602
1790548507.8128,0.006446,0.001143,-0.050021,0.010097,-0.001373,-0.050021,-0.450152,0.800454,-0.992147,1.718767,1.051251,-5.523895
1790548507.8270,0.003700,0.003728,-0.058993,0.005619,0.002197,-0.058993,-0.342093,0.314797,-0.786957,0.262303,-0.510309,-8.046623
1790548507.8412,-0.004982,0.008074,-0.068220,-0.001802,0.006311,-0.068220,-0.427083,0.672969,-0.808811,1.488799,-0.064149,-9.405014
1790548507.8555,-0.005730,0.008510,-0.080250,-0.004552,0.007850,-0.080250,-0.166042,0.238306,-0.972720,-0.044320,-0.473129,-13.286133
1790548507.8694,-0.005069,0.006267,-0.090926,-0.004914,0.006742,-0.090926,0.029434,0.056184,-0.929011,1.028863,-0.250049,-9.288581
1790548507.8831,0.007588,-0.000540,-0.098454,0.003837,0.001645,-0.098454,0.341469,-0.703869,-0.827023,-1.309144,-0.584669,-8.745224
1790548507.8967,0.020859,-0.010013,-0.103513,0.015753,-0.006515,-0.103513,0.568514,-0.894489,-0.625476,-0.044320,-0.138509,-7.309210
1790548507.9106,0.029976,-0.015707,-0.110462,0.025709,-0.012950,-0.110462,0.391249,-0.669873,-0.445783,0.875551,1.423051,-9.288581
1790548507.9249,0.028836,-0.019380,-0.119037,0.027898,-0.017451,-0.119037,0.255265,-0.020307,-0.230879,2.217030,1.906391,-11.229140
1790548507.9391,0.017595,-0.006454,-0.123881,0.020686,-0.009753,-0.123881,-0.917596,0.799239,-0.159245,0.377287,2.873071,-16.391028
1790548507.9531,0.015544,0.006437,-0.120740,0.017086,0.001580,-0.120740,-1.017156,0.283229,-0.081540,-1.999048,0.270471,-9.133336
1790548507.9669,0.014930,0.014051,-0.116469,0.015577,0.010309,-0.116469,-0.666269,0.150888,0.008307,-1.194160,0.047391,-6.183686
1790548507.9809,0.009346,0.025208,-0.131319,0.011215,0.020738,-0.131319,-0.572780,0.286871,0.164931,0.568927,2.501271,-3.855014
1790548507.9948,0.016893,0.021279,-0.120082,0.015190,0.021117,-0.120082,0.220055,-0.615236,0.486679,-1.270816,1.237151,-15.575993
1790548508.0088,0.013251,0.019319,-0.109635,0.013833,0.019858,-0.109635,0.210342,-0.022735,1.035471,1.373815,3.393591,-12.199420
1790548508.0227,0.006811,0.014504,-0.091009,0.008918,0.016110,-0.091009,0.348754,0.146031,1.414283,0.645583,1.646131,-10.530539
1790548508.0366,0.002294,0.011629,-0.077205,0.004281,0.012973,-0.077205,0.336612,-0.032448,1.493202,0.875551,2.873071,-7.425644
1790548508.0505,0.007775,0.014608,-0.062380,0.006727,0.014118,-0.062380,-0.045842,-0.338412,1.226091,-2.573967,2.129471,-4.049070
1790548508.0645,0.002387,0.016144,-0.051103,0.003689,0.015536,-0.051103,0.000295,0.149673,1.002689,0.530599,2.687171,-7.270399
1790548508.0783,0.003441,0.013409,-0.037312,0.003515,0.014047,-0.037312,0.161776,-0.315343,0.836351,1.373815,1.497411,-12.820399
1790548508.0922,0.011896,0.016379,-0.024410,0.009382,0.015680,-0.024410,-0.193968,-0.754862,0.807212,-0.772552,2.873071,-14.023546
1790548508.1063,0.023349,0.024477,-0.013314,0.019159,0.021838,-0.013314,-0.544855,-0.910273,0.639660,-1.270816,2.538451,-11.462007
1790548508.1200,0.034275,0.031725,-0.003788,0.029740,0.028759,-0.003788,-0.493861,-1.032901,0.480608,1.297159,1.943571,-8.551168
1790548508.1341,0.042521,0.036920,0.002326,0.038687,0.034472,0.002326,-0.355449,-0.762147,0.243850,1.143847,1.869211,-8.861658
1790548508.1480,0.042633,0.033793,0.004742,0.041449,0.033996,0.004742,0.192129,-0.130793,0.020448,1.488799,1.646131,-10.491728
1790548508.1619,0.035945,0.024168,-0.006950,0.037596,0.027117,-0.006950,0.754277,0.577051,-0.425142,-0.389272,3.579491,-10.103616
1790548508.1759,0.023952,0.016357,-0.022641,0.028046,0.019585,-0.022641,0.702069,0.910940,-0.421500,0.415615,4.174371,-8.240679
1790548508.1898,0.017057,0.006369,-0.037628,0.020353,0.010334,-0.037628,0.840481,0.651114,-0.451853,-1.040848,3.505131,-8.124245
1790548508.2038,0.006193,-0.001726,-0.053772,0.010441,0.001892,-0.053772,0.716639,0.946151,-0.502847,-1.040848,3.542311,-7.736133
1790548508.2178,-0.002332,-0.008742,-0.067697,0.001500,-0.005552,-0.067697,0.635291,0.802882,-0.387504,-1.769080,3.579491,-8.512357
1790548508.2316,-0.002399,-0.011638,-0.076263,-0.001230,-0.009812,-0.076263,0.441029,0.197025,-0.406930,-2.190688,5.698751,-9.055714
1790548508.2455,0.003205,-0.009945,-0.083036,0.001875,-0.009905,-0.083036,-0.050699,-0.323842,-0.734748,0.722239,4.100011,-13.519000
1790548508.2596,0.006034,-0.004760,-0.085855,0.004786,-0.006303,-0.085855,-0.391873,-0.147791,-0.915656,2.178703,2.315371,-14.722147
1790548508.2735,0.001152,-0.002568,-0.078513,0.002243,-0.003688,-0.078513,-0.285028,0.337865,-0.828237,2.446998,-0.138509,-9.793126
1790548508.2876,-0.003457,-0.001053,-0.062509,-0.001747,-0.001843,-0.062509,-0.304455,0.206738,-0.545342,2.485326,-0.993649,-6.610609
1790548508.3015,-0.007030,0.002482,-0.062713,-0.005445,0.001184,-0.062713,-0.357877,0.284443,-0.579338,0.952207,0.121751,-7.503266
1790548508.3156,-0.005072,0.000514,-0.066500,-0.005184,0.000715,-0.066500,-0.006990,-0.009379,-0.772387,0.108991,-0.696209,-11.733686
1790548508.3301,-0.007093,-0.003205,-0.072842,-0.006520,-0.002029,-0.072842,0.184845,0.192168,-0.774815,1.335487,0.530731,-9.055714
1790548508.3439,0.003187,-0.006562,-0.075175,0.000275,-0.005202,-0.075175,0.175131,-0.657731,-0.562340,-0.082648,0.567911,-8.279490
1790548508.3576,0.014916,-0.012009,-0.075297,0.010524,-0.009967,-0.075297,0.315972,-0.775503,-0.399645,-0.619240,0.493551,-10.763406
1790548508.3720,0.025931,-0.017801,-0.075874,0.021309,-0.015451,-0.075874,0.388821,-0.748792,-0.226023,-0.197632,1.348691,-9.521448
1790548508.3864,0.021271,-0.014107,-0.086160,0.021282,-0.014510,-0.086160,-0.181826,0.244376,-0.121607,1.527127,3.021791,-9.987182
1790548508.4004,0.012635,-0.001542,-0.085540,0.015229,-0.005432,-0.085540,-0.939451,0.668112,0.086012,-1.500784,1.460231,-13.208511
1790548508.4142,0.013290,0.009078,-0.087656,0.013872,0.004725,-0.087656,-0.850819,0.097465,0.172216,-3.225543,0.382011,-10.142427
1790548508.4282,0.012230,0.014639,-0.086162,0.012722,0.011665,-0.086162,-0.512073,0.180027,0.186785,-1.884064,-0.064149,-7.503266
1790548508.4422,-0.000458,0.019595,-0.085469,0.003496,0.017216,-0.085469,-0.359091,0.859946,0.211068,0.262303,1.608951,-8.395923
1790548508.4561,0.003999,0.016648,-0.077902,0.003848,0.016818,-0.077902,0.122923,-0.299559,0.467252,-2.305671,0.419191,-11.035084
1790548508.4702,0.013136,0.008091,-0.062929,0.010350,0.010709,-0.062929,0.524804,-0.797357,0.795071,-0.772552,0.307651,-14.838581
1790548508.4841,0.000321,0.009614,-0.055552,0.003330,0.009943,-0.055552,-0.039772,0.550340,1.250374,2.140375,2.426911,-8.745224
1790548508.4980,-0.011143,0.004346,-0.036906,-0.006801,0.006025,-0.036906,0.267406,0.473849,1.417926,1.488799,-0.101329,-8.939280
1790548508.5119,-0.012447,0.001183,-0.037341,-0.010753,0.002636,-0.037341,0.437386,-0.059159,1.149600,-0.695896,4.211551,-7.192776
1790548508.5258,-0.019750,0.000744,-0.027615,-0.017051,0.001312,-0.027615,0.057360,0.256518,0.961408,1.910407,2.464091,-10.452916
1790548508.5398,-0.018677,-0.003833,-0.014765,-0.018189,-0.002289,-0.014765,0.288047,-0.190286,0.779287,-0.389272,1.460231,-11.733686
1790548508.5537,-0.013465,-0.005553,-0.002312,-0.014882,-0.004574,-0.002312,0.092570,-0.452541,0.724650,-1.002520,1.646131,-12.238231
1790548508.5674,-0.002656,0.000509,0.006636,-0.006324,-0.001016,0.006636,-0.410085,-0.887204,0.615378,-0.542584,2.649991,-11.151518
1790548508.5810,0.009217,0.007919,0.012032,0.004555,0.005239,0.012032,-0.480505,-0.970980,0.421115,-0.044320,2.352551,-8.318301
1790548508.5949,0.017467,0.011802,0.015379,0.013593,0.009833,0.015379,-0.249818,-0.794929,0.257206,1.757095,1.832031,-8.124245
1790548508.6089,0.021112,0.012307,0.016894,0.018857,0.011564,0.016894,-0.028844,-0.384549,0.086012,1.258831,1.794851,-9.094525
1790548508.6230,0.018013,0.002317,0.016038,0.018266,0.005091,0.016038,0.626792,0.296585,-0.314655,-0.657568,0.865351,-13.790679
1790548508.6371,0.012686,-0.003880,-0.007489,0.014360,-0.001188,-0.007489,0.654718,0.606191,-0.374148,-2.382327,4.508991,-7.076343
1790548508.6509,0.006075,-0.012719,-0.017782,0.008561,-0.009260,-0.017782,0.722710,0.623189,-0.280659,-1.309144,2.501271,-7.658511
1790548508.6650,-0.000903,-0.021955,-0.030167,0.001936,-0.018146,-0.030167,0.768847,0.689967,-0.379005,-1.577440,2.538451,-6.998721
1790548508.6789,-0.006279,-0.031003,-0.041910,-0.003814,-0.027146,-0.041910,0.692356,0.547912,-0.555055,-1.615768,2.947431,-12.936833
1790548508.6928,-0.003038,-0.029915,-0.048315,-0.003271,-0.029084,-0.048315,-0.020345,-0.186644,-0.461566,0.492271,4.397451,-17.555364
1790548508.7068,0.003449,-0.024572,-0.060483,0.001433,-0.025926,-0.060483,-0.406443,-0.316557,-0.925369,-0.504256,1.869211,-14.528091
1790548508.7206,0.003398,-0.019610,-0.071541,0.002808,-0.021505,-0.071541,-0.300812,0.086538,-0.864662,0.453943,1.646131,-5.950818
1790548508.7345,-0.007013,-0.014630,-0.068959,-0.004067,-0.016692,-0.068959,-0.425869,0.662041,-0.735963,2.715294,0.456371,-7.464455
1790548508.7486,-0.012400,-0.009855,-0.067752,-0.009900,-0.011906,-0.067752,-0.465936,0.363362,-0.597550,1.910407,-0.398769,-9.055714
1790548508.7641,-0.015023,-0.007267,-0.073365,-0.013486,-0.008659,-0.073365,-0.291099,0.309940,-0.727464,-0.197632,-0.733389,-12.082986
1790548508.7790,-0.015454,-0.009217,-0.080348,-0.014863,-0.009050,-0.080348,0.010008,0.159387,-0.844021,0.377287,-0.584669,-11.151518
1790548508.7930,-0.008419,-0.013977,-0.085028,-0.010352,-0.012499,-0.085028,0.224911,-0.405190,-0.754175,0.338959,-0.250049,-8.900469
1790548508.8072,0.003720,-0.023418,-0.088403,-0.000502,-0.020142,-0.088403,0.543017,-0.735436,-0.694682,-0.389272,-0.398769,-9.055714
1790548508.8221,0.020070,-0.034364,-0.092653,0.013899,-0.030097,-0.092653,0.663217,-0.994048,-0.638831,-0.580912,0.307651,-8.978091
1790548508.8358,0.016642,-0.033147,-0.102484,0.015819,-0.032232,-0.102484,-0.064054,0.211595,-0.360793,1.795423,2.835891,-14.023546
1790548508.8496,0.005798,-0.015327,-0.105757,0.008805,-0.020399,-0.105757,-1.302479,0.869660,-0.181100,-1.615768,2.426911,-16.779140
1790548508.8640,0.010054,-0.002953,-0.105709,0.009679,-0.008187,-0.105709,-0.933380,-0.136864,-0.227237,-3.225543,0.716631,-14.062357
1790548508.8780,0.008971,0.001991,-0.104878,0.009183,-0.001063,-0.104878,-0.459865,0.209166,-0.138605,-1.117504,0.047391,-5.912007
1790548508.8920,-0.001688,0.010279,-0.107464,0.001573,0.006876,-0.107464,-0.556996,0.835664,-0.020833,-0.657568,1.571771,-6.222497
1790548508.9059,-0.014963,0.025647,-0.105789,-0.010002,0.020016,-0.105789,-1.143427,0.966791,0.208640,-0.312616,0.939711,-6.532986
1790548508.9200,0.000526,0.019636,-0.095374,-0.002632,0.019750,-0.095374,0.292903,-1.183455,0.445398,-1.232488,-0.547489,-18.719700
1790548508.9338,0.003188,0.018669,-0.092766,0.001442,0.018993,-0.092766,0.165418,-0.538745,0.954123,2.063719,2.873071,-8.279490
1790548508.9477,-0.012494,0.015872,-0.093339,-0.008313,0.016808,-0.093339,0.269835,0.612262,1.382715,3.328542,2.055111,-6.765853
1790548508.9616,-0.026278,0.013452,-0.100953,-0.020888,0.014459,-0.100953,0.483524,0.591621,1.285584,1.297159,2.910251,-3.117602
1790548508.9755,-0.027611,0.009596,-0.091217,-0.025594,0.011055,-0.091217,0.302616,-0.049446,0.873990,-0.120976,2.203831,-8.395923
1790548508.9894,-0.035618,0.008683,-0.080970,-0.032611,0.009394,-0.080970,0.137493,0.231021,0.927412,3.443526,3.467951,-9.715504
1790548509.0033,-0.031581,0.002911,-0.067385,-0.031890,0.004856,-0.067385,0.369394,-0.388192,0.797499,-0.964192,2.129471,-14.605714
1790548509.0173,-0.023366,0.007047,-0.057955,-0.025923,0.006390,-0.057955,-0.270459,-0.712368,0.757432,-0.389272,3.430771,-13.169700
1790548509.0307,-0.010584,0.016969,-0.052705,-0.015186,0.013795,-0.052705,-0.645629,-1.052327,0.594737,-0.427600,3.505131,-9.637881
1790548509.0444,0.001686,0.024241,-0.042480,-0.003376,0.021107,-0.042480,-0.468364,-1.149459,0.469681,1.872079,2.538451,-8.163056
1790548509.0584,0.007651,0.027802,-0.029569,0.004343,0.025794,-0.029569,-0.282600,-0.638305,0.298487,2.063719,1.460231,-9.366203
1790548509.0724,0.006057,0.025167,-0.031331,0.005543,0.025355,-0.031331,0.203057,0.146031,0.007092,-0.657568,2.315371,-10.064805
1790548509.0862,0.001902,0.015064,-0.044164,0.002995,0.018151,-0.044164,0.834411,0.454423,-0.284302,-1.730752,3.988471,-10.336483
1790548509.1002,-0.007174,0.010907,-0.057724,-0.004123,0.013080,-0.057724,0.527233,0.669326,-0.306156,0.760567,5.029511,-7.697322
1790548509.1148,-0.011369,-0.000135,-0.072375,-0.009195,0.003829,-0.072375,0.856265,0.470207,-0.381433,-1.462456,2.798711,-8.007811
1790548509.1287,-0.020791,-0.008152,-0.089367,-0.017312,-0.004558,-0.089367,0.737279,0.897585,-0.505276,-1.500784,3.319231,-7.153965
1790548509.1426,-0.020522,-0.012809,-0.103835,-0.019559,-0.010334,-0.103835,0.528447,0.250447,-0.643688,-2.305671,4.174371,-8.124245
1790548509.1566,-0.011053,-0.011790,-0.117127,-0.013604,-0.011353,-0.117127,-0.023988,-0.488965,-0.636403,-2.152360,3.653851,-15.071448
1790548509.1705,-0.005793,-0.009458,-0.126253,-0.008137,-0.010027,-0.126253,-0.145402,-0.267992,-1.010359,0.990535,2.464091,-11.733686
1790548509.1844,-0.007565,-0.007540,-0.129300,-0.007737,-0.008286,-0.129300,-0.151473,0.186098,-0.944795,1.488799,1.423051,-9.055714
1790548509.1984,-0.013500,-0.006949,-0.108034,-0.011771,-0.007350,-0.108034,-0.186683,0.352435,-0.800312,3.021918,-0.547489,-8.551168
1790548509.2125,-0.017427,-0.004325,-0.097780,-0.015730,-0.005233,-0.097780,-0.315382,0.232235,-0.666756,2.293686,-0.324409,-8.124245
1790548509.2264,-0.019679,-0.003080,-0.098159,-0.018494,-0.003726,-0.098159,-0.186683,0.217665,-0.757817,1.258831,0.084571,-9.133336
1790548509.2402,-0.017792,-0.007028,-0.104888,-0.018002,-0.006037,-0.104888,0.170275,0.061041,-0.916870,-0.580912,-0.324409,-10.530539
1790548509.2538,-0.011391,-0.013742,-0.110873,-0.013375,-0.011430,-0.110873,0.393677,-0.306844,-0.884088,-0.274288,-0.026969,-8.667602
1790548509.2675,0.002968,-0.022069,-0.116059,-0.001935,-0.018877,-0.116059,0.517520,-0.888418,-0.745676,-0.772552,0.121751,-8.163056
1790548509.2815,0.018225,-0.031287,-0.123279,0.012177,-0.027564,-0.123279,0.641362,-0.979479,-0.657043,-0.542584,1.348691,-9.676693
1790548509.2954,0.011554,-0.031864,-0.128557,0.011741,-0.030574,-0.128557,0.023364,0.475063,-0.415429,1.373815,1.943571,-14.217602
1790548509.3094,0.002969,-0.014153,-0.134194,0.005601,-0.019079,-0.134194,-1.270912,0.685110,-0.233308,-0.925864,3.058971,-17.671798
1790548509.3234,0.003825,-0.001951,-0.137997,0.004357,-0.007090,-0.137997,-1.048724,0.137532,-0.193241,-3.072231,-1.328269,-10.414105
1790548509.3373,0.002933,0.001468,-0.144778,0.003360,-0.001099,-0.144778,-0.531499,0.282015,-0.062114,-1.577440,-1.476988,-4.049070
1790548509.3515,-0.009178,0.008041,-0.144473,-0.005416,0.005299,-0.144473,-0.571566,0.963149,0.033804,-0.772552,0.010211,-4.592427
1790548509.3658,-0.025005,0.023344,-0.144933,-0.019129,0.017930,-0.144933,-1.083934,1.241187,0.183143,-1.922392,1.460231,-8.085434
1790548509.3800,-0.011488,0.016831,-0.137158,-0.013780,0.017161,-0.137158,0.257693,-0.911487,0.504891,-5.831846,-3.150088,-21.281238
1790548509.3940,-0.005709,0.008030,-0.123081,-0.008130,0.010769,-0.123081,0.550301,-0.572741,0.903129,-0.695896,0.902531,-16.856763
1790548509.4079,-0.020364,0.005160,-0.127125,-0.016694,0.006843,-0.127125,0.187273,0.545484,1.240661,3.750150,1.014071,-6.804665
1790548509.4218,-0.028273,-0.000006,-0.106123,-0.024799,0.002048,-0.106123,0.455598,0.397358,1.523556,-0.925864,2.315371,-6.106063
1790548509.4358,-0.024339,-0.003904,-0.083801,-0.024477,-0.002118,-0.083801,0.266192,-0.226711,1.145958,-2.497311,1.051251,-5.446273
1790548509.4497,-0.033122,-0.004727,-0.072825,-0.030529,-0.003944,-0.072825,0.012436,0.342722,1.115604,1.795423,1.237151,-9.443825
1790548509.4638,-0.028513,-0.011255,-0.056536,-0.029118,-0.009061,-0.056536,0.354825,-0.453755,1.003903,-0.887536,0.382011,-14.101168
1790548509.4777,-0.022540,-0.007924,-0.039039,-0.024513,-0.008265,-0.039039,-0.193968,-0.566670,1.054897,-0.695896,2.984611,-10.414105
1790548509.4913,-0.011058,-0.000336,-0.022753,-0.015094,-0.002715,-0.022753,-0.475649,-0.966123,0.915271,-0.657568,2.798711,-8.318301
1790548509.5049,0.001113,0.007478,-0.010970,-0.003749,0.004420,-0.010970,-0.468364,-1.088752,0.723436,0.530599,2.910251,-7.891378
1790548509.5188,0.006072,0.011289,-0.007466,0.003126,0.009228,-0.007466,-0.275315,-0.584883,0.407759,2.370342,1.832031,-10.336483
1790548509.5328,0.015404,0.013875,-0.003172,0.011720,0.012481,-0.003172,-0.087123,-0.712368,0.198927,-0.350944,3.319231,-9.249770
1790548509.5466,0.010117,0.006182,-0.007221,0.010598,0.008072,-0.007221,0.489594,0.384003,-0.183528,0.722239,1.274331,-15.343126
1790548509.5605,0.006325,-0.002205,-0.015350,0.007607,0.000878,-0.015350,0.717853,0.398572,-0.482207,-0.542584,2.873071,-7.115154
1790548509.5745,-0.001397,-0.008465,-0.025579,0.001304,-0.005662,-0.025579,0.671716,0.595264,-0.467637,0.530599,3.988471,-6.377742
1790548509.5884,-0.008708,-0.016113,-0.037113,-0.005704,-0.012978,-0.037113,0.712996,0.691181,-0.579338,-0.887536,3.839751,-8.279490
1790548509.6024,-0.012368,-0.027479,-0.050956,-0.010369,-0.023129,-0.050956,0.897546,0.468993,-0.783314,-1.500784,3.319231,-11.073895
1790548509.6167,-0.006113,-0.027538,-0.062429,-0.007390,-0.026215,-0.062429,0.073144,-0.327484,-0.944795,0.722239,4.211551,-15.459560
1790548509.6307,0.001036,-0.022407,-0.079321,-0.001492,-0.023549,-0.079321,-0.346950,-0.310486,-1.242260,-0.504256,2.835891,-13.984735
1790548509.6446,-0.002823,-0.022869,-0.093009,-0.002424,-0.023073,-0.093009,-0.060412,0.354863,-1.146343,1.488799,0.121751,-8.900469
1790548509.6585,-0.008210,-0.022528,-0.104844,-0.006474,-0.022692,-0.104844,-0.174541,0.434997,-0.983648,1.105519,-0.547489,-5.950818
1790548509.6724,-0.010430,-0.020576,-0.114508,-0.009244,-0.021211,-0.114508,-0.299598,0.198239,-0.817310,1.297159,-0.919289,-8.279490
1790548509.6863,-0.010330,-0.021920,-0.125618,-0.010004,-0.021707,-0.125618,-0.005776,0.070754,-0.899872,1.143847,-0.175689,-10.569350
1790548509.7002,-0.008206,-0.025469,-0.137431,-0.008745,-0.024340,-0.137431,0.169061,-0.008165,-0.965435,0.070663,0.084571,-10.763406
1790548509.7140,0.000276,-0.029379,-0.145928,-0.002430,-0.027867,-0.145928,0.213984,-0.492608,-0.783314,-0.235960,0.382011,-9.599070
1790548509.7276,0.010542,-0.035158,-0.151596,0.006650,-0.032971,-0.151596,0.363324,-0.705083,-0.558698,0.223975,0.493551,-8.822846
1790548509.7416,0.021251,-0.042074,-0.155326,0.016871,-0.039343,-0.155326,0.465311,-0.729366,-0.393574,-0.120976,0.865351,-8.861658
1790548509.7555,0.021922,-0.042984,-0.159350,0.020407,-0.041892,-0.159350,0.079214,-0.050660,-0.222380,0.262303,1.943571,-11.462007
1790548509.7695,0.014533,-0.028859,-0.159708,0.016295,-0.032769,-0.159708,-1.020798,0.584336,-0.000192,-1.500784,1.980751,-14.295224
1790548509.7835,0.014172,-0.016079,-0.157271,0.014809,-0.021086,-0.157271,-1.013514,0.183669,0.027733,-3.033903,-0.138509,-10.181238
1790548509.7974,0.012119,-0.010811,-0.156306,0.012926,-0.013894,-0.156306,-0.553354,0.296585,0.041088,-2.229015,-1.105189,-7.891378
1790548509.8114,-0.000227,-0.000636,-0.157410,0.003719,-0.004613,-0.157410,-0.735475,0.910940,0.032589,-0.235960,1.014071,-5.950818
1790548509.8253,-0.010271,0.014642,-0.155143,-0.006074,0.008865,-0.155143,-1.176209,0.839306,0.141862,-1.692424,0.419191,-7.736133
1790548509.8394,0.009824,0.014795,-0.143753,0.005055,0.013016,-0.143753,-0.105335,-1.347364,0.401689,-4.490366,0.233291,-13.363756
1790548509.8537,0.012538,0.012874,-0.137562,0.010293,0.012917,-0.137562,0.201843,-0.458612,0.755004,1.910407,2.984611,-10.414105
1790548509.8681,-0.005479,0.011250,-0.133754,-0.000748,0.011750,-0.133754,0.176346,0.782241,1.345077,3.251886,2.166651,-7.580888
1790548509.8823,-0.011593,0.011183,-0.112232,-0.008340,0.011353,-0.112232,0.246766,0.436211,1.108319,-1.884064,3.133331,-4.243126
1790548509.8964,-0.009866,0.008853,-0.097846,-0.009408,0.009603,-0.097846,0.192129,-0.282561,0.920127,-0.159304,1.497411,-6.183686
1790548509.9104,-0.013739,0.006878,-0.088343,-0.012440,0.007695,-0.088343,0.162990,-0.010593,0.876418,2.063719,2.129471,-9.249770
1790548509.9245,-0.013472,0.003730,-0.075792,-0.013163,0.004920,-0.075792,0.228554,-0.152648,0.848493,-0.465928,2.724351,-13.635434
1790548509.9384,-0.005429,0.009623,-0.062885,-0.007749,0.008212,-0.062885,-0.365162,-0.702654,0.745291,-0.465928,3.244871,-11.073895
1790548509.9519,0.007303,0.015992,-0.051570,0.002787,0.013658,-0.051570,-0.384588,-1.109392,0.605664,0.338959,2.761531,-8.318301
1790548509.9655,0.020899,0.020899,-0.041210,0.015465,0.018727,-0.041210,-0.304455,-1.156744,0.531602,0.185647,2.129471,-7.930189
1790548509.9795,0.026682,0.024145,-0.035849,0.023317,0.022520,-0.035849,-0.274101,-0.554529,0.348266,0.645583,1.088431,-9.948371
1790548509.9934,0.026000,0.020292,-0.033544,0.025196,0.020960,-0.033544,0.211556,-0.022735,0.221996,0.108991,0.790991,-10.181238
1790548510.0074,0.019587,0.012224,-0.037394,0.021270,0.014845,-0.037394,0.651075,0.544270,-0.199312,-1.040848,3.765391,-10.996273
1790548510.0214,0.013005,0.004807,-0.044216,0.015484,0.007818,-0.044216,0.670501,0.628045,-0.386290,-1.424128,4.174371,-8.939280
1790548510.0353,0.003413,-0.005587,-0.049157,0.007035,-0.001565,-0.049157,0.890261,0.728819,-0.287944,0.185647,3.542311,-7.774944
1790548510.0492,-0.005626,-0.013625,-0.054907,-0.001828,-0.010007,-0.054907,0.697213,0.750674,-0.270946,-0.580912,2.835891,-7.464455
1790548510.0630,-0.015513,-0.018584,-0.063629,-0.011407,-0.016011,-0.063629,0.564871,0.886658,-0.311013,-1.424128,3.951291,-7.115154
1790548510.0769,-0.007045,-0.013624,-0.070884,-0.008354,-0.014340,-0.070884,-0.269245,-0.447685,-0.397217,-2.305671,4.100011,-12.820399
1790548510.0908,-0.004813,-0.008103,-0.078518,-0.005875,-0.009974,-0.078518,-0.291099,-0.028806,-0.715322,-0.389272,4.917971,-13.596623
1790548510.1048,-0.006528,-0.003356,-0.090006,-0.006332,-0.005341,-0.090006,-0.374875,0.226164,-0.939938,1.220503,1.460231,-12.238231
1790548510.1191,-0.013584,0.001010,-0.101118,-0.011408,-0.000895,-0.101118,-0.378517,0.535771,-0.976363,2.293686,0.456371,-9.366203
1790548510.1330,-0.019148,0.006268,-0.111318,-0.016826,0.004119,-0.111318,-0.530285,0.391288,-0.802740,1.795423,-0.547489,-6.222497
1790548510.1470,-0.026763,0.012088,-0.122649,-0.023782,0.009697,-0.122649,-0.526643,0.628045,-0.732320,1.105519,-0.138509,-8.784035
1790548510.1610,-0.024187,0.014171,-0.140808,-0.024065,0.012829,-0.140808,-0.264388,0.104750,-1.051639,-1.539112,-0.435949,-12.121798
1790548510.1747,-0.021476,0.014958,-0.155515,-0.022253,0.014320,-0.155515,-0.118691,-0.016664,-1.063781,0.492271,0.679451,-9.870749
1790548510.1884,-0.010921,0.016052,-0.165213,-0.014321,0.015532,-0.165213,-0.151473,-0.611594,-0.789385,-0.235960,0.567911,-8.201867
1790548510.2024,-0.001488,0.014633,-0.173558,-0.005338,0.014902,-0.173558,0.024578,-0.520533,-0.653401,-0.542584,0.530731,-8.007811
1790548510.2163,0.005042,0.015186,-0.179151,0.001928,0.015101,-0.179151,-0.019131,-0.388192,-0.495562,-0.005993,2.203831,-9.249770
1790548510.2303,0.008641,0.017725,-0.183605,0.006627,0.016938,-0.183605,-0.187897,-0.243709,-0.354722,0.760567,2.241011,-11.423196
1790548510.2442,0.002712,0.025039,-0.189237,0.003886,0.022609,-0.189237,-0.549711,0.450781,-0.300086,0.837223,2.315371,-13.208511
1790548510.2582,-0.005633,0.036592,-0.193035,-0.002777,0.032397,-0.193035,-0.811966,0.609833,-0.137390,0.415615,2.426911,-10.220049
1790548510.2724,-0.000377,0.038618,-0.190778,-0.001097,0.036752,-0.190778,-0.210966,-0.329913,0.093296,-1.577440,1.274331,-12.626343
1790548510.2865,0.002706,0.027837,-0.183359,0.001565,0.030511,-0.183359,0.708140,-0.453755,0.566812,1.412143,0.828171,-8.357112
1790548510.3005,-0.004409,0.020176,-0.172097,-0.002617,0.023277,-0.172097,0.615865,0.207952,1.005117,1.488799,2.612811,-8.395923
1790548510.3144,-0.014984,0.012717,-0.154932,-0.011274,0.015885,-0.154932,0.560015,0.432568,1.413069,1.105519,2.203831,-9.405014
1790548510.3283,-0.022659,0.006236,-0.135667,-0.019243,0.009131,-0.135667,0.518734,0.238306,1.546625,0.415615,2.055111,-6.610609
1790548510.3422,-0.016898,0.009357,-0.115234,-0.017601,0.009289,-0.115234,-0.167257,-0.544816,1.487132,-2.037376,2.538451,-7.658511
1790548510.3563,-0.014511,0.011314,-0.095094,-0.015438,0.010707,-0.095094,-0.172113,-0.342054,1.406998,-1.079176,1.051251,-6.765853
1790548510.3706,-0.017850,0.010728,-0.078320,-0.017127,0.010722,-0.078320,-0.082267,-0.066444,1.188453,1.833751,-0.101329,-13.402567
1790548510.3845,-0.008282,0.009883,-0.061021,-0.010935,0.010135,-0.061021,0.028220,-0.866564,1.069467,-0.734224,1.943571,-13.286133
1790548510.3985,0.002915,0.017321,-0.045414,-0.001240,0.015165,-0.045414,-0.520572,-0.919986,0.916485,-1.539112,2.352551,-11.112707
1790548510.4121,0.017786,0.025541,-0.032965,0.012078,0.022428,-0.032965,-0.629845,-1.140960,0.659087,-1.922392,1.311511,-9.599070
1790548510.4256,0.030622,0.033008,-0.026482,0.025059,0.029834,-0.026482,-0.539998,-1.098465,0.313056,0.453943,1.608951,-7.774944
1790548510.4396,0.030316,0.029598,-0.027793,0.028739,0.029669,-0.027793,0.182416,-0.156290,0.054444,2.983590,1.199971,-12.393476
1790548510.4536,0.027524,0.020956,-0.031896,0.027888,0.023570,-0.031896,0.716639,0.194597,-0.179885,0.415615,3.876931,-9.754315
1790548510.4674,0.021393,0.014459,-0.036807,0.023341,0.017192,-0.036807,0.613437,0.518773,-0.207811,-0.734224,4.583351,-9.599070
1790548510.4813,0.016308,0.005008,-0.042779,0.018418,0.008663,-0.042779,0.745778,0.485991,-0.308585,-1.117504,2.984611,-9.288581
1790548510.4952,0.007149,-0.002851,-0.049761,0.010530,0.000604,-0.049761,0.702069,0.798025,-0.331653,-1.117504,3.505131,-7.774944
1790548510.5092,-0.003328,-0.008432,-0.054318,0.000829,-0.005721,-0.054318,0.568514,0.847805,-0.194455,-0.772552,3.802571,-7.697322
1790548510.5231,0.000094,-0.008900,-0.060751,0.000314,-0.007946,-0.060751,0.228554,-0.045804,-0.320726,-3.148887,5.996190,-10.685784
1790548510.5370,0.008121,-0.006467,-0.067121,0.005779,-0.006911,-0.067121,-0.158758,-0.467111,-0.438498,-1.079176,2.575631,-12.354665
1790548510.5510,0.002347,0.000698,-0.067445,0.003377,-0.001584,-0.067445,-0.439224,0.380360,-0.627904,2.791950,3.728211,-11.306763
1790548510.5650,0.001862,0.000695,-0.073925,0.002317,0.000011,-0.073925,-0.105335,0.073182,-0.686183,1.488799,0.158931,-11.384385
1790548510.5788,-0.001281,0.001146,-0.074535,-0.000202,0.000806,-0.074535,-0.168471,0.092609,-0.655829,2.753622,-0.324409,-6.183686
1790548510.5928,-0.013377,0.004027,-0.075813,-0.009424,0.003061,-0.075813,-0.310525,0.636544,-0.359578,3.980118,-0.101329,-6.765853
1790548510.6068,-0.013535,0.005452,-0.079502,-0.012302,0.004735,-0.079502,-0.232820,0.098679,-0.485849,0.108991,-0.435949,-11.073895
1790548510.6213,-0.014552,0.003264,-0.085258,-0.013877,0.003705,-0.085258,0.059788,0.131461,-0.595122,0.952207,0.196111,-10.452916
1790548510.6349,-0.010511,-0.001094,-0.089620,-0.011521,0.000346,-0.089620,0.263764,-0.218212,-0.500419,0.147319,0.790991,-9.288581
1790548510.6486,-0.000618,-0.008670,-0.092609,-0.003889,-0.005965,-0.092609,0.443457,-0.606737,-0.499205,-0.734224,-0.101329,-10.064805
1790548510.6626,0.010701,-0.016663,-0.096494,0.006324,-0.013453,-0.096494,0.534518,-0.763361,-0.473708,0.147319,0.939711,-8.706413
1790548510.6765,0.021605,-0.020241,-0.102233,0.017020,-0.018205,-0.102233,0.279548,-0.809499,-0.389932,0.913879,1.869211,-9.016902
1790548510.6904,0.018458,-0.016570,-0.111788,0.018026,-0.017060,-0.111788,-0.226750,0.199453,-0.411787,1.488799,2.724351,-11.035084
1790548510.7044,0.008300,0.000071,-0.117071,0.011218,-0.005068,-0.117071,-1.204134,0.851447,-0.205382,-1.999048,2.203831,-13.286133
1790548510.7184,0.008989,0.012763,-0.121630,0.009658,0.007414,-0.121630,-1.017156,0.194597,-0.154388,-3.762135,-0.026969,-9.521448
1790548510.7324,0.007096,0.017783,-0.122133,0.007865,0.014672,-0.122133,-0.521786,0.268659,-0.053615,-1.539112,-0.584669,-7.153965
1790548510.7464,0.005334,0.025032,-0.122449,0.006093,0.021924,-0.122449,-0.520572,0.297799,0.035018,-2.535639,1.608951,-7.930189
1790548510.7604,0.010014,0.022756,-0.114010,0.008838,0.022506,-0.114010,0.054931,-0.457398,0.581382,-0.274288,0.047391,-12.432287
1790548510.7742,0.010449,0.023047,-0.100587,0.009966,0.022885,-0.100587,0.018507,-0.275276,1.016044,0.453943,2.649991,-11.112707
1790548510.7883,0.002416,0.017850,-0.091629,0.004681,0.019360,-0.091629,0.345111,0.088966,1.353576,2.791950,0.828171,-7.425644
1790548510.8023,-0.003988,0.015263,-0.078522,-0.001388,0.016492,-0.078522,0.411889,0.319653,1.339006,-1.960720,5.326951,-8.201867
1790548510.8162,-0.007617,0.016991,-0.064256,-0.005748,0.016841,-0.064256,-0.020345,0.107178,1.142315,-0.925864,3.207691,-8.395923
1790548510.8300,-0.007207,0.015339,-0.048953,-0.006769,0.015790,-0.048953,0.053717,-0.227925,1.046398,-0.159304,0.939711,-11.035084
1790548510.8450,0.001539,0.015515,-0.032293,-0.000953,0.015597,-0.032293,-0.034915,-0.751220,0.957766,-0.887536,1.869211,-12.975644
1790548510.8597,0.011694,0.024253,-0.016209,0.007900,0.021657,-0.016209,-0.577637,-0.883562,0.932269,-0.389272,2.426911,-11.772497
1790548510.8740,0.028556,0.033956,-0.002187,0.022359,0.030266,-0.002187,-0.627416,-1.338865,0.714937,-0.542584,2.092291,-8.085434
1790548510.8879,0.040826,0.042681,0.007848,0.035286,0.038957,0.007848,-0.584921,-1.117891,0.568026,0.837223,2.017931,-8.473546
1790548510.9030,0.038368,0.038716,0.010045,0.037443,0.038788,0.010045,0.212770,0.050114,0.189214,1.028863,1.385871,-12.199420
1790548510.9171,0.035385,0.029150,0.007385,0.036002,0.032041,0.007385,0.692356,0.251661,-0.125249,-0.695896,2.947431,-11.927742
1790548510.9306,0.025336,0.020839,0.001867,0.028536,0.024199,0.001867,0.711782,0.747031,-0.115536,0.185647,3.393591,-8.667602
1790548510.9446,0.018668,0.006858,-0.003375,0.021628,0.012060,-0.003375,1.043243,0.620760,-0.221166,-1.577440,2.389731,-8.667602
1790548510.9586,0.009136,-0.001373,-0.010406,0.012884,0.002657,-0.010406,0.717853,0.861161,-0.236950,-1.615768,2.835891,-6.416553
1790548510.9725,-0.003415,-0.007792,-0.013550,0.001475,-0.004657,-0.013550,0.606152,0.975290,-0.018405,-0.810880,3.579491,-8.201867
1790548510.9865,-0.000102,-0.019971,-0.016593,0.000371,-0.015377,-0.016593,0.929114,-0.106511,-0.081540,-2.880591,3.542311,-13.441378
1790548511.0004,0.007483,-0.019151,-0.021750,0.005349,-0.018019,-0.021750,-0.014275,-0.485323,-0.531987,0.262303,3.951291,-16.080539
1790548511.0144,0.007321,-0.015329,-0.030548,0.006730,-0.016136,-0.030548,-0.310525,0.054970,-0.769959,1.488799,1.534591,-12.509909
1790548511.0282,0.003093,-0.012078,-0.038066,0.004184,-0.013296,-0.038066,-0.319024,0.238306,-0.847664,2.830278,0.344831,-8.046623
1790548511.0422,-0.006011,-0.009062,-0.045043,-0.002952,-0.010332,-0.045043,-0.310525,0.510274,-0.721393,2.676966,0.047391,-5.407462
1790548511.0561,-0.016080,-0.003424,-0.050055,-0.012141,-0.005497,-0.050055,-0.516929,0.641401,-0.522274,2.715294,-0.175689,-8.473546
1790548511.0700,-0.017921,0.000465,-0.055959,-0.016187,-0.001323,-0.055959,-0.407657,0.266231,-0.698324,-0.005993,-0.510309,-11.966553
1790548511.0839,-0.017961,-0.000464,-0.063436,-0.017429,-0.000721,-0.063436,-0.053127,0.139960,-0.795456,0.262303,-0.398769,-12.199420
1790548511.0975,-0.012242,-0.004640,-0.068477,-0.013798,-0.003465,-0.068477,0.209127,-0.255850,-0.671613,-0.657568,0.084571,-8.745224
1790548511.1113,-0.000810,-0.011475,-0.071066,-0.004707,-0.009072,-0.071066,0.371823,-0.725723,-0.548985,-0.389272,-0.324409,-8.667602
1790548511.1256,0.009061,-0.017730,-0.075588,0.004931,-0.015133,-0.075588,0.388821,-0.685656,-0.396003,0.607255,0.716631,-8.395923
1790548511.1396,0.017408,-0.018598,-0.083186,0.013665,-0.017558,-0.083186,0.082857,-0.621307,-0.374148,0.990535,2.055111,-10.064805
1790548511.1536,0.016410,-0.014244,-0.089846,0.015586,-0.015238,-0.089846,-0.314168,0.057399,-0.306156,0.990535,2.055111,-12.044175
1790548511.1676,0.008854,-0.002290,-0.094158,0.010874,-0.006175,-0.094158,-0.854461,0.539413,-0.137390,0.492271,2.538451,-13.713056
1790548511.1815,0.008887,0.009540,-0.089563,0.009483,0.004825,-0.089563,-0.940665,0.171528,-0.035403,-2.688951,0.344831,-9.055714
1790548511.1954,0.004375,0.016291,-0.085409,0.005908,0.012851,-0.085409,-0.614061,0.451995,0.018020,-1.730752,-0.175689,-7.969000
1790548511.2094,0.007117,0.017441,-0.077264,0.006754,0.016064,-0.077264,-0.156329,-0.077371,0.255992,-2.458983,0.493551,-8.007811
1790548511.2234,0.007625,0.013831,-0.068213,0.007364,0.014501,-0.068213,0.277119,-0.220640,0.752576,0.530599,2.538451,-12.315854
1790548511.2373,0.002856,0.013381,-0.056315,0.004209,0.013717,-0.056315,0.078000,0.064683,1.150814,0.990535,2.761531,-11.229140
1790548511.2513,-0.011186,0.009592,-0.055730,-0.006568,0.010830,-0.055730,0.319614,0.495704,1.470134,2.715294,1.571771,-6.106063
1790548511.2657,-0.016255,0.010979,-0.054296,-0.013349,0.010934,-0.054296,0.108354,0.052542,1.105891,0.952207,2.947431,-4.786483
1790548511.2797,-0.025557,0.011143,-0.045849,-0.021895,0.011080,-0.045849,0.000295,0.311154,1.012402,2.753622,2.017931,-8.784035
1790548511.2936,-0.022431,0.007411,-0.030429,-0.022270,0.008512,-0.030429,0.207913,-0.416117,0.900701,0.530599,1.423051,-12.548721
1790548511.3076,-0.013714,0.009251,-0.015648,-0.016281,0.009029,-0.015648,-0.145402,-0.730580,0.808426,-1.155832,2.464091,-13.441378
1790548511.3213,-0.001683,0.017456,-0.001360,-0.006062,0.014928,-0.001360,-0.609204,-0.991620,0.740434,-1.040848,2.315371,-12.703965
1790548511.3349,0.012854,0.025071,0.009177,0.007179,0.022028,0.009177,-0.536356,-1.215022,0.593523,-0.082648,1.832031,-8.163056
1790548511.3486,0.024783,0.031681,0.013717,0.019502,0.028785,0.013717,-0.453794,-1.099679,0.390761,1.373815,1.943571,-8.240679
1790548511.3627,0.019569,0.027623,0.012053,0.019549,0.027972,0.012053,0.254051,0.159387,0.081155,3.098574,1.385871,-9.676693
1790548511.3772,0.016740,0.017496,0.002629,0.017583,0.020638,0.002629,0.773704,0.244376,-0.241807,-0.197632,3.319231,-9.599070
1790548511.3912,0.009095,0.010295,-0.011339,0.011642,0.013398,-0.011339,0.705712,0.587979,-0.153174,-0.197632,4.694891,-8.357112
1790548511.4052,0.002433,0.001997,-0.019819,0.005195,0.005417,-0.019819,0.676572,0.594049,-0.218738,-1.155832,2.910251,-8.473546
1790548511.4193,-0.007121,-0.002599,-0.031193,-0.003426,-0.000194,-0.031193,0.478667,0.818666,-0.281873,-1.232488,4.062831,-8.822846
1790548511.4332,-0.016769,-0.010142,-0.040577,-0.012766,-0.007158,-0.040577,0.658360,0.787098,-0.230879,-0.619240,3.616671,-9.793126
1790548511.4472,-0.009467,-0.015009,-0.046944,-0.010457,-0.012654,-0.046944,0.479881,-0.327484,-0.309799,-3.072231,4.694891,-11.462007
1790548511.4614,-0.004405,-0.010696,-0.056476,-0.006220,-0.011283,-0.056476,-0.243748,-0.291060,-0.739605,1.067191,3.467951,-12.471098
1790548511.4754,-0.006782,-0.004095,-0.060887,-0.006613,-0.006252,-0.060887,-0.453794,0.165457,-0.824595,2.715294,2.315371,-10.802217
1790548511.4894,-0.007049,-0.000149,-0.069798,-0.006918,-0.001980,-0.069798,-0.334808,0.142389,-0.960579,0.645583,0.828171,-8.473546
1790548511.5033,-0.019539,0.003523,-0.065674,-0.015753,0.001872,-0.065674,-0.390659,0.878159,-0.901086,2.753622,-0.250049,-7.891378
1790548511.5173,-0.030660,0.007678,-0.062043,-0.026188,0.005936,-0.062043,-0.422226,0.744603,-0.669185,2.868606,-0.361589,-8.318301
1790548511.5312,-0.033205,0.013052,-0.063497,-0.031100,0.010917,-0.063497,-0.493861,0.289300,-0.766316,1.143847,-0.175689,-12.121798
1790548511.5452,-0.036922,0.013620,-0.067721,-0.035175,0.012809,-0.067721,-0.132046,0.375504,-0.830666,1.412143,0.084571,-11.539630
1790548511.5588,-0.030378,0.009968,-0.069389,-0.031817,0.010820,-0.069389,0.167847,-0.278919,-0.788171,-0.772552,0.010211,-10.608161
1790548511.5724,-0.018728,0.003469,-0.069121,-0.022655,0.005675,-0.069121,0.365752,-0.690513,-0.670399,-0.657568,-0.064149,-9.094525
1790548511.5864,-0.007257,-0.001833,-0.071994,-0.011876,0.000419,-0.071994,0.352396,-0.785216,-0.429999,0.453943,1.162791,-8.745224
1790548511.6004,-0.000589,-0.003509,-0.077133,-0.003975,-0.002330,-0.077133,0.119281,-0.498679,-0.315869,0.952207,1.571771,-9.016902
1790548511.6143,0.005135,-0.001167,-0.079733,0.002402,-0.001516,-0.079733,-0.170899,-0.440400,-0.173815,0.913879,2.129471,-12.199420
1790548511.6289,0.002482,0.004070,-0.081693,0.002458,0.002394,-0.081693,-0.362733,0.160601,-0.069399,0.645583,2.203831,-12.548721
1790548511.6432,0.000343,0.012877,-0.078681,0.000977,0.009732,-0.078681,-0.640772,0.212809,0.083583,-1.577440,1.832031,-11.656063
1790548511.6573,-0.002622,0.021821,-0.070899,-0.001542,0.018195,-0.070899,-0.674768,0.229807,0.323983,-1.654096,1.497411,-11.850119
1790548511.6713,0.002047,0.017418,-0.055695,0.000970,0.017651,-0.055695,0.234624,-0.433115,0.631161,-0.772552,0.679451,-11.927742
1790548511.6852,-0.000226,0.014358,-0.046427,0.000133,0.015346,-0.046427,0.274691,-0.073729,1.013616,0.607255,2.761531,-10.220049
1790548511.6993,-0.004346,0.012427,-0.033035,-0.003002,0.013303,-0.033035,0.133851,-0.070086,1.297725,1.680439,1.460231,-8.745224
1790548511.7135,-0.011179,0.008231,-0.016051,-0.008726,0.009753,-0.016051,0.328113,0.120534,1.595190,0.798895,1.720491,-7.153965
1790548511.7275,-0.009615,0.009692,-0.009255,-0.009348,0.009711,-0.009255,0.039148,-0.291060,1.315938,-1.117504,3.951291,-8.745224
1790548511.7415,-0.017246,0.012044,0.003664,-0.014877,0.011344,0.003664,-0.172113,0.221308,1.200594,1.872079,1.943571,-10.142427
1790548511.7556,-0.010950,0.010526,0.025059,-0.012128,0.010771,0.025059,0.028220,-0.573955,0.977192,-1.309144,0.902531,-12.354665
1790548511.7707,0.001396,0.015281,0.042929,-0.002661,0.013928,0.042929,-0.316596,-0.960053,0.915271,-1.194160,2.315371,-12.315854
1790548511.7843,0.013066,0.023772,0.057880,0.008348,0.020819,0.057880,-0.663841,-1.013475,0.687012,-0.235960,1.423051,-11.772497
1790548511.7976,0.024516,0.030079,0.069325,0.019665,0.027301,0.069325,-0.527857,-1.013475,0.464824,0.223975,1.014071,-10.064805
1790548511.8109,0.029884,0.031814,0.073185,0.026818,0.030460,0.073185,-0.193968,-0.537531,0.168573,1.028863,0.939711,-10.064805
1790548511.8244,0.028643,0.027239,0.071105,0.028096,0.028205,0.071105,0.322043,0.119320,-0.156817,-0.274288,2.092291,-10.841028
1790548511.8383,0.022567,0.022441,0.052461,0.024225,0.024170,0.052461,0.473810,0.426498,-0.224809,0.760567,4.248731,-9.637881
1790548511.8522,0.012390,0.016578,0.032948,0.015941,0.018856,0.032948,0.556372,0.781027,-0.328011,0.223975,4.062831,-8.900469
1790548511.8663,0.004589,0.009880,0.013216,0.007995,0.012573,0.013216,0.626792,0.697251,-0.465209,-0.695896,3.728211,-7.852567
1790548511.8807,-0.009876,0.001011,-0.007426,-0.004515,0.004479,-0.007426,0.783417,1.127058,-0.427570,-0.427600,4.397451,-8.784035
1790548511.8948,-0.013550,-0.007956,-0.023982,-0.010839,-0.004225,-0.023982,0.783417,0.465350,-0.507704,-1.577440,3.505131,-7.969000
1790548511.9090,-0.015317,-0.015669,-0.038002,-0.013974,-0.012236,-0.038002,0.671716,0.263803,-0.466423,-1.117504,4.471811,-11.423196
1790548511.9233,-0.009329,-0.011857,-0.052169,-0.010722,-0.011971,-0.052169,-0.185469,-0.312915,-0.837950,0.722239,4.732071,-15.459560
1790548511.9373,-0.013601,-0.006174,-0.053301,-0.012737,-0.007913,-0.053301,-0.470792,0.309940,-0.949652,3.213558,0.790991,-11.617252
1790548511.9513,-0.009033,-0.005829,-0.057922,-0.010144,-0.006454,-0.057922,-0.144188,-0.123509,-1.004288,-0.465928,-0.212869,-8.551168
1790548511.9653,-0.020993,-0.005525,-0.049788,-0.017738,-0.005804,-0.049788,-0.213394,0.799239,-0.825809,2.217030,-0.919289,-5.717951
1790548511.9792,-0.030877,-0.003381,-0.047007,-0.026935,-0.004108,-0.047007,-0.303240,0.585550,-0.545342,3.405198,-0.770569,-7.774944
1790548511.9932,-0.033836,0.000196,-0.045864,-0.031766,-0.001095,-0.045864,-0.372447,0.265017,-0.614548,1.143847,-0.287229,-9.094525
1790548512.0072,-0.033601,-0.003340,-0.042690,-0.033050,-0.002667,-0.042690,0.114424,0.088966,-0.613334,0.453943,-0.882109,-12.898021
1790548512.0208,-0.025929,-0.009075,-0.041409,-0.028065,-0.007153,-0.041409,0.324471,-0.344482,-0.614548,-1.654096,0.010211,-9.676693
1790548512.0344,-0.009122,-0.015948,-0.038094,-0.014805,-0.013309,-0.038094,0.439814,-1.139746,-0.380219,-0.619240,0.419191,-7.425644
1790548512.0483,0.004006,-0.024891,-0.034645,-0.001637,-0.021416,-0.034645,0.575798,-0.918772,-0.205382,-0.082648,0.419191,-8.124245
1790548512.0623,0.014526,-0.030243,-0.041041,0.009677,-0.027595,-0.041041,0.438600,-0.791287,-0.107037,0.492271,2.389731,-10.181238
1790548512.0761,0.009908,-0.022424,-0.042589,0.009838,-0.023975,-0.042589,-0.543641,0.330581,0.058086,-0.350944,3.021791,-15.847672
1790548512.0901,0.003617,-0.008312,-0.038226,0.005484,-0.013011,-0.038226,-1.028083,0.485991,0.195284,-1.730752,2.092291,-15.149070
1790548512.1041,0.005636,-0.000217,-0.030309,0.005590,-0.004056,-0.030309,-0.701479,0.016118,0.214711,-2.267343,-0.250049,-6.338930
1790548512.1182,0.002298,0.002564,-0.021447,0.003285,0.000578,-0.021447,-0.309311,0.322082,0.268133,-1.309144,-0.064149,-5.834385
1790548512.1326,-0.001560,0.009110,-0.030405,-0.000107,0.006550,-0.030405,-0.334808,0.105964,0.422329,1.028863,2.798711,-7.115154
1790548512.1468,0.005384,0.005740,-0.013509,0.003737,0.005983,-0.013509,0.190915,-0.629806,0.838780,-0.810880,1.385871,-14.916203
1790548512.1608,0.003654,0.005258,0.000521,0.003679,0.005476,0.000521,0.075572,-0.159933,1.271014,0.722239,2.352551,-10.452916
1790548512.1748,-0.005170,0.000647,0.008558,-0.002515,0.002096,0.008558,0.353610,0.180027,1.549053,1.948735,1.237151,-6.571797
1790548512.1886,-0.009853,-0.003503,0.014171,-0.007652,-0.001823,0.014171,0.490808,0.155744,1.470134,-1.079176,4.100011,-7.813756
1790548512.2026,-0.015687,-0.003287,0.030232,-0.013276,-0.002848,0.030232,0.000295,0.295370,1.178740,-0.925864,1.608951,-7.503266
1790548512.2165,-0.021002,-0.005278,0.040701,-0.018684,-0.004549,0.040701,0.119281,0.118106,0.979620,2.370342,2.017931,-13.674245
1790548512.2305,-0.014281,-0.008842,0.055580,-0.015602,-0.007554,0.055580,0.235839,-0.587311,0.842422,-0.964192,2.092291,-13.557812
1790548512.2441,-0.005564,-0.003034,0.066916,-0.008575,-0.004390,0.066916,-0.397944,-0.771860,0.801141,-0.389272,2.835891,-12.471098
1790548512.2578,0.009192,0.005164,0.077969,0.003862,0.002298,0.077969,-0.554568,-1.160386,0.651802,-0.925864,2.241011,-9.172147
1790548512.2718,0.016893,0.010643,0.081781,0.012984,0.008140,0.081781,-0.389445,-0.765790,0.424757,1.642111,1.534591,-8.978091
1790548512.2857,0.022652,0.014813,0.080285,0.019752,0.012811,0.080285,-0.263174,-0.560600,0.163717,1.335487,2.203831,-9.133336
1790548512.2997,0.016887,0.008399,0.069554,0.017747,0.009722,0.069554,0.472596,0.295370,-0.235736,3.098574,2.649991,-11.811308
1790548512.3137,0.011589,0.002342,0.049187,0.013436,0.004556,0.049187,0.620722,0.536985,-0.442140,-1.117504,3.951291,-7.076343
1790548512.3277,0.000646,-0.001676,0.027065,0.004483,0.000194,0.027065,0.524804,0.810167,-0.411787,0.837223,4.769251,-7.348021
1790548512.3418,-0.005894,-0.010197,0.012910,-0.002781,-0.007080,0.012910,0.710568,0.717892,-0.525916,-2.190688,2.835891,-7.697322
1790548512.3562,-0.015002,-0.018113,-0.005036,-0.011335,-0.014803,-0.005036,0.676572,0.828379,-0.675255,-1.040848,3.021791,-7.658511
1790548512.3705,-0.007852,-0.018570,-0.017103,-0.008897,-0.017440,-0.017103,0.175131,-0.287418,-0.521059,-2.803935,4.732071,-11.112707
1790548512.3852,-0.003616,-0.011368,-0.031544,-0.005200,-0.013189,-0.031544,-0.441653,-0.156290,-0.918084,0.338959,3.839751,-14.838581
1790548512.3992,-0.011362,-0.003603,-0.038458,-0.009514,-0.006479,-0.038458,-0.588564,0.602548,-1.004288,2.600310,1.460231,-11.850119
1790548512.4132,-0.012013,0.003610,-0.050734,-0.011263,0.000583,-0.050734,-0.523000,0.176384,-1.078351,0.683911,1.051251,-6.183686
1790548512.4272,-0.023862,0.008878,-0.039793,-0.020082,0.006389,-0.039793,-0.538784,0.801668,-1.049211,2.983590,-0.659029,-6.377742
1790548512.4413,-0.033034,0.012913,-0.039544,-0.029148,0.010956,-0.039544,-0.417370,0.693609,-0.818524,2.025391,-0.435949,-8.551168
1790548512.4554,-0.034416,0.017552,-0.044178,-0.032836,0.015573,-0.044178,-0.428297,0.282015,-0.922940,0.300631,-0.026969,-12.277042
1790548512.4694,-0.032645,0.016416,-0.046526,-0.032702,0.016163,-0.046526,-0.051913,0.031902,-0.909585,0.722239,-0.696209,-12.471098
1790548512.4835,-0.022750,0.009891,-0.047249,-0.025735,0.011773,-0.047249,0.314758,-0.501107,-0.850092,-0.619240,-0.770569,-10.103616
1790548512.4973,-0.009315,0.005435,-0.051411,-0.014241,0.007336,-0.051411,0.297760,-0.851994,-0.626690,-0.235960,0.976891,-7.037532
1790548512.5114,0.001443,0.001293,-0.052808,-0.003262,0.003106,-0.052808,0.244338,-0.752434,-0.397217,0.607255,0.902531,-9.094525
1790548512.5255,0.008592,-0.000668,-0.055696,0.005035,0.000464,-0.055696,0.125352,-0.531460,-0.247877,0.875551,1.608951,-10.142427
1790548512.5398,0.006051,0.005270,-0.057522,0.005746,0.003828,-0.057522,-0.424655,0.166671,-0.090039,0.530599,2.464091,-14.256413
1790548512.5539,0.000616,0.017381,-0.054349,0.002155,0.013315,-0.054349,-0.892099,0.401001,0.104224,-0.734224,1.869211,-13.169700
1790548512.5681,-0.000683,0.028521,-0.046956,0.000169,0.023959,-0.046956,-0.833821,0.142389,0.276632,-1.807408,1.162791,-9.793126
1790548512.5824,0.007190,0.022694,-0.034868,0.005083,0.023074,-0.034868,0.325685,-0.651660,0.408973,-0.082648,0.679451,-12.238231
1790548512.5964,0.005192,0.019378,-0.034286,0.005160,0.020487,-0.034286,0.340255,-0.139292,0.878846,1.412143,2.910251,-8.318301
1790548512.6105,0.000762,0.017255,-0.021412,0.002081,0.018225,-0.021412,0.194558,0.045257,1.186024,0.568927,2.464091,-9.948371
1790548512.6250,-0.003303,0.014463,-0.008706,-0.001687,0.015591,-0.008706,0.274691,-0.047018,1.410641,0.683911,2.389731,-7.464455
1790548512.6394,-0.003716,0.011940,0.015442,-0.003108,0.013036,0.015442,0.122923,-0.149006,1.328079,-1.117504,0.790991,-8.163056
1790548512.6536,-0.008742,0.011822,0.030452,-0.007052,0.012186,0.030452,-0.016703,0.048900,1.170241,1.412143,1.385871,-9.715504
1790548512.6676,-0.009521,0.014153,0.041279,-0.008780,0.013563,0.041279,-0.153901,-0.162361,0.921341,0.607255,1.906391,-8.822846
1790548512.6816,-0.004689,0.014214,0.055655,-0.005916,0.014018,0.055655,-0.026416,-0.502321,0.818139,-0.197632,1.869211,-11.850119
1790548512.6958,0.008208,0.018429,0.072059,0.003971,0.017106,0.072059,-0.344521,-0.938198,0.602022,-2.305671,1.311511,-12.160609
1790548512.7096,0.020679,0.025827,0.081161,0.015667,0.023211,0.081161,-0.546069,-0.984335,0.354337,-0.504256,1.980751,-11.617252
1790548512.7235,0.030123,0.030157,0.086474,0.025786,0.028073,0.086474,-0.365162,-0.758505,0.103010,0.262303,1.162791,-10.414105
1790548512.7376,0.034077,0.030286,0.082861,0.031590,0.029622,0.082861,-0.050699,-0.345697,-0.166530,1.028863,1.311511,-9.133336
1790548512.7516,0.032830,0.023352,0.079163,0.032458,0.025233,0.079163,0.481095,0.223736,-0.342581,-1.309144,1.906391,-9.094525
1790548512.7656,0.023684,0.017705,0.060870,0.026316,0.019964,0.060870,0.510235,0.676611,-0.326797,0.530599,4.025651,-9.754315
1790548512.7796,0.018020,0.010823,0.048511,0.020509,0.013565,0.048511,0.580655,0.583122,-0.365649,-1.730752,3.133331,-8.434735
1790548512.7936,0.006593,0.004607,0.034440,0.010768,0.007295,0.034440,0.564871,0.958292,-0.269732,-1.347472,3.579491,-8.589979
1790548512.8076,-0.006041,-0.001410,0.015721,-0.000999,0.001201,0.015721,0.626792,0.978932,-0.243021,-0.235960,3.691031,-6.727042
1790548512.8216,-0.008972,-0.009388,0.001791,-0.006580,-0.006211,0.001791,0.739708,0.448352,-0.263661,-2.573967,3.542311,-7.153965
1790548512.8355,-0.015372,-0.018738,-0.011940,-0.012735,-0.014980,-0.011940,0.912116,0.563696,-0.233308,-0.964192,6.144910,-10.064805
1790548512.8494,-0.003692,-0.018588,-0.020632,-0.006405,-0.017506,-0.020632,-0.014275,-0.692941,-0.699538,-1.270816,2.649991,-17.361308
1790548512.8634,-0.007067,-0.012202,-0.028127,-0.006868,-0.013793,-0.028127,-0.481719,0.227378,-0.976363,4.440053,1.980751,-14.722147
1790548512.8777,-0.012886,-0.005031,-0.035420,-0.011081,-0.007659,-0.035420,-0.570352,0.427712,-0.992147,2.600310,0.567911,-9.560259
1790548512.8923,-0.019347,-0.001430,-0.032072,-0.016867,-0.003299,-0.032072,-0.439224,0.419213,-0.750532,2.217030,-1.253909,-7.270399
1790548512.9064,-0.028550,0.002550,-0.035092,-0.025045,0.000795,-0.035092,-0.378517,0.671754,-0.574482,1.450471,0.047391,-8.124245
1790548512.9206,-0.028977,0.005663,-0.038657,-0.027797,0.004203,-0.038657,-0.325095,0.175170,-0.767530,0.185647,-0.138509,-10.646972
1790548512.9359,-0.029733,0.004060,-0.044153,-0.029152,0.004103,-0.044153,0.012436,0.126605,-0.739605,1.527127,-0.101329,-11.578441
1790548512.9502,-0.024357,0.002159,-0.043677,-0.025795,0.002742,-0.043677,0.018507,-0.335983,-0.488278,0.760567,-0.175689,-8.512357
1790548512.9652,-0.013837,-0.001064,-0.041389,-0.017424,0.000078,-0.041389,0.153277,-0.660159,-0.260019,-0.005993,0.567911,-8.046623
1790548512.9802,-0.004553,-0.004819,-0.040155,-0.008414,-0.003350,-0.040155,0.234624,-0.519319,-0.156817,-1.270816,1.237151,-8.434735
1790548512.9957,0.001565,-0.006825,-0.043109,-0.001428,-0.005782,-0.043109,0.171489,-0.378478,-0.060900,-0.350944,2.798711,-11.190329
1790548513.0096,-0.003879,-0.002885,-0.042794,-0.003144,-0.003754,-0.042794,-0.311739,0.397358,-0.025689,0.032335,1.980751,-15.149070
1790548513.0234,-0.009615,0.008897,-0.038968,-0.007673,0.005101,-0.038968,-0.909097,0.437425,0.111509,-0.657568,1.423051,-13.169700
1790548513.0375,-0.010404,0.015619,-0.028831,-0.009585,0.012464,-0.028831,-0.633487,0.098679,0.245064,-1.347472,-0.621849,-9.599070
1790548513.0515,0.000956,0.006829,-0.017213,-0.002206,0.008519,-0.017213,0.504164,-0.929699,0.427186,0.300631,-0.175689,-9.676693
1790548513.0655,-0.000225,0.005155,-0.011328,-0.000819,0.006164,-0.011328,0.184845,-0.159933,0.929840,1.143847,2.873071,-10.336483
1790548513.0794,-0.009349,0.002554,-0.000470,-0.006790,0.003637,-0.000470,0.164204,0.299013,1.285584,2.140375,1.274331,-9.909560
1790548513.0934,-0.020031,-0.004894,0.016373,-0.016059,-0.002335,0.016373,0.495665,0.397358,1.555124,1.335487,0.939711,-7.619700
1790548513.1075,-0.023221,-0.011368,0.043271,-0.021072,-0.008658,0.043271,0.399748,0.181241,1.557552,-2.573967,0.753811,-7.153965
1790548513.1214,-0.026809,-0.011601,0.064889,-0.025088,-0.010718,0.064889,0.029434,0.115677,1.524770,-1.347472,1.943571,-8.240679
1790548513.1358,-0.028227,-0.010479,0.083946,-0.027286,-0.010551,0.083946,-0.115048,-0.119866,1.284370,0.262303,1.534591,-10.375294
1790548513.1501,-0.017511,-0.011721,0.105990,-0.020443,-0.011370,0.105990,0.001509,-0.885990,1.090107,-1.079176,0.716631,-12.587532
1790548513.1639,-0.003948,-0.003612,0.124331,-0.008897,-0.005939,0.124331,-0.580065,-1.074182,0.974764,-1.730752,2.241011,-11.306763
1790548513.1776,0.009869,0.004958,0.140977,0.004239,0.001689,0.140977,-0.652913,-1.108178,0.791428,-1.155832,1.311511,-10.879840
1790548513.1919,0.018517,0.010208,0.147253,0.014234,0.007652,0.147253,-0.387016,-0.776717,0.512176,0.607255,1.088431,-8.201867
1790548513.2061,0.018297,0.008988,0.145953,0.017078,0.008587,0.145953,0.097426,-0.101654,0.228066,0.913879,1.906391,-9.793126
1790548513.2202,0.014746,0.000039,0.142022,0.015446,0.002604,0.142022,0.651075,0.278372,-0.150746,-0.159304,2.278191,-10.530539
1790548513.2341,0.004915,-0.006942,0.127810,0.008074,-0.004078,0.127810,0.649861,0.765243,-0.251520,-0.274288,4.174371,-9.249770
1790548513.2484,-0.000905,-0.014267,0.112691,0.001788,-0.011211,0.112691,0.685071,0.598906,-0.423928,-1.769080,3.914111,-7.774944
1790548513.2624,-0.006902,-0.020374,0.096874,-0.004295,-0.017625,0.096874,0.597653,0.677825,-0.618191,-1.884064,3.244871,-6.921098
1790548513.2765,-0.014941,-0.028849,0.083926,-0.011747,-0.025482,0.083926,0.753063,0.756744,-0.502847,-1.654096,3.914111,-9.172147
1790548513.2905,-0.008796,-0.035334,0.075687,-0.009682,-0.032379,0.075687,0.564871,-0.283775,-0.499205,-1.922392,3.988471,-12.703965
1790548513.3045,0.001778,-0.030433,0.065529,-0.001660,-0.031017,0.065529,-0.297170,-0.690513,-0.742033,0.798895,3.839751,-15.770049
1790548513.3185,-0.005202,-0.023999,0.052541,-0.004139,-0.026105,0.052541,-0.536356,0.445924,-0.773601,3.251886,0.382011,-10.918651
1790548513.3325,-0.002317,-0.021294,0.041165,-0.002864,-0.022737,0.041165,-0.285028,-0.084656,-0.953294,0.377287,0.121751,-10.064805
1790548513.3469,-0.006640,-0.017409,0.028861,-0.005507,-0.019007,0.028861,-0.356663,0.345150,-0.835522,1.067191,0.121751,-6.843476
1790548513.3653,-0.015436,-0.015883,0.017105,-0.012458,-0.016820,0.017105,-0.192754,0.453209,-0.553841,2.025391,-0.659029,-7.386832
1790548513.3795,-0.013944,-0.017935,0.010675,-0.013498,-0.017600,0.010675,0.041576,0.028259,-0.737177,-0.197632,-0.212869,-12.354665
1790548513.3939,-0.012722,-0.021625,0.000893,-0.012954,-0.020417,0.000893,0.187273,-0.008165,-0.765102,0.875551,0.382011,-10.918651
1790548513.4080,-0.001011,-0.029987,-0.002245,-0.004594,-0.027116,-0.002245,0.507806,-0.725723,-0.598764,-0.427600,0.084571,-9.754315
1790548513.4224,0.012396,-0.040916,-0.005820,0.007299,-0.036776,-0.005820,0.698427,-0.860493,-0.528344,-0.235960,0.344831,-8.007811
1790548513.4364,0.021719,-0.047946,-0.014057,0.017393,-0.044595,-0.014057,0.512663,-0.720867,-0.334082,1.105519,1.385871,-8.784035
1790548513.4508,0.011162,-0.039852,-0.019878,0.013032,-0.041275,-0.019878,-0.566709,0.691181,-0.114322,1.603783,2.464091,-17.283686
1790548513.4650,0.010077,-0.024319,-0.013882,0.010963,-0.029406,-0.013882,-1.156782,0.246805,-0.026904,-4.183743,0.605091,-14.023546
1790548513.4791,0.012228,-0.015275,-0.006592,0.011849,-0.019514,-0.006592,-0.737903,-0.010593,0.042303,-2.420655,-0.026969,-9.016902
1790548513.4935,0.006780,-0.008973,-0.000089,0.008300,-0.012135,-0.000089,-0.468364,0.566124,0.188000,-1.270816,0.382011,-3.272846
1790548513.5075,-0.011758,0.003553,0.001766,-0.005740,-0.001154,0.001766,-0.824107,1.369886,0.291202,-0.734224,1.608951,-5.368651
1790548513.5216,-0.008478,0.011761,0.011082,-0.007657,0.007886,0.011082,-0.588564,-0.332341,0.572883,-0.120976,1.162791,-6.300119
1790548513.5359,-0.000086,0.006294,0.024782,-0.002357,0.006772,0.024782,0.393677,-0.828925,0.975978,0.990535,2.873071,-14.566903
1790548513.5499,-0.011615,0.007984,0.033805,-0.008837,0.007620,0.033805,-0.101693,0.434997,1.356004,2.791950,2.352551,-11.112707
1790548513.5639,-0.012504,0.001540,0.057892,-0.011404,0.003364,0.057892,0.345111,-0.232781,1.623116,-0.005993,0.010211,-6.300119
1790548513.5779,-0.008901,-0.001520,0.071452,-0.009652,-0.000055,0.071452,0.218841,-0.639519,1.386358,1.795423,1.534591,-8.434735
1790548513.5919,-0.020728,-0.002313,0.074043,-0.017405,-0.001636,0.074043,0.052503,0.449566,1.141101,2.945262,1.385871,-8.046623
1790548513.6060,-0.017231,-0.009345,0.092188,-0.017284,-0.007032,0.092188,0.417960,-0.400333,1.001475,-0.350944,0.642271,-11.384385
1790548513.6198,-0.011888,-0.005526,0.106833,-0.013507,-0.005978,0.106833,-0.230392,-0.508392,0.956552,-0.887536,3.170511,-12.044175
1790548513.6334,-0.003581,0.002081,0.118623,-0.006559,-0.000337,0.118623,-0.492647,-0.747578,0.831495,-0.427600,3.058971,-10.336483
1790548513.6474,0.010940,0.009704,0.130062,0.005690,0.006692,0.130062,-0.491433,-1.170099,0.670014,-0.389272,2.649991,-9.987182
1790548513.6614,0.016814,0.016248,0.129659,0.013477,0.013381,0.129659,-0.407657,-0.656517,0.415044,2.217030,2.687171,-9.793126
1790548513.6755,0.013631,0.011619,0.120864,0.013584,0.012148,0.120864,0.347540,0.030687,-0.014762,4.056774,2.761531,-12.509909
1790548513.6895,0.009613,0.002610,0.111845,0.010804,0.005471,0.111845,0.676572,0.351221,-0.411787,0.070663,2.129471,-8.279490
1790548513.7034,0.000918,-0.002045,0.092972,0.003884,0.000210,0.092972,0.569728,0.683896,-0.485849,0.492271,5.215411,-8.085434
1790548513.7178,-0.000785,-0.008066,0.080688,0.000616,-0.005583,0.080688,0.558800,0.359720,-0.638831,-2.037376,3.691031,-8.240679
1790548513.7323,-0.008129,-0.015613,0.063604,-0.005505,-0.012604,0.063604,0.680215,0.723963,-0.811239,-1.194160,3.988471,-8.395923
1790548513.7464,-0.012683,-0.019331,0.046376,-0.010530,-0.017313,0.046376,0.546659,0.558839,-0.912013,-1.309144,5.810290,-7.813756
1790548513.7604,0.000678,-0.021088,0.037341,-0.002684,-0.019956,0.037341,0.090142,-0.686871,-0.825809,-3.263871,1.237151,-12.548721
1790548513.7744,0.004185,-0.015372,0.021455,0.002124,-0.016747,0.021455,-0.348164,-0.110153,-1.122060,0.760567,4.211551,-14.760958
1790548513.7886,-0.002407,-0.015216,0.012015,-0.001048,-0.015675,0.012015,-0.112620,0.496918,-1.112347,3.290214,0.158931,-12.587532
1790548513.8026,-0.001245,-0.013540,0.003051,-0.001186,-0.014181,0.003051,-0.210966,-0.027591,-1.007930,1.757095,0.270471,-10.103616
1790548513.8164,-0.000746,-0.012924,0.001992,-0.000878,-0.013301,0.001992,-0.204895,-0.091941,-0.754175,2.370342,-0.733389,-7.969000
1790548513.8305,-0.004105,-0.015703,-0.002008,-0.003137,-0.014982,-0.002008,0.051289,0.289300,-0.720179,1.105519,-0.659029,-9.482637
1790548513.8445,-0.000905,-0.019775,-0.008402,-0.001575,-0.018337,-0.008402,0.178774,-0.067658,-0.851306,-0.542584,-0.175689,-11.462007
1790548513.8580,0.004235,-0.021327,-0.016122,0.002492,-0.020430,-0.016122,0.084071,-0.326270,-0.660686,0.568927,1.051251,-8.822846
1790548513.8718,0.012310,-0.024521,-0.018215,0.009365,-0.023294,-0.018215,0.162990,-0.525390,-0.449425,-0.159304,0.456371,-8.589979
1790548513.8858,0.020075,-0.030459,-0.016386,0.016862,-0.028309,-0.016386,0.354825,-0.539959,-0.164102,-0.197632,0.382011,-9.676693
1790548513.8998,0.017487,-0.032873,-0.018183,0.017299,-0.031504,-0.018183,0.181202,0.125391,0.013163,0.875551,1.980751,-12.315854
1790548513.9149,0.011309,-0.021854,-0.013453,0.013106,-0.024749,-0.013453,-0.767043,0.438639,0.190428,-1.769080,1.460231,-15.964105
1790548513.9289,0.010850,-0.012043,-0.002155,0.011527,-0.015855,-0.002155,-0.809538,0.122962,0.343410,-2.420655,-0.250049,-9.327392
1790548513.9431,0.005835,-0.006737,0.007233,0.007542,-0.009472,0.007233,-0.521786,0.444710,0.269347,-1.615768,-0.584669,-6.998721
1790548513.9574,-0.009151,-0.000231,0.012242,-0.004143,-0.003004,0.012242,-0.542426,1.050567,0.298487,-0.427600,0.196111,-6.649420
1790548513.9717,-0.005472,0.007681,0.023489,-0.005074,0.004475,0.023489,-0.667483,-0.091941,0.393190,-4.605350,-0.212869,-10.646972
1790548513.9860,0.003479,0.001067,0.037043,0.000913,0.002090,0.037043,0.343897,-0.745149,0.739220,-0.887536,-0.473129,-17.012007
1790548514.0000,-0.001877,0.001435,0.049816,-0.001040,0.001632,0.049816,0.023364,0.124176,1.193309,0.798895,2.724351,-10.996273
1790548514.0141,-0.020146,-0.003086,0.049808,-0.014415,-0.001671,0.049808,0.329328,0.767672,1.593976,3.098574,1.162791,-6.377742
1790548514.0282,-0.021376,-0.005942,0.058512,-0.019288,-0.004661,0.058512,0.362109,-0.176931,1.224877,0.607255,2.947431,-5.873196
1790548514.0424,-0.038045,-0.011602,0.063596,-0.032417,-0.009519,0.063596,0.399748,0.793169,1.161742,3.980118,2.017931,-10.220049
1790548514.0563,-0.039134,-0.018742,0.080943,-0.037119,-0.015975,0.080943,0.428887,-0.026377,0.960194,-0.695896,1.014071,-13.480189
1790548514.0704,-0.035427,-0.019825,0.094605,-0.035935,-0.018670,0.094605,0.044004,-0.345697,0.775644,-0.657568,2.055111,-14.101168
1790548514.0840,-0.024992,-0.014365,0.107056,-0.028275,-0.015656,0.107056,-0.343307,-0.799786,0.717366,-1.270816,2.873071,-9.793126
1790548514.0977,-0.012572,-0.009909,0.114601,-0.017283,-0.011633,0.114601,-0.294741,-1.080253,0.611735,0.722239,1.794851,-7.658511
1790548514.1118,-0.005956,-0.006706,0.117630,-0.009354,-0.008184,0.117630,-0.197610,-0.635877,0.402903,1.258831,1.906391,-8.551168
1790548514.1258,-0.000533,-0.005189,0.120206,-0.003179,-0.006088,0.120206,-0.105335,-0.521747,0.285131,1.258831,1.757671,-10.103616
1790548514.1398,0.004299,-0.005335,0.123654,0.002055,-0.005561,0.123654,0.046432,-0.291060,0.101795,-1.500784,2.501271,-10.646972
1790548514.1539,-0.000885,-0.012787,0.119604,-0.000003,-0.010619,0.119604,0.421602,0.415570,-0.415429,0.722239,-0.064149,-17.244875
1790548514.1682,-0.001741,-0.014214,0.108755,-0.001219,-0.013135,0.108755,0.405818,0.257732,-0.349865,-1.807408,4.880791,-5.562707
1790548514.1822,-0.010686,-0.020922,0.099370,-0.007846,-0.018586,0.099370,0.583083,0.680253,-0.342581,0.338959,3.021791,-8.822846
1790548514.1962,-0.011562,-0.027583,0.088452,-0.010447,-0.024884,0.088452,0.608580,0.282015,-0.660686,-1.654096,3.133331,-8.201867
1790548514.2102,-0.004246,-0.029477,0.077454,-0.006106,-0.028099,0.077454,0.177560,-0.399119,-0.794241,-0.274288,2.947431,-13.324944
1790548514.2240,0.002319,-0.024328,0.063653,-0.000209,-0.025459,0.063653,-0.357877,-0.349339,-1.021286,0.492271,2.835891,-15.071448
1790548514.2379,0.003562,-0.017201,0.046671,0.002431,-0.019678,0.046671,-0.565495,0.016118,-1.309038,2.140375,1.423051,-13.945924
1790548514.2520,-0.004248,-0.009453,0.030087,-0.002245,-0.012521,0.030087,-0.533927,0.481134,-1.175482,2.408670,1.051251,-4.708860
1790548514.2662,-0.007845,-0.004444,0.024152,-0.006165,-0.006867,0.024152,-0.510859,0.339080,-0.890159,0.760567,-0.510309,-6.183686
1790548514.2802,-0.011087,-0.002830,0.016183,-0.009611,-0.004041,0.016183,-0.224321,0.326938,-0.850092,0.645583,-0.026969,-6.494175
1790548514.2941,-0.011479,-0.003790,0.008362,-0.010919,-0.003865,0.008362,-0.059198,0.205524,-0.986076,0.032335,-0.473129,-12.665154
1790548514.3080,-0.007280,-0.009089,0.000507,-0.008371,-0.007522,0.000507,0.249194,-0.151434,-1.003074,0.377287,-0.547489,-11.694875
1790548514.3216,0.004428,-0.015758,-0.003928,0.000588,-0.013287,-0.003928,0.352396,-0.700226,-0.890159,-0.389272,-0.435949,-9.637881
1790548514.3352,0.021478,-0.021534,-0.009396,0.015211,-0.019060,-0.009396,0.385178,-1.103321,-0.760245,-0.772552,0.939711,-8.124245
1790548514.3492,0.031889,-0.027049,-0.018119,0.026886,-0.024652,-0.018119,0.432530,-0.657731,-0.578124,-0.465928,1.943571,-8.085434
1790548514.3631,0.023175,-0.022904,-0.027651,0.024288,-0.023429,-0.027651,-0.270459,0.659613,-0.377791,0.185647,2.464091,-10.802217
1790548514.3769,0.018618,-0.004696,-0.028661,0.020319,-0.010316,-0.028661,-1.361972,0.505417,-0.267304,-3.532167,2.017931,-15.304315
1790548514.3908,0.017534,0.005592,-0.025432,0.018369,0.000820,-0.025432,-0.871459,0.261374,-0.210239,-2.765607,-0.324409,-10.569350
1790548514.4052,0.020185,0.011473,-0.026772,0.019640,0.008277,-0.026772,-0.563067,0.234663,-0.188384,-2.535639,-0.435949,-2.845923
1790548514.4195,0.006331,0.021947,-0.032585,0.010324,0.017846,-0.032585,-0.657770,0.901227,0.077513,0.530599,1.832031,-5.485084
1790548514.4338,0.023336,0.013858,-0.021156,0.019432,0.015055,-0.021156,0.438600,-1.207737,0.355551,-3.110559,-0.993649,-18.525644
1790548514.4476,0.022770,0.012880,-0.013597,0.021769,0.013532,-0.013597,0.212770,-0.135650,0.778073,0.108991,3.691031,-9.172147
1790548514.4616,0.013491,0.009441,-0.003805,0.015975,0.010668,-0.003805,0.283190,0.278372,1.286798,1.757095,1.534591,-7.813756
1790548514.4755,0.004196,0.005236,-0.003915,0.007730,0.006866,-0.003915,0.432530,0.087752,1.440994,2.676966,1.646131,-4.320748
1790548514.4894,-0.000027,0.003905,0.008334,0.002300,0.004793,0.008334,0.179988,0.016118,1.220020,0.760567,2.241011,-7.309210
1790548514.5033,-0.011354,-0.000146,0.018213,-0.007258,0.001336,0.018213,0.353610,0.547912,1.122889,1.373815,2.910251,-10.414105
1790548514.5173,-0.013056,-0.004951,0.034889,-0.011317,-0.003065,0.034889,0.301402,0.008833,0.982049,-1.117504,1.385871,-12.354665
1790548514.5312,-0.006315,-0.003970,0.050962,-0.007815,-0.003699,0.050962,-0.071339,-0.617664,0.971121,-0.964192,2.352551,-13.169700
1790548514.5448,0.003366,0.000860,0.063422,0.000012,-0.000508,0.063422,-0.314168,-0.830139,0.789000,-0.619240,2.389731,-10.064805
1790548514.5584,0.014071,0.007210,0.071635,0.009853,0.004895,0.071635,-0.422226,-0.967337,0.608093,0.492271,1.943571,-8.046623
1790548514.5723,0.019682,0.009750,0.077366,0.016733,0.008294,0.077366,-0.203681,-0.578812,0.389547,1.067191,1.088431,-8.279490
1790548514.5863,0.023483,0.009061,0.080214,0.021458,0.008831,0.080214,0.064645,-0.440400,0.314270,1.258831,1.757671,-9.094525
1790548514.6002,0.019107,0.003249,0.078070,0.019812,0.004924,0.078070,0.385178,0.252875,-0.064542,1.258831,1.608951,-12.238231
1790548514.6140,0.013946,-0.004995,0.071498,0.015706,-0.002019,0.071498,0.665645,0.522415,-0.338938,-1.615768,3.096151,-9.870749
1790548514.6279,0.004366,-0.013419,0.060449,0.007768,-0.009999,0.060449,0.716639,0.801668,-0.421500,-0.580912,3.282051,-8.745224
1790548514.6418,-0.008695,-0.022331,0.049275,-0.003756,-0.018631,0.049275,0.768847,0.970433,-0.320726,0.492271,3.244871,-8.434735
1790548514.6556,-0.016492,-0.028714,0.036041,-0.012671,-0.025689,0.036041,0.634077,0.683896,-0.534415,-0.504256,4.508991,-9.831937
1790548514.6700,-0.014435,-0.029000,0.028512,-0.013906,-0.028007,0.028512,0.053717,-0.056731,-0.461566,-0.389272,3.207691,-15.808861
1790548514.6842,-0.011686,-0.022255,0.015683,-0.012352,-0.023980,0.015683,-0.461079,-0.085870,-0.908371,0.837223,2.761531,-15.847672
1790548514.6983,-0.017432,-0.017936,0.006133,-0.015908,-0.019749,0.006133,-0.351806,0.407071,-0.946009,2.600310,0.716631,-9.366203
1790548514.7122,-0.024132,-0.012792,-0.001183,-0.021665,-0.014879,-0.001183,-0.476863,0.577051,-0.919298,1.028863,-0.250049,-8.706413
1790548514.7266,-0.020401,-0.007994,-0.005724,-0.020780,-0.010060,-0.005724,-0.442867,-0.115010,-0.811239,-0.044320,-0.250049,-9.094525
1790548514.7409,-0.021431,-0.004970,-0.012524,-0.021235,-0.006497,-0.012524,-0.299598,0.138746,-0.768744,1.143847,0.084571,-8.900469
1790548514.7549,-0.019902,-0.007273,-0.018534,-0.020302,-0.007040,-0.018534,0.050075,0.048900,-0.902300,0.147319,-0.435949,-13.402567
1790548514.7689,-0.016253,-0.009390,-0.027560,-0.017468,-0.008685,-0.027560,0.081643,-0.215783,-0.825809,1.642111,0.419191,-10.142427
1790548514.7826,-0.013972,-0.010584,-0.035491,-0.015021,-0.010014,-0.035491,0.017293,-0.201214,-0.644902,2.217030,0.419191,-9.249770
1790548514.7964,-0.013191,-0.012942,-0.039025,-0.013740,-0.012064,-0.039025,0.092570,-0.067658,-0.448211,1.297159,0.307651,-8.978091
1790548514.8104,-0.012434,-0.014126,-0.042720,-0.012826,-0.013507,-0.042720,0.052503,-0.051874,-0.315869,0.798895,1.014071,-9.249770
1790548514.8245,-0.017080,-0.013908,-0.046722,-0.015804,-0.013788,-0.046722,-0.038558,0.268659,-0.148318,1.680439,1.311511,-10.763406
1790548514.8387,-0.017395,-0.011656,-0.048290,-0.016918,-0.012296,-0.048290,-0.168471,0.024617,-0.117964,0.415615,1.608951,-10.685784
1790548514.8528,-0.020193,-0.007487,-0.054790,-0.019211,-0.008930,-0.054790,-0.247390,0.227378,-0.185956,0.185647,2.241011,-9.016902
1790548514.8670,-0.032661,-0.002031,-0.061122,-0.028626,-0.004100,-0.061122,-0.332380,0.914583,-0.092467,0.032335,2.575631,-10.142427
1790548514.8812,-0.026088,-0.000209,-0.049177,-0.026849,-0.001376,-0.049177,-0.212180,-0.474396,0.304557,-1.309144,1.199971,-20.116903
