t,imu_roll,imu_pitch,imu_yaw,lpf_roll,lpf_pitch,lpf_yaw,gyro_x,gyro_y,gyro_z,acc_x,acc_y,acc_z
1790549082.6155,-0.017527,-0.022424,-0.003696,-0.012269,-0.015697,-0.003696,0.026042,-0.000958,-0.001538,0.147319,1.274331,-10.220049
1790549082.6309,-0.027416,-0.022092,0.000059,-0.022872,-0.020174,0.000059,-0.006740,0.000256,-0.002752,0.338959,1.237151,-10.064805
1790549082.6448,-0.023298,-0.023404,-0.000919,-0.023170,-0.022435,-0.000919,-0.022524,-0.004600,-0.001538,0.108991,1.199971,-10.181238
1790549082.6586,-0.026723,-0.021579,-0.000089,-0.025657,-0.021836,-0.000089,-0.016453,-0.022813,-0.005180,0.338959,1.274331,-9.948371
1790549082.6728,-0.024305,-0.021625,-0.001043,-0.024711,-0.021688,-0.001043,0.009044,-0.010671,-0.001538,0.108991,1.237151,-10.025993
1790549082.6867,-0.024633,-0.021184,-0.001026,-0.024656,-0.021335,-0.001026,-0.001884,0.000256,0.000891,0.223975,1.274331,-10.142427
1790549082.7009,-0.025370,-0.020383,-0.000520,-0.025156,-0.020668,-0.000520,-0.069876,0.009969,0.015460,0.262303,1.311511,-10.646972
1790549082.7157,-0.027821,-0.018114,0.001103,-0.027022,-0.018881,0.001103,-0.123298,0.002684,0.056741,0.415615,1.348691,-10.375294
1790549082.7301,-0.032447,-0.012958,0.003387,-0.030819,-0.014735,0.003387,-0.141510,0.012398,0.149016,0.607255,1.534591,-9.715504
1790549082.7442,-0.036909,-0.006353,0.006519,-0.035082,-0.008867,0.006519,-0.184005,0.009969,0.294713,0.645583,1.683311,-9.521448
1790549082.7584,-0.037172,-0.003326,0.011261,-0.036545,-0.004988,0.011261,-0.111157,-0.070164,0.444052,0.377287,1.608951,-10.142427
1790549082.7726,-0.043952,-0.003068,0.026503,-0.041730,-0.003644,0.026503,-0.089302,0.022111,0.564253,0.913879,1.237151,-9.210958
1790549082.7866,-0.054370,-0.009174,0.051492,-0.050578,-0.007515,0.051492,0.083106,0.130169,0.668669,1.335487,0.790991,-9.637881
1790549082.8006,-0.041312,-0.005952,0.041022,-0.044092,-0.006421,0.041022,0.007829,-0.166081,0.581250,-1.232488,1.943571,-10.336483
1790549082.8145,-0.033518,-0.011458,0.049097,-0.036690,-0.009947,0.049097,-0.097801,-0.190364,0.419770,-0.580912,0.419191,-10.608161
1790549082.8285,-0.031420,-0.019820,0.055693,-0.033001,-0.016858,0.055693,0.060038,-0.055594,0.276501,-0.005993,0.158931,-12.044175
1790549082.8424,-0.032964,-0.024897,0.058271,-0.032975,-0.022485,0.058271,0.158383,0.008755,0.230363,0.453943,0.753811,-10.064805
1790549082.8564,-0.035727,-0.027957,0.059648,-0.034902,-0.026315,0.059648,0.182666,0.088889,0.214580,0.530599,1.125611,-10.297672
1790549082.8700,-0.037806,-0.024915,0.059222,-0.036935,-0.025335,0.059222,0.006615,0.099816,0.149016,0.377287,1.571771,-8.822846
1790549082.8837,-0.033462,-0.019040,0.061660,-0.034504,-0.020929,0.061660,-0.128155,-0.084734,0.127161,-0.312616,1.794851,-8.667602
1790549082.8976,-0.036786,-0.017396,0.063149,-0.036101,-0.018456,0.063149,-0.125726,0.033038,0.138089,0.837223,1.237151,-9.793126
1790549082.9116,-0.039095,-0.015291,0.065063,-0.038197,-0.016240,0.065063,-0.140296,0.007541,0.166014,0.798895,1.423051,-10.608161
1790549082.9255,-0.041381,-0.012177,0.066724,-0.040426,-0.013396,0.066724,-0.139082,0.025753,0.212151,0.683911,1.534591,-9.521448
1790549082.9396,-0.030038,-0.004920,0.066353,-0.033154,-0.007463,0.066353,-0.353985,-0.448976,0.158729,-0.887536,1.757671,-8.978091
1790549082.9539,-0.023845,0.006375,0.071903,-0.026638,0.002224,0.071903,-0.556747,-0.648096,0.159943,0.837223,2.352551,-9.948371
1790549082.9684,-0.024492,0.000135,0.068815,-0.025136,0.000762,0.068815,0.213019,0.220016,-0.086528,-0.619240,1.088431,-16.585084
1790549082.9824,-0.020539,0.002264,0.061303,-0.021918,0.001813,0.061303,0.284654,-0.028883,-0.434986,-0.657568,3.691031,-11.888930
1790549082.9964,-0.014819,0.012297,0.057197,-0.016948,0.009152,0.057197,-0.007954,-0.255928,-0.807728,-0.044320,3.393591,-7.619700
1790549083.0104,-0.012890,0.019881,0.063807,-0.014107,0.016662,0.063807,-0.052878,-0.235287,-0.949783,0.568927,2.055111,-5.601518
1790549083.0243,-0.016248,0.028739,0.059873,-0.015606,0.025116,0.059873,-0.102658,0.222444,-0.657174,0.415615,2.575631,-6.377742
1790549083.0382,-0.017269,0.024981,0.037260,-0.016770,0.025021,0.037260,0.188737,0.324432,-0.770090,-0.350944,1.571771,-11.888930
1790549083.0523,-0.018293,0.021889,0.017682,-0.017836,0.022828,0.017682,0.179023,0.294079,-0.961924,-0.082648,1.534591,-10.685784
1790549083.0662,-0.021616,0.026168,0.010168,-0.020482,0.025166,0.010168,-0.162150,0.340216,-0.952211,0.377287,2.055111,-8.900469
1790549083.0802,-0.034825,0.032707,0.012518,-0.030522,0.030445,0.012518,-0.292064,0.935146,-0.798015,0.798895,2.055111,-8.163056
1790549083.0937,-0.036062,0.037514,-0.058070,-0.034400,0.035394,-0.058070,-0.328488,0.766380,-0.694813,-1.692424,1.720491,-9.055714
1790549083.1073,-0.042242,0.039145,-0.084638,-0.039889,0.038019,-0.084638,-0.242284,0.709315,-0.466554,-0.312616,1.348691,-11.229140
1790549083.1213,-0.050294,0.042184,-0.090068,-0.047172,0.040934,-0.090068,-0.300563,0.602471,-0.161804,0.568927,1.497411,-10.608161
1790549083.1352,-0.056808,0.047791,-0.095592,-0.053917,0.045734,-0.095592,-0.370983,0.534479,0.108949,0.147319,1.980751,-9.366203
1790549083.1494,-0.051677,0.043359,-0.114918,-0.052349,0.044071,-0.114918,0.248230,-0.130871,0.255860,-1.079176,1.980751,-11.733686
1790549083.1633,-0.051115,0.037503,-0.087829,-0.051486,0.039474,-0.087829,0.572405,-0.231645,0.519329,0.798895,2.464091,-8.900469
1790549083.1773,-0.052518,0.031818,-0.017861,-0.052208,0.034115,-0.017861,0.628256,-0.445334,0.837434,2.140375,2.835891,-8.745224
1790549083.1912,-0.050690,0.021559,0.029230,-0.051145,0.025326,0.029230,0.906295,-0.584960,1.117901,1.603783,2.687171,-8.978091
1790549083.2053,-0.042128,0.011310,0.070874,-0.044833,0.015514,0.070874,0.975501,-1.068189,1.363158,1.182175,2.501271,-7.231588
1790549083.2203,-0.038983,0.005619,0.106467,-0.040738,0.008588,0.106467,0.834660,-0.818076,1.444506,1.987063,3.430771,-6.494175
1790549083.2345,-0.037877,0.011042,0.035155,-0.038735,0.010306,0.035155,0.452205,-0.271712,1.525853,0.913879,5.178231,-6.261308
1790549083.2488,-0.046384,0.013910,0.047465,-0.044090,0.012829,0.047465,-0.100229,0.376640,1.698261,0.415615,3.467951,-13.286133
1790549083.2630,-0.054458,0.011560,0.078505,-0.051347,0.011941,0.078505,-0.009169,0.263725,1.891310,0.722239,1.423051,-14.101168
1790549083.2769,-0.044191,0.004582,-0.000338,-0.046338,0.006790,-0.000338,0.196021,-0.235287,1.805106,-2.803935,0.047391,-7.736133
1790549083.2901,-0.041268,-0.004159,0.003101,-0.042789,-0.000874,0.003101,0.168096,0.211517,1.306093,-3.263871,-1.328269,-9.327392
1790549083.3031,-0.045386,-0.012058,0.016314,-0.044607,-0.008703,0.016314,0.181452,0.288008,0.809509,-0.120976,-1.068009,-9.793126
1790549083.3166,-0.048834,-0.022655,0.035979,-0.047566,-0.018470,0.035979,0.369644,0.188448,0.612818,0.262303,-1.179549,-8.822846
1790549083.3303,-0.047009,-0.029136,0.027390,-0.047176,-0.025936,0.027390,0.374500,0.048822,0.480477,-1.117504,0.716631,-10.491728
1790549083.3441,-0.045118,-0.033507,0.019133,-0.045736,-0.031236,0.019133,0.240945,0.114386,0.327495,-1.539112,0.753811,-10.375294
1790549083.3582,-0.043441,-0.039100,0.011883,-0.044129,-0.036741,0.011883,0.253086,0.125313,0.299570,-1.347472,0.158931,-8.900469
1790549083.3722,-0.042957,-0.044325,0.010006,-0.043308,-0.042050,0.010006,0.345361,0.159309,0.323852,-1.079176,0.828171,-9.016902
1790549083.3862,-0.034510,-0.046012,0.004500,-0.037149,-0.044824,0.004500,-0.060163,-0.468403,0.337208,-1.194160,-0.212869,-13.363756
1790549083.4001,-0.019451,-0.036974,0.000361,-0.024761,-0.039329,0.000361,-0.748581,-1.070617,-0.017322,0.070663,0.642271,-15.614805
1790549083.4141,-0.018156,-0.028574,0.088836,-0.020137,-0.031801,0.088836,-0.979268,-0.650524,-0.019750,4.210086,-2.257768,-9.288581
1790549083.4281,-0.019279,-0.013980,0.150877,-0.019536,-0.019326,0.150877,-1.271876,-0.608029,-0.085314,3.213558,-0.435949,-5.213406
1790549083.4420,-0.012236,0.001481,0.163226,-0.014426,-0.004761,0.163226,-1.330155,-0.929777,-0.088956,1.757095,-0.138509,-5.058161
1790549083.4560,-0.010330,0.011343,0.163779,-0.011559,0.006512,0.163779,-0.902777,-0.309350,-0.377922,2.561982,-0.026969,-13.907112
1790549083.4704,-0.012282,0.003794,0.152991,-0.012065,0.004609,0.152991,0.656181,0.374212,-0.490837,-2.037376,4.137191,-16.119350
1790549083.4846,-0.013551,0.001234,0.141759,-0.013105,0.002247,0.141759,0.219090,0.217588,-0.733665,-0.082648,2.464091,-14.295224
1790549083.4986,-0.015994,-0.002093,0.127561,-0.015127,-0.000791,0.127561,0.191165,0.294079,-1.044486,0.415615,1.051251,-10.879840
1790549083.5126,-0.028828,-0.001025,0.114220,-0.024718,-0.000955,0.114220,0.011472,0.768808,-1.033558,1.833751,1.311511,-6.377742
1790549083.5268,-0.027695,-0.004841,0.103403,-0.026802,-0.003675,0.103403,0.226375,0.098602,-0.805300,-0.235960,0.679451,-7.774944
1790549083.5409,-0.028772,-0.008662,0.091893,-0.028181,-0.007166,0.091893,0.295581,0.200590,-0.778589,0.108991,1.348691,-9.599070
1790549083.5545,-0.026660,-0.013478,0.081749,-0.027116,-0.011584,0.081749,0.387856,0.000256,-0.676601,-0.312616,1.423051,-9.715504
1790549083.5681,-0.023019,-0.016834,0.074913,-0.024248,-0.015259,0.074913,0.299223,-0.167295,-0.437415,-0.197632,1.720491,-10.375294
1790549083.5821,-0.022700,-0.019413,0.074043,-0.023164,-0.018167,0.074043,0.240945,-0.087162,-0.088956,0.798895,1.646131,-9.443825
1790549083.5960,-0.023111,-0.019337,0.072068,-0.023127,-0.018986,0.072068,0.183880,0.013612,0.093165,0.223975,2.761531,-9.210958
1790549083.6099,-0.022810,-0.022390,0.072053,-0.022905,-0.021369,0.072053,0.324720,-0.010671,0.195153,-0.120976,2.241011,-10.064805
1790549083.6240,-0.021845,-0.024169,0.073814,-0.022163,-0.023329,0.073814,0.282226,-0.087162,0.327495,-0.005993,2.464091,-9.016902
1790549083.6381,-0.023872,-0.026895,0.082370,-0.023360,-0.025825,0.082370,0.305294,0.012398,0.543612,0.722239,2.017931,-8.667602
1790549083.6522,-0.029298,-0.028045,0.088393,-0.027517,-0.027379,0.088393,0.154741,0.348715,0.713592,-0.159304,2.315371,-11.617252
1790549083.6662,-0.032508,-0.024088,0.090535,-0.031010,-0.025076,0.090535,-0.237427,0.315933,0.824079,-2.037376,2.649991,-14.450469
1790549083.6816,-0.031485,-0.022768,0.094842,-0.031343,-0.023460,0.094842,-0.186433,0.132598,1.102117,-3.570495,0.530731,-10.918651
1790549083.6964,-0.030653,-0.026057,0.107901,-0.030860,-0.025278,0.107901,-0.005526,-0.008243,1.343732,-1.539112,-0.621849,-8.279490
1790549083.7113,-0.050846,-0.034762,0.143006,-0.044850,-0.031917,0.143006,0.237302,0.952144,1.461504,2.102047,-1.514168,-6.921098
1790549083.7258,-0.048172,-0.045806,0.161547,-0.047176,-0.041639,0.161547,0.506842,-0.032526,1.340089,-2.497311,-0.956469,-9.599070
1790549083.7411,-0.046206,-0.059605,0.177431,-0.046497,-0.054216,0.177431,0.603973,0.124099,0.955206,-4.030431,-2.406488,-11.500819
1790549083.7552,-0.053667,-0.062992,0.185447,-0.051516,-0.060359,0.185447,0.106175,0.589115,0.774299,-0.734224,-0.175689,-10.142427
1790549083.7689,-0.059040,-0.072453,0.191371,-0.056783,-0.068825,0.191371,0.498343,0.454345,0.746374,-0.734224,-0.882109,-11.656063
1790549083.7826,-0.061731,-0.079810,0.205204,-0.060247,-0.076515,0.205204,0.563906,0.273438,0.618889,-0.465928,0.976891,-8.318301
1790549083.7963,-0.071643,-0.086093,0.212606,-0.068224,-0.083220,0.212606,0.432779,0.618255,0.592178,0.913879,0.456371,-6.727042
1790549083.8104,-0.073049,-0.095279,0.218605,-0.071602,-0.091662,0.218605,0.484987,0.288008,0.525400,-1.500784,-0.844929,-9.599070
1790549083.8243,-0.064372,-0.098706,0.223569,-0.066541,-0.096592,0.223569,0.140171,-0.644453,0.594606,0.760567,-0.287229,-14.955014
1790549083.8382,-0.052140,-0.089840,0.227867,-0.056460,-0.091865,0.227867,-0.666019,-0.927348,0.338422,1.105519,0.679451,-14.295224
1790549083.8521,-0.056769,-0.078784,0.219526,-0.056676,-0.082708,0.219526,-1.077614,-0.085948,0.247361,5.129957,-2.480848,-9.637881
1790549083.8660,-0.052230,-0.065889,0.216132,-0.053564,-0.070935,0.216132,-1.192957,-0.676021,0.251004,3.443526,-1.737248,-8.085434
1790549083.8799,-0.040656,-0.048724,0.216613,-0.044528,-0.055387,0.216613,-1.511062,-1.015981,0.249790,0.913879,-0.844929,-4.553616
1790549083.8939,-0.024148,-0.019545,0.228065,-0.030262,-0.030298,0.228065,-1.824311,-1.632765,0.181798,1.143847,0.939711,-1.914455
1790549083.9079,-0.012111,0.015533,0.271794,-0.017556,0.001784,0.271794,-2.187340,-1.612125,0.493832,3.251886,2.017931,-2.263755
1790549083.9220,-0.000443,0.038921,0.283250,-0.005577,0.027780,0.283250,-1.877733,-0.899423,-0.010037,1.335487,-1.179549,-19.263056
1790549083.9361,-0.016930,0.020376,0.282946,-0.013524,0.022597,0.282946,1.194046,1.476653,-0.692385,-3.493839,0.605091,-21.281238
1790549083.9503,0.002614,0.015991,0.268869,-0.002227,0.017973,0.268869,0.531125,-1.031765,-1.057841,-5.295254,9.230850,-21.281238
1790549083.9644,-0.013112,0.017064,0.233994,-0.009846,0.017337,0.233994,0.040611,0.869582,-0.841724,2.906934,1.757671,-5.756762
1790549083.9787,-0.012221,0.017737,0.237933,-0.011509,0.017617,0.237933,-0.034666,0.620683,-1.080910,-3.225543,0.790991,-4.747672
1790549083.9926,-0.007142,0.008432,0.235305,-0.008452,0.011188,0.235305,0.506842,-0.096875,-0.691170,-1.309144,-0.250049,-7.464455
1790549084.0066,-0.013506,0.005716,0.215809,-0.011990,0.007357,0.215809,0.437636,0.550263,-0.839296,0.415615,3.467951,-7.774944
1790549084.0203,-0.017042,0.006694,0.201959,-0.015527,0.006893,0.201959,0.137743,0.449489,-0.766447,-0.657568,3.542311,-9.016902
1790549084.0339,-0.016616,0.005529,0.191247,-0.016289,0.005938,0.191247,0.174167,0.165380,-0.745807,-0.925864,2.687171,-11.073895
1790549084.0480,-0.020874,0.005437,0.184413,-0.019499,0.005587,0.184413,0.140171,0.271010,-0.324500,0.990535,2.575631,-8.357112
1790549084.0619,-0.022564,0.002148,0.185396,-0.021645,0.003180,0.185396,0.260371,0.150810,0.125947,-0.312616,1.571771,-8.861658
1790549084.0759,-0.027212,0.004887,0.184774,-0.025542,0.004375,0.184774,-0.026167,0.387568,0.178155,-0.772552,3.839751,-10.491728
1790549084.0899,-0.026455,0.002597,0.182387,-0.026181,0.003130,0.182387,0.238516,0.109529,0.056741,-2.152360,2.798711,-11.578441
1790549084.1038,-0.024170,-0.000977,0.186989,-0.024773,0.000255,0.186989,0.482559,-0.100518,0.369990,-1.232488,4.211551,-9.405014
1790549084.1178,-0.023468,-0.003809,0.201187,-0.023859,-0.002589,0.201187,0.431565,-0.150297,0.787655,0.032335,3.765391,-8.085434
1790549084.1317,-0.029650,-0.001029,0.211353,-0.027913,-0.001497,0.211353,-0.079589,0.410636,1.053552,-1.232488,3.653851,-11.229140
1790549084.1462,-0.029830,0.004401,0.216976,-0.029255,0.002631,0.216976,-0.301777,0.091317,1.289095,-3.532167,3.319231,-10.957462
1790549084.1602,-0.027268,-0.003598,0.234470,-0.027864,-0.001729,0.234470,0.370858,-0.402839,1.573205,0.108991,-0.584669,-10.996273
1790549084.1742,-0.033318,-0.011023,0.276652,-0.031682,-0.008235,0.276652,0.539624,-0.047095,1.806320,2.178703,1.385871,-6.804665
1790549084.1882,-0.043003,-0.019013,0.308072,-0.039607,-0.015780,0.308072,0.454634,0.314719,1.715259,1.987063,0.382011,-8.473546
1790549084.2022,-0.042779,-0.028240,0.304452,-0.041827,-0.024502,0.304452,0.480131,0.154452,1.074192,-3.378855,-0.547489,-9.870749
1790549084.2164,-0.046464,-0.035110,0.305644,-0.045073,-0.031928,0.305644,0.358716,0.298935,0.565467,-0.849208,-0.212869,-10.452916
1790549084.2307,-0.058333,-0.044931,0.308814,-0.054355,-0.041030,0.308814,0.533553,0.765166,0.475620,0.798895,-0.733389,-10.957462
1790549084.2444,-0.064992,-0.052048,0.313729,-0.061801,-0.048743,0.313729,0.506842,0.506553,0.499903,-0.159304,0.976891,-9.094525
1790549084.2582,-0.069669,-0.061705,0.317039,-0.067309,-0.057816,0.317039,0.705961,0.372998,0.329923,-0.082648,1.088431,-9.831937
1790549084.2722,-0.071853,-0.069416,0.317606,-0.070490,-0.065936,0.317606,0.534767,0.266153,0.263145,-1.079176,0.865351,-11.190329
1790549084.2861,-0.063701,-0.073653,0.316525,-0.065738,-0.071338,0.316525,0.180238,-0.523039,0.297141,-0.695896,-0.807749,-14.411658
1790549084.3001,-0.050627,-0.073332,0.315229,-0.055160,-0.072734,0.315229,-0.184005,-0.957702,0.196367,0.875551,-1.774428,-15.459560
1790549084.3141,-0.053233,-0.067780,0.331038,-0.053811,-0.069266,0.331038,-0.568888,-0.156368,0.303212,4.823333,-1.476988,-9.482637
1790549084.3279,-0.048228,-0.057829,0.341629,-0.049903,-0.061260,0.341629,-0.889422,-0.690591,0.263145,3.596838,-1.030829,-7.580888
1790549084.3420,-0.030404,-0.038983,0.346757,-0.036254,-0.045666,0.346757,-1.404218,-1.466427,0.186654,1.373815,0.196111,-5.368651
1790549084.3561,-0.017530,-0.017828,0.355015,-0.023147,-0.026179,0.355015,-1.623978,-1.264880,0.122305,2.255358,-0.175689,-4.670049
1790549084.3701,-0.002824,0.007144,0.361036,-0.008921,-0.002853,0.361036,-1.899588,-1.325587,0.105307,1.795423,-0.026969,-5.329839
1790549084.3840,0.005793,0.028055,0.357889,0.001379,0.018783,0.357889,-1.491636,-0.655381,-0.206728,0.530599,1.460231,-7.697322
1790549084.3980,-0.014884,0.017006,0.339086,-0.010005,0.017539,0.339086,0.783666,1.572570,-0.994706,2.332014,2.798711,-17.943476
1790549084.4119,-0.007947,0.011400,0.314356,-0.008564,0.013242,0.314356,0.594260,-0.258356,-1.327381,-0.619240,5.326951,-12.936833
1790549084.4258,-0.023601,0.021349,0.301682,-0.019090,0.018917,0.301682,-0.492397,0.876867,-0.834439,4.899989,3.802571,-6.959909
1790549084.4397,-0.027300,0.019688,0.297782,-0.024837,0.019457,0.297782,0.041825,0.426420,-0.733665,-0.197632,0.419191,-9.405014
1790549084.4537,-0.017606,0.008175,0.291243,-0.019775,0.011560,0.291243,0.809163,-0.397982,-0.755520,-2.420655,1.199971,-10.297672
1790549084.4677,-0.006895,0.001044,0.273694,-0.010759,0.004198,0.273694,0.670751,-0.396768,-0.851437,-2.190688,2.278191,-5.989630
1790549084.4819,-0.003001,-0.001871,0.257813,-0.005329,-0.000050,0.257813,0.395141,-0.106588,-0.677815,-0.580912,2.278191,-5.407462
1790549084.4956,0.003190,-0.011925,0.246714,0.000635,-0.008363,0.246714,0.765454,-0.229217,-0.621964,-1.845736,1.683311,-9.405014
1790549084.5097,0.010186,-0.022045,0.238163,0.007321,-0.017941,0.238163,0.780024,-0.305708,-0.405847,-1.730752,1.720491,-8.046623
1790549084.5237,0.011046,-0.027078,0.236101,0.009928,-0.024337,0.236101,0.488630,-0.009457,-0.024606,-0.925864,3.319231,-10.957462
1790549084.5378,0.002214,-0.031834,0.236514,0.004528,-0.029585,0.236514,0.347789,0.635252,0.175727,-0.695896,2.166651,-17.244875
1790549084.5518,-0.001067,-0.029485,0.238288,0.000611,-0.029515,0.238288,-0.154866,0.325646,0.420984,-3.570495,2.426911,-18.525644
1790549084.5659,-0.002509,-0.024309,0.244107,-0.001573,-0.025871,0.244107,-0.366126,0.209089,0.679596,-2.305671,1.051251,-8.706413
1790549084.5800,-0.010746,-0.017837,0.251708,-0.007994,-0.020247,0.251708,-0.519108,0.624325,0.849576,-0.925864,0.233291,-4.941727
1790549084.5940,-0.015683,-0.010236,0.267883,-0.013376,-0.013239,0.267883,-0.520322,0.558762,0.912711,-1.539112,0.567911,-3.156413
1790549084.6080,-0.024267,-0.001073,0.287740,-0.021000,-0.004723,0.287740,-0.537320,0.504125,1.019556,-0.082648,1.832031,-5.407462
1790549084.6220,-0.025572,-0.007324,0.303123,-0.024201,-0.006543,0.303123,0.340504,-0.072592,1.359516,-0.235960,0.605091,-19.069001
1790549084.6359,-0.032864,-0.010262,0.326419,-0.030265,-0.009146,0.326419,0.214234,0.295293,1.517354,0.568927,1.646131,-8.706413
1790549084.6500,-0.036363,-0.012514,0.345397,-0.034534,-0.011504,0.345397,0.028470,0.063392,1.637554,-0.120976,0.196111,-10.841028
1790549084.6640,-0.038200,-0.020996,0.353467,-0.037100,-0.018148,0.353467,0.448563,0.121670,1.042624,-1.309144,-0.435949,-9.482637
1790549084.6780,-0.042745,-0.027777,0.359345,-0.041052,-0.024888,0.359345,0.410925,0.449489,0.667455,-2.114032,0.382011,-8.395923
1790549084.6920,-0.057479,-0.036789,0.361756,-0.052551,-0.033219,0.361756,0.551765,0.981283,0.497475,0.760567,0.047391,-9.172147
1790549084.7056,-0.063967,-0.045085,0.369094,-0.060542,-0.041525,0.369094,0.611258,0.454345,0.503545,0.185647,1.125611,-8.240679
1790549084.7195,-0.068815,-0.055720,0.373902,-0.066333,-0.051461,0.373902,0.737529,0.351143,0.450123,0.070663,0.902531,-10.841028
1790549084.7342,-0.069094,-0.061931,0.381498,-0.068266,-0.058790,0.381498,0.474060,0.054893,0.251004,-0.235960,1.980751,-10.996273
1790549084.7484,-0.058254,-0.063408,0.383469,-0.061257,-0.062023,0.383469,0.072179,-0.697876,0.238862,-0.810880,0.753811,-12.044175
1790549084.7626,-0.048704,-0.061480,0.384218,-0.052470,-0.061642,0.384218,-0.289635,-0.792579,0.172085,2.293686,-1.476988,-11.772497
1790549084.7765,-0.044894,-0.052629,0.395253,-0.047167,-0.055333,0.395253,-0.765579,-0.524253,0.264359,3.788478,-0.919289,-9.870749
1790549084.7906,-0.041400,-0.040080,0.410757,-0.043130,-0.044656,0.410757,-1.122537,-0.567962,0.146588,4.018446,-2.034688,-7.386832
1790549084.8046,-0.030805,-0.019959,0.413902,-0.034503,-0.027368,0.413902,-1.536559,-0.974700,0.032458,1.948735,-0.138509,-5.679140
1790549084.8186,-0.013799,0.006478,0.418014,-0.020010,-0.003676,0.418014,-1.923871,-1.478569,-0.054960,1.757095,0.493551,-4.398371
1790549084.8326,0.005194,0.036438,0.425789,-0.002367,0.024404,0.425789,-2.222550,-1.678902,-0.003966,1.795423,0.196111,-3.855014
1790549084.8464,-0.021778,0.036605,0.420042,-0.015955,0.032945,0.420042,-0.148795,1.888247,-0.335427,5.053301,-0.473129,-21.281238
1790549084.8604,-0.016666,0.017845,0.415262,-0.016452,0.022375,0.415262,1.464800,-0.027669,-0.691170,-5.716862,5.661571,-16.817952
1790549084.8743,-0.016791,0.021770,0.395023,-0.016690,0.021951,0.395023,0.085534,0.358428,-1.305526,-2.382327,8.226990,-9.715504
1790549084.8883,-0.028337,0.025980,0.376779,-0.024843,0.024771,0.376779,-0.074732,0.851370,-1.239963,1.718767,2.538451,-4.825294
1790549084.9024,-0.024689,0.027879,0.357494,-0.024735,0.026947,0.357494,0.028470,0.104672,-0.940070,-1.194160,1.571771,-3.855014
1790549084.9166,-0.021549,0.024212,0.347167,-0.022505,0.025033,0.347167,0.474060,-0.072592,-0.653532,-0.197632,2.129471,-4.165504
1790549084.9303,-0.017626,0.017265,0.332862,-0.019090,0.019595,0.332862,0.593046,-0.056808,-0.753092,-1.577440,3.021791,-10.957462
1790549084.9440,-0.017841,0.015974,0.323232,-0.018216,0.017060,0.323232,0.291939,0.196947,-0.602538,-1.040848,4.137191,-8.861658
1790549084.9576,-0.013904,0.012271,0.310441,-0.015198,0.013708,0.310441,0.431565,0.003899,-0.437415,-2.650623,3.133331,-7.619700
1790549084.9716,-0.014743,0.009533,0.309756,-0.014879,0.010785,0.309756,0.344147,0.145953,-0.092598,-0.810880,3.133331,-8.007811
1790549084.9861,-0.013458,0.005748,0.307887,-0.013885,0.007259,0.307887,0.367215,0.024539,0.297141,-2.229015,3.058971,-9.133336
1790549085.0002,-0.013153,-0.002023,0.308774,-0.013373,0.000762,0.308774,0.605187,0.035466,0.561824,-2.688951,3.244871,-13.519000
1790549085.0142,-0.016502,-0.008161,0.312835,-0.015563,-0.005484,0.312835,0.503199,0.290436,0.781584,-3.340527,3.802571,-14.916203
1790549085.0284,-0.016954,-0.007325,0.315082,-0.016537,-0.006773,0.315082,-0.040736,0.122885,0.909069,-3.877119,2.389731,-12.238231
1790549085.0424,-0.023102,-0.005874,0.317305,-0.021132,-0.006144,0.317305,-0.191290,0.419135,1.104546,-1.232488,0.307651,-7.425644
1790549085.0565,-0.026248,-0.005183,0.321965,-0.024713,-0.005471,0.321965,-0.131797,0.232157,1.179823,-1.424128,0.382011,-6.261308
1790549085.0705,-0.021767,-0.013545,0.330241,-0.022651,-0.011123,0.330241,0.375714,-0.389483,1.381370,-1.462456,-1.402628,-9.172147
1790549085.0844,-0.028082,-0.023219,0.356483,-0.026452,-0.019590,0.356483,0.555407,0.150810,1.686120,1.680439,-0.435949,-10.685784
1790549085.0984,-0.033383,-0.031701,0.374564,-0.031304,-0.028068,0.374564,0.452205,0.393638,1.688548,-3.378855,-0.584669,-11.423196
1790549085.1123,-0.030703,-0.038202,0.389048,-0.030883,-0.035162,0.389048,0.322292,-0.184293,1.480930,-3.110559,-0.584669,-13.363756
1790549085.1263,-0.035520,-0.047330,0.395166,-0.034129,-0.043679,0.395166,0.489844,0.269796,1.060837,-0.120976,-0.882109,-9.288581
1790549085.1403,-0.053964,-0.054805,0.407072,-0.048014,-0.051467,0.407072,0.414567,1.146406,0.936994,1.603783,-0.361589,-9.172147
1790549085.1544,-0.066847,-0.062567,0.426498,-0.061197,-0.059237,0.426498,0.569977,0.805232,0.876287,0.837223,1.162791,-6.882287
1790549085.1680,-0.073944,-0.072337,0.445375,-0.070120,-0.068407,0.445375,0.769096,0.461630,0.697808,0.607255,1.646131,-8.007811
1790549085.1817,-0.081574,-0.080428,0.457154,-0.078138,-0.076822,0.457154,0.594260,0.521123,0.623745,0.683911,1.274331,-9.909560
1790549085.1958,-0.075778,-0.088044,0.460613,-0.076486,-0.084678,0.460613,0.427923,-0.382199,0.645600,-0.504256,-0.547489,-16.546273
1790549085.2098,-0.070278,-0.086482,0.465699,-0.072140,-0.085941,0.465699,-0.236213,-0.467189,0.498689,1.987063,-1.105189,-14.450469
1790549085.2240,-0.064613,-0.082348,0.475141,-0.066871,-0.083426,0.475141,-0.447474,-0.532752,0.474406,2.753622,-1.700068,-12.238231
1790549085.2386,-0.061827,-0.072702,0.524523,-0.063340,-0.075919,0.524523,-0.755866,-0.561892,0.563038,4.401726,-0.473129,-6.571797
1790549085.2531,-0.048416,-0.053943,0.543714,-0.052894,-0.060536,0.543714,-1.358080,-1.147108,0.691737,2.332014,0.344831,-7.580888
1790549085.2672,-0.028778,-0.029441,0.551488,-0.036013,-0.038769,0.551488,-1.827953,-1.485854,0.450123,0.568927,0.084571,-7.037532
1790549085.2813,-0.013506,-0.002508,0.577001,-0.020258,-0.013386,0.577001,-2.062283,-1.444573,0.328709,2.791950,-0.696209,-4.980539
1790549085.2954,0.007161,0.028111,0.588271,-0.001065,0.015662,0.588271,-2.226192,-1.686187,0.340850,0.837223,0.419191,-4.087881
1790549085.3093,0.006694,0.044979,0.587153,0.004366,0.036184,0.587153,-1.107967,0.099816,-0.103526,-0.619240,2.575631,-7.153965
1790549085.3232,-0.019650,0.041917,0.570201,-0.012445,0.040197,0.570201,0.228803,2.159001,-0.733665,-1.884064,3.058971,-15.537182
1790549085.3373,0.000901,0.041752,0.552432,-0.003103,0.041286,0.552432,0.128029,-1.077902,-1.524072,-2.458983,4.397451,-11.811308
1790549085.3514,-0.013218,0.043557,0.551102,-0.010184,0.042876,0.551102,-0.071090,0.875653,-1.010490,3.366870,1.646131,-5.523895
1790549085.3654,-0.004964,0.046026,0.524348,-0.006530,0.045081,0.524348,0.040611,0.040323,-0.935213,-1.002520,0.642271,-0.827741
1790549085.3794,0.001773,0.040544,0.509885,-0.000718,0.041905,0.509885,0.356288,-0.237716,-0.744593,-1.155832,0.902531,-6.649420
1790549085.3930,0.004718,0.031644,0.493925,0.003087,0.034722,0.493925,0.669537,0.115600,-0.893932,-2.727279,2.166651,-9.870749
1790549085.4067,0.009867,0.026125,0.487461,0.007833,0.028704,0.487461,0.545694,-0.078663,-0.798015,-2.497311,3.616671,-8.512357
1790549085.4207,0.011707,0.020502,0.482877,0.010545,0.022963,0.482877,0.518983,0.071891,-0.574613,-1.769080,3.319231,-8.900469
1790549085.4345,0.008529,0.015319,0.490125,0.009134,0.017612,0.490125,0.509270,0.233371,-0.210370,0.300631,3.653851,-9.599070
1790549085.4487,0.012988,0.011022,0.492982,0.011832,0.012999,0.492982,0.419424,-0.224360,0.180584,-2.075704,3.319231,-9.366203
1790549085.4629,0.008252,0.010638,0.505931,0.009326,0.011346,0.505931,0.264013,0.387568,0.430697,-2.343999,5.810290,-10.025993
1790549085.4771,0.002971,0.010452,0.505200,0.004877,0.010720,0.505200,0.063680,0.426420,0.561824,-3.340527,3.579491,-14.799770
1790549085.4913,0.006682,0.008187,0.502623,0.006141,0.008947,0.502623,0.168096,-0.196435,0.888428,-4.145415,2.166651,-12.393476
1790549085.5054,-0.000397,0.008616,0.505437,0.001564,0.008715,0.505437,-0.021310,0.510196,1.069336,-2.114032,1.385871,-7.969000
1790549085.5196,-0.008928,0.009101,0.507691,-0.005781,0.008985,0.507691,-0.117227,0.525980,1.232031,-0.925864,0.270471,-6.338930
1790549085.5335,-0.008385,-0.001209,0.509601,-0.007604,0.001849,0.509601,0.504414,-0.201291,1.448148,-0.542584,-1.551348,-7.969000
1790549085.5475,-0.017018,-0.012903,0.522832,-0.014194,-0.008477,0.522832,0.690177,0.380283,1.547708,0.492271,-0.547489,-8.201867
1790549085.5616,-0.022130,-0.017083,0.533280,-0.019749,-0.014501,0.533280,0.181452,0.347501,1.502784,-2.880591,-0.064149,-10.996273
1790549085.5757,-0.022670,-0.025362,0.537856,-0.021794,-0.022103,0.537856,0.431565,0.050036,1.155540,-3.072231,-1.142369,-13.829490
1790549085.5896,-0.029990,-0.033064,0.540527,-0.027531,-0.029776,0.540527,0.431565,0.482271,0.940637,-0.580912,-0.287229,-8.822846
1790549085.6036,-0.048842,-0.040935,0.560564,-0.042449,-0.037587,0.560564,0.577262,1.174332,0.895713,1.488799,1.311511,-8.473546
1790549085.6175,-0.062141,-0.049948,0.571092,-0.056233,-0.046240,0.571092,0.614900,0.875653,0.793725,0.415615,0.716631,-6.921098
1790549085.6312,-0.065559,-0.061219,0.577986,-0.062761,-0.056725,0.577986,0.797022,0.266153,0.600677,-0.389272,0.865351,-9.288581
1790549085.6448,-0.071095,-0.070636,0.577615,-0.068595,-0.066463,0.577615,0.560264,0.388782,0.578822,0.377287,-0.770569,-12.315854
1790549085.6590,-0.066676,-0.073720,0.580219,-0.067252,-0.071543,0.580219,0.112246,-0.300851,0.601891,-0.350944,-0.361589,-16.080539
1790549085.6732,-0.057439,-0.068916,0.582338,-0.060383,-0.069704,0.582338,-0.425619,-0.689377,0.423412,0.798895,-0.175689,-12.005364
1790549085.6873,-0.051209,-0.062196,0.602375,-0.053961,-0.064448,0.602375,-0.661163,-0.685734,0.444052,3.558510,-1.923148,-8.900469
1790549085.7013,-0.045683,-0.050697,0.634706,-0.048167,-0.054822,0.634706,-0.974412,-0.734300,0.532685,4.286742,-1.253909,-7.736133
1790549085.7153,-0.033751,-0.030059,0.658838,-0.038075,-0.037488,0.658838,-1.548701,-1.167749,0.638315,2.791950,0.084571,-6.261308
1790549085.7295,-0.014786,-0.002715,0.671714,-0.021773,-0.013147,0.671714,-2.038000,-1.579343,0.408842,1.527127,-0.138509,-5.019350
1790549085.7439,0.001472,0.028994,0.696491,-0.005502,0.016352,0.696491,-2.292970,-1.505280,0.285000,2.332014,-0.026969,-4.049070
1790549085.7580,0.013703,0.051309,0.699716,0.007942,0.040822,0.699716,-1.653117,-0.888496,0.200010,-0.849208,0.939711,-13.402567
1790549085.7735,-0.017998,0.017544,0.689528,-0.010216,0.024528,0.689528,2.081584,2.082510,-0.170303,1.450471,-0.287229,-21.281238
1790549085.7884,0.011960,0.018299,0.705164,0.005307,0.020168,0.705164,0.203306,-1.466427,-1.394159,-8.208181,7.185950,-8.939280
1790549085.8031,-0.004705,0.020380,0.694516,-0.001701,0.020316,0.694516,-0.158508,0.932717,-0.935213,7.199668,1.423051,-9.327392
1790549085.8175,0.003499,0.016393,0.681164,0.001939,0.017570,0.681164,0.257943,-0.293566,-0.841724,-2.573967,1.423051,-10.452916
1790549085.8323,0.008492,0.014256,0.678625,0.006526,0.015250,0.678625,0.255514,-0.360344,-0.581898,1.067191,2.166651,-5.873196
1790549085.8463,0.018828,0.010674,0.668280,0.015138,0.012047,0.668280,0.406068,-0.384627,-0.771304,-3.455511,3.393591,-7.270399
1790549085.8599,0.014916,0.009339,0.663026,0.014983,0.010151,0.663026,0.267656,0.455559,-0.727595,-1.040848,4.360271,-9.249770
1790549085.8737,0.026538,0.006408,0.650556,0.023071,0.007531,0.650556,0.317436,-0.506041,-0.584326,-4.260399,3.170511,-8.551168
1790549085.8877,0.017388,0.005646,0.651896,0.019093,0.006212,0.651896,0.211805,0.766380,-0.201871,-1.309144,3.616671,-8.279490
1790549085.9017,0.017274,0.004011,0.657561,0.017820,0.004671,0.657561,0.243373,0.057321,0.236434,-1.692424,3.616671,-10.181238
1790549085.9157,0.013262,0.002812,0.664124,0.014629,0.003370,0.664124,0.223947,0.330503,0.361491,-1.999048,4.174371,-11.151518
1790549085.9296,0.009244,0.000863,0.663155,0.010859,0.001615,0.663155,0.203306,0.383925,0.400343,-3.570495,3.467951,-13.751868
1790549085.9437,0.002166,0.000824,0.662378,0.004774,0.001061,0.662378,0.021185,0.575760,0.719663,-3.378855,2.166651,-12.005364
1790549085.9576,0.000689,0.001533,0.664099,0.001914,0.001391,0.664099,-0.054092,0.150810,0.904212,-2.765607,1.460231,-9.754315
1790549085.9716,-0.003890,0.003402,0.664494,-0.002148,0.002799,0.664494,-0.193718,0.329289,0.964919,-1.654096,0.493551,-7.580888
1790549085.9857,-0.008653,0.001472,0.666613,-0.006702,0.001870,0.666613,-0.028595,0.187234,1.134899,-0.082648,-0.844929,-8.551168
1790549086.0000,-0.011929,-0.010883,0.687858,-0.010361,-0.007057,0.687858,0.748456,-0.109017,1.520996,1.833751,-0.398769,-8.551168
1790549086.0142,-0.024873,-0.022540,0.709572,-0.020520,-0.017895,0.709572,0.725387,0.609756,1.604772,1.987063,-0.101329,-10.181238
1790549086.0280,-0.026742,-0.030231,0.719988,-0.024875,-0.026531,0.719988,0.436422,0.154452,1.487000,-3.493839,-0.175689,-12.121798
1790549086.0419,-0.029576,-0.040326,0.723987,-0.028166,-0.036187,0.723987,0.569977,0.220016,1.106974,-2.420655,-1.105189,-12.703965
1790549086.0559,-0.044796,-0.049993,0.735051,-0.039807,-0.045851,0.735051,0.563906,0.890222,1.026841,2.217030,-0.659029,-10.996273
1790549086.0698,-0.063319,-0.059282,0.759885,-0.056265,-0.055253,0.759885,0.701105,1.151263,1.111831,1.527127,1.646131,-7.891378
1790549086.0835,-0.076771,-0.069168,0.781381,-0.070619,-0.064993,0.781381,0.776381,0.898721,0.943065,0.607255,1.608951,-6.727042
1790549086.0972,-0.084334,-0.076522,0.798803,-0.080220,-0.073064,0.798803,0.603973,0.583044,0.774299,-0.427600,1.869211,-7.348021
1790549086.1112,-0.083912,-0.085082,0.803248,-0.082804,-0.081477,0.803248,0.510484,-0.013099,0.701451,-0.235960,-0.026969,-15.265504
1790549086.1253,-0.074230,-0.083541,0.805250,-0.076802,-0.082921,0.805250,-0.208288,-0.669950,0.522972,-0.159304,-0.361589,-16.740329
1790549086.1393,-0.070050,-0.076868,0.810063,-0.072076,-0.078684,0.810063,-0.619882,-0.438049,0.412485,3.021918,-1.439808,-11.966553
1790549086.1534,-0.062457,-0.072822,0.818798,-0.065343,-0.074581,0.818798,-0.499682,-0.764653,0.334780,3.328542,-2.183408,-7.930189
1790549086.1675,-0.055334,-0.059220,0.850431,-0.058337,-0.063828,0.850431,-0.997480,-0.895781,0.497475,3.098574,0.270471,-4.243126
1790549086.1813,-0.043438,-0.041529,0.867845,-0.047908,-0.048218,0.867845,-1.361723,-1.162892,0.639529,2.983590,0.047391,-6.610609
1790549086.1953,-0.015943,-0.013823,0.877253,-0.025532,-0.024142,0.877253,-2.070782,-2.058929,0.566681,0.223975,0.196111,-8.007811
1790549086.2093,0.007449,0.019251,0.892148,-0.002445,0.006233,0.892148,-2.476305,-2.006721,0.464693,2.830278,-0.361589,-6.649420
1790549086.2233,-0.006618,0.030964,0.887453,-0.005367,0.023544,0.887453,-1.061830,0.940002,-0.064673,2.868606,-3.447528,-18.215154
1790549086.2375,-0.016454,0.021136,0.874160,-0.013127,0.021858,0.874160,0.810377,1.175546,-0.932785,-8.706445,5.512851,-14.178791
1790549086.2519,0.026201,0.012514,0.866384,0.014402,0.015317,0.866384,0.715674,-2.565226,-1.129476,-7.824901,6.033370,-15.032637
1790549086.2659,0.017665,0.007757,0.854187,0.016686,0.010025,0.854187,0.403640,0.670463,-1.266674,1.297159,1.943571,-5.989630
1790549086.2800,0.025109,0.004322,0.835047,0.022582,0.006033,0.835047,0.310151,-0.094447,-1.174399,-3.953775,2.501271,-7.542077
1790549086.2939,0.038698,-0.002923,0.822468,0.033863,-0.000236,0.822468,0.438850,-0.849643,-0.806514,-0.734224,0.567911,-10.608161
1790549086.3079,0.037605,-0.007041,0.813547,0.036482,-0.004999,0.813547,0.361145,0.249155,-0.938855,-1.155832,3.282051,-10.375294
1790549086.3216,0.037049,-0.005538,0.811377,0.036879,-0.005376,0.811377,0.024827,0.156881,-0.686314,-0.772552,3.802571,-9.172147
1790549086.3353,0.039423,-0.007711,0.802525,0.038660,-0.007011,0.802525,0.260371,0.084032,-0.607395,-3.148887,3.244871,-8.939280
1790549086.3493,0.043965,-0.012373,0.802558,0.042373,-0.010764,0.802558,0.450991,-0.196435,-0.266221,-1.730752,2.835891,-7.969000
1790549086.3634,0.039845,-0.013282,0.812999,0.040604,-0.012527,0.812999,0.266442,0.302578,0.008175,-0.542584,3.616671,-7.386832
1790549086.3774,0.030533,-0.009744,0.827569,0.033554,-0.010579,0.827569,0.023613,0.641323,0.407628,-0.810880,5.252591,-8.318301
1790549086.3914,0.021015,-0.004867,0.818772,0.024777,-0.006580,0.818772,-0.341844,0.794305,0.572751,-6.253454,2.835891,-19.224245
1790549086.4055,0.021812,-0.001689,0.812692,0.022701,-0.003156,0.812692,-0.199789,0.068248,0.847148,-5.793518,2.389731,-13.130889
1790549086.4196,0.018959,-0.001331,0.803742,0.020082,-0.001878,0.803742,-0.086874,0.318361,1.064479,-3.110559,0.196111,-6.532986
1790549086.4335,0.012627,0.006933,0.819549,0.014863,0.004290,0.819549,-0.498468,0.413064,1.143398,-0.849208,1.088431,-3.855014
1790549086.4475,0.007970,0.013111,0.833062,0.010038,0.010465,0.833062,-0.392837,0.237014,1.102117,-0.580912,0.939711,-4.398371
1790549086.4617,0.013596,0.008246,0.836728,0.012529,0.008912,0.836728,0.238516,-0.530324,1.179823,-0.849208,-0.250049,-8.784035
1790549086.4757,-0.000463,0.007480,0.866819,0.003434,0.007910,0.866819,0.074607,0.637681,1.516140,2.676966,1.720491,-12.121798
1790549086.4899,-0.008094,0.005566,0.875243,-0.004636,0.006269,0.875243,0.075821,0.442204,1.456647,-1.730752,0.679451,-9.599070
1790549086.5045,-0.006715,0.003100,0.889579,-0.006091,0.004051,0.889579,0.124387,-0.263213,1.315806,-0.465928,0.976891,-11.151518
1790549086.5184,-0.007626,-0.002666,0.884656,-0.007165,-0.000651,0.884656,0.262799,0.059749,0.782798,-1.577440,-0.733389,-9.948371
1790549086.5324,-0.011129,-0.008759,0.889781,-0.009940,-0.006327,0.889781,0.397569,0.152024,0.480477,0.568927,0.716631,-9.094525
1790549086.5460,-0.019613,-0.015579,0.905951,-0.016711,-0.012803,0.905951,0.537195,0.449489,0.437982,1.642111,1.460231,-8.201867
1790549086.5598,-0.026402,-0.023816,0.918358,-0.023495,-0.020512,0.918358,0.654967,0.403351,0.401557,0.837223,1.980751,-9.482637
1790549086.5738,-0.033511,-0.030254,0.927028,-0.030506,-0.027331,0.927028,0.506842,0.451917,0.243719,0.760567,2.017931,-10.452916
1790549086.5876,-0.025148,-0.035546,0.921299,-0.026755,-0.033082,0.921299,0.290725,-0.555821,0.209723,-1.194160,-0.175689,-13.324944
1790549086.6016,-0.012769,-0.027463,0.920179,-0.016965,-0.029149,0.920179,-0.621096,-0.895781,0.034887,0.185647,0.679451,-12.781588
1790549086.6156,-0.004283,-0.020854,0.918036,-0.008088,-0.023342,0.918036,-0.579815,-0.682092,-0.048889,1.527127,-0.584669,-12.160609
1790549086.6296,0.002236,-0.011240,0.924004,-0.000861,-0.014871,0.924004,-0.828715,-0.656595,-0.105954,2.217030,-0.807749,-6.688231
1790549086.6436,0.013221,0.002987,0.932165,0.008996,-0.002370,0.932165,-1.088541,-0.975914,-0.154520,2.025391,0.121751,-6.338930
1790549086.6575,0.025662,0.022208,0.944901,0.020663,0.014835,0.944901,-1.401790,-1.120397,-0.156948,2.523654,0.828171,-6.804665
1790549086.6716,0.025552,0.035221,0.944942,0.024085,0.029105,0.944942,-1.018121,-0.107802,-0.317215,3.673494,0.493551,-14.566903
1790549086.6856,0.010139,0.028955,0.924814,0.014323,0.029000,0.924814,0.363573,1.341883,-0.954639,-1.845736,1.460231,-17.749420
1790549086.6996,0.021860,0.029386,0.914342,0.019599,0.029270,0.914342,0.137743,-0.410124,-1.355306,-3.187215,4.062831,-7.309210
1790549086.7136,0.027967,0.030219,0.904477,0.025457,0.029935,0.904477,-0.069876,-0.355487,-1.218108,1.297159,1.608951,-7.580888
1790549086.7276,0.017797,0.029844,0.898952,0.020095,0.029871,0.898952,0.162025,0.831944,-1.108835,0.875551,2.910251,-6.067252
1790549086.7418,0.018645,0.023595,0.882616,0.019080,0.025478,0.882616,0.403640,0.155666,-0.913358,-1.309144,1.608951,-11.112707
1790549086.7562,0.023922,0.019319,0.875855,0.022469,0.021167,0.875855,0.382999,-0.237716,-0.890290,-0.082648,3.319231,-9.366203
1790549086.7699,0.015734,0.016371,0.873105,0.017755,0.017810,0.873105,0.289510,0.617040,-0.691170,1.335487,3.021791,-9.560259
1790549086.7836,0.015827,0.013057,0.861593,0.016405,0.014483,0.861593,0.208163,0.149596,-0.436201,-1.385800,1.088431,-8.978091
1790549086.7972,0.019857,0.008503,0.855228,0.018822,0.010297,0.855228,0.362359,-0.156368,-0.192158,-1.807408,1.869211,-8.822846
1790549086.8112,0.021634,0.001631,0.858342,0.020790,0.004231,0.858342,0.555407,-0.106588,0.215794,-1.117504,2.315371,-9.521448
1790549086.8251,0.018618,-0.001608,0.865946,0.019270,0.000144,0.865946,0.373286,0.218802,0.298355,-1.002520,3.691031,-9.831937
1790549086.8389,0.023241,-0.008615,0.873255,0.022050,-0.005987,0.873255,0.679250,-0.287495,0.463479,-2.075704,3.802571,-8.939280
1790549086.8529,0.012032,-0.011416,0.887300,0.015038,-0.009788,0.887300,0.322292,0.717814,0.821651,-0.695896,4.062831,-13.014455
1790549086.8669,0.012002,-0.007804,0.890942,0.012913,-0.008399,0.890942,-0.203431,0.039109,1.117901,-3.838791,2.538451,-11.694875
1790549086.8810,0.003247,-0.004902,0.903813,0.006147,-0.005951,0.903813,-0.146367,0.551477,1.352231,-1.807408,2.166651,-9.637881
1790549086.8950,-0.001614,-0.008177,0.911048,0.000714,-0.007509,0.911048,0.149884,0.249155,1.406867,-1.194160,0.010211,-8.357112
1790549086.9090,-0.001053,-0.011823,0.922878,-0.000523,-0.010529,0.922878,0.214234,-0.134514,1.591417,-1.155832,0.382011,-6.067252
1790549086.9230,-0.010887,-0.017392,0.943002,-0.007778,-0.015333,0.943002,0.312579,0.449489,1.673978,0.607255,-0.064149,-7.969000
1790549086.9369,-0.018845,-0.027409,0.951448,-0.015525,-0.023786,0.951448,0.545694,0.473772,1.666694,-1.424128,-1.253909,-10.064805
1790549086.9510,-0.020305,-0.035987,0.964730,-0.018871,-0.032327,0.964730,0.503199,0.018468,1.610843,-1.539112,-0.175689,-11.462007
1790549086.9650,-0.025840,-0.036927,0.970292,-0.023749,-0.035547,0.970292,-0.005526,0.439776,1.040196,-2.650623,0.344831,-11.462007
1790549086.9790,-0.034345,-0.040807,0.978114,-0.031166,-0.039229,0.978114,0.192379,0.499269,0.822865,0.722239,0.010211,-10.258860
1790549086.9930,-0.041239,-0.046632,0.991974,-0.038217,-0.044411,0.991974,0.441278,0.386353,0.618889,0.837223,1.199971,-7.464455
1790549087.0070,-0.051821,-0.053188,1.014960,-0.047740,-0.050555,1.014960,0.537195,0.574545,0.587321,2.025391,1.869211,-8.046623
1790549087.0208,-0.057793,-0.061791,1.019754,-0.054777,-0.058420,1.019754,0.617329,0.414279,0.378489,0.300631,0.976891,-9.521448
1790549087.0349,-0.058478,-0.069566,1.022781,-0.057368,-0.066222,1.022781,0.493486,0.035466,0.446481,0.300631,0.270471,-13.907112
1790549087.0488,-0.049458,-0.067240,1.024632,-0.051831,-0.066935,1.024632,-0.234999,-0.662665,0.325067,0.415615,0.010211,-14.644525
1790549087.0628,-0.039877,-0.062240,1.029254,-0.043463,-0.063648,1.029254,-0.460829,-0.790150,0.227935,1.872079,-0.770569,-10.491728
1790549087.0768,-0.032173,-0.053753,1.042352,-0.035560,-0.056722,1.042352,-0.725512,-0.775581,0.140517,3.136902,-0.956469,-8.046623
1790549087.0908,-0.023941,-0.038132,1.062263,-0.027426,-0.043709,1.062263,-1.206313,-0.892138,0.196367,3.251886,-0.361589,-6.222497
1790549087.1046,-0.005975,-0.016657,1.075209,-0.012410,-0.024773,1.075209,-1.619121,-1.539276,0.157515,2.830278,0.158931,-8.007811
1790549087.1186,0.011679,0.012311,1.092763,0.004452,0.001186,1.092763,-2.146059,-1.609696,0.130804,3.558510,0.047391,-6.338930
1790549087.1326,0.022516,0.040689,1.104576,0.017097,0.028838,1.104576,-2.198267,-1.130110,0.084666,3.366870,-0.882109,-5.679140
1790549087.1465,-0.002249,0.030723,1.093667,0.003555,0.030158,1.093667,0.574834,1.859108,-0.563685,1.718767,-0.733389,-19.495924
1790549087.1605,0.009884,0.022446,1.070500,0.007986,0.024760,1.070500,0.668323,-0.429550,-1.260603,-8.361493,6.367990,-19.107812
1790549087.1745,0.009941,0.024432,1.050209,0.009355,0.024530,1.050209,0.075821,0.205446,-1.518001,0.645583,5.996190,-9.288581
1790549087.1886,-0.006415,0.027383,1.039057,-0.001684,0.026527,1.039057,-0.169435,1.068701,-1.277601,4.056774,1.757671,-6.183686
1790549087.2025,0.003849,0.025608,1.020494,0.002189,0.025884,1.020494,0.027256,-0.411338,-0.977708,-1.960720,0.010211,-6.843476
1790549087.2165,0.003792,0.021990,1.008985,0.003311,0.023158,1.008985,0.291939,0.154452,-0.728809,-0.465928,2.092291,-8.822846
1790549087.2302,0.003955,0.021480,0.991742,0.003762,0.021983,0.991742,0.160811,0.258868,-0.881791,-2.037376,3.691031,-9.249770
1790549087.2441,0.004936,0.022879,0.978721,0.004584,0.022610,0.978721,0.023613,0.156881,-0.585540,-2.190688,3.728211,-9.210958
1790549087.2581,0.002224,0.022080,0.967508,0.002932,0.022239,0.967508,0.142599,0.398495,-0.399776,-2.229015,3.058971,-9.288581
1790549087.2722,-0.000833,0.022840,0.963817,0.000297,0.022660,0.963817,0.055181,0.319576,-0.088956,-1.309144,3.244871,-8.861658
1790549087.2862,0.001580,0.021649,0.962910,0.001195,0.021953,0.962910,0.220304,-0.053166,0.248576,-2.803935,3.988471,-9.405014
1790549087.3002,0.010429,0.009912,0.965015,0.007659,0.013524,0.965015,0.873513,-0.584960,0.543612,-3.455511,2.761531,-13.557812
1790549087.3142,0.013091,0.001148,0.988766,0.011462,0.004861,0.988766,0.902652,-0.311778,0.797368,-0.312616,5.810290,-8.784035
1790549087.3282,0.001788,0.001561,1.007147,0.004690,0.002551,1.007147,0.069751,0.626754,1.024412,0.760567,4.211551,-14.217602
1790549087.3423,-0.002618,0.006948,1.016831,-0.000426,0.005628,1.016831,-0.268995,0.273438,1.241744,-2.765607,3.988471,-11.229140
1790549087.3565,-0.007009,0.003728,1.030889,-0.005034,0.004298,1.030889,0.202092,0.164165,1.429936,-0.964192,1.088431,-9.715504
1790549087.3705,-0.014528,0.000099,1.052935,-0.011680,0.001358,1.052935,0.255514,0.301363,1.551350,0.223975,1.125611,-7.309210
1790549087.3844,-0.020790,-0.005788,1.073788,-0.018057,-0.003644,1.073788,0.396355,0.237014,1.646053,-0.082648,1.088431,-8.201867
1790549087.3984,-0.027001,-0.016644,1.087114,-0.024318,-0.012744,1.087114,0.614900,0.309862,1.653338,-0.964192,-0.733389,-9.172147
1790549087.4124,-0.030746,-0.027241,1.099845,-0.028818,-0.022892,1.099845,0.605187,0.165380,1.517354,-1.040848,-0.696209,-10.297672
1790549087.4264,-0.030887,-0.032488,1.102611,-0.030266,-0.029609,1.102611,0.249444,0.097388,1.108188,-3.608823,-0.473129,-10.996273
1790549087.4402,-0.040459,-0.035213,1.112114,-0.037401,-0.033532,1.112114,0.124387,0.598828,0.884786,0.415615,0.382011,-11.306763
1790549087.4542,-0.046079,-0.042500,1.119304,-0.043476,-0.039810,1.119304,0.455848,0.348715,0.745160,0.070663,0.382011,-9.482637
1790549087.4678,-0.052748,-0.049272,1.133128,-0.049966,-0.046433,1.133128,0.512913,0.376640,0.707521,0.952207,1.348691,-8.085434
1790549087.4813,-0.060260,-0.058056,1.135315,-0.057172,-0.054570,1.135315,0.608830,0.589115,0.533899,-0.580912,0.567911,-8.978091
1790549087.4954,-0.062188,-0.067963,1.143782,-0.060683,-0.063945,1.143782,0.670751,0.071891,0.521758,1.182175,0.865351,-12.432287
1790549087.5098,-0.055354,-0.066400,1.148139,-0.056953,-0.065663,1.148139,-0.220429,-0.504827,0.463479,0.607255,-0.919289,-14.411658
1790549087.5239,-0.043858,-0.062972,1.152426,-0.047787,-0.063779,1.152426,-0.402551,-0.884853,0.275287,1.488799,-2.183408,-13.790679
1790549087.5379,-0.038950,-0.058279,1.171259,-0.041601,-0.059929,1.171259,-0.516680,-0.593459,0.232792,4.171758,-2.332128,-9.637881
1790549087.5520,-0.031504,-0.043893,1.196941,-0.034534,-0.048703,1.196941,-1.058187,-0.869070,0.275287,3.750150,0.270471,-6.106063
1790549087.5667,-0.017689,-0.021710,1.212185,-0.022742,-0.029808,1.212185,-1.560842,-1.176247,0.331137,2.408670,0.344831,-6.804665
1790549087.5809,0.008340,0.009114,1.222111,-0.000985,-0.002562,1.222111,-2.233477,-1.967868,0.198796,1.105519,0.344831,-8.007811
1790549087.5952,0.023775,0.042713,1.242708,0.016347,0.029130,1.242708,-2.478734,-1.523492,0.186654,4.286742,-0.584669,-5.291028
1790549087.6093,-0.016723,0.042933,1.233177,-0.006802,0.038792,1.233177,-0.290850,2.768500,-0.670530,8.732788,-5.157808,-15.304315
1790549087.6235,0.012325,0.027012,1.214456,0.006587,0.030546,1.214456,1.116341,-1.620624,-1.190183,-5.218598,1.943571,-11.656063
1790549087.6378,0.005657,0.032546,1.181132,0.005936,0.031946,1.181132,-0.080803,0.414279,-1.467007,5.589893,7.037230,-5.950818
1790549087.6519,-0.004230,0.027790,1.165238,-0.001181,0.029037,1.165238,0.333219,0.765166,-1.397801,3.060246,1.720491,-9.172147
1790549087.6659,0.005477,0.030334,1.148119,0.003480,0.029945,1.148119,-0.231357,-0.380984,-1.186540,-1.960720,0.976891,-10.181238
1790549087.6800,0.003926,0.026947,1.135685,0.003792,0.027846,1.135685,0.266442,0.246727,-0.762805,-0.082648,1.720491,-7.542077
1790549087.6936,0.002069,0.027644,1.113177,0.002586,0.027704,1.113177,0.086749,0.451917,-0.841724,-2.190688,3.170511,-7.386832
1790549087.7072,0.005050,0.029239,1.094915,0.004311,0.028778,1.094915,0.038183,0.082818,-0.578255,-3.148887,3.951291,-8.357112
1790549087.7213,0.005212,0.028503,1.082675,0.004942,0.028585,1.082675,0.162025,0.190876,-0.390063,-2.267343,3.542311,-9.327392
1790549087.7351,0.002315,0.028618,1.076331,0.003103,0.028608,1.076331,0.112246,0.323218,-0.085314,-1.692424,3.914111,-9.987182
1790549087.7493,0.003076,0.029365,1.070886,0.003084,0.029138,1.070886,-0.001884,0.130169,0.219436,-4.260399,2.835891,-10.530539
1790549087.7640,0.010555,0.014533,1.074788,0.008314,0.018914,1.074788,1.033779,-0.484187,0.543612,-2.573967,2.315371,-11.462007
1790549087.7781,0.018910,0.003741,1.084646,0.015731,0.008293,1.084646,0.931792,-0.558249,0.784012,-2.995575,3.988471,-9.249770
1790549087.7922,0.010885,-0.001508,1.106779,0.012339,0.001432,1.106779,0.550551,0.379069,1.165253,0.262303,4.471811,-10.530539
1790549087.8061,0.000224,0.004594,1.116578,0.003859,0.003645,1.116578,-0.302991,0.751810,1.150683,-2.957247,4.397451,-11.539630
1790549087.8201,-0.002190,0.007503,1.131737,-0.000375,0.006346,1.131737,-0.088088,0.109529,1.476073,-2.765607,3.691031,-10.025993
1790549087.8342,-0.008169,0.000396,1.147007,-0.005831,0.002181,1.147007,0.447349,0.263725,1.445720,-0.657568,0.493551,-8.628791
1790549087.8488,-0.016849,-0.002683,1.173633,-0.013543,-0.001224,1.173633,0.192379,0.314719,1.518568,0.645583,0.679451,-5.329839
1790549087.8644,-0.023197,-0.014066,1.192267,-0.020301,-0.010214,1.192267,0.624614,0.254012,1.512497,-0.504256,-0.175689,-7.774944
1790549087.8792,-0.026299,-0.027121,1.205834,-0.024500,-0.022048,1.205834,0.724173,0.138668,1.310950,-1.424128,-1.179549,-10.802217
1790549087.8943,-0.031492,-0.032440,1.210903,-0.029394,-0.029322,1.210903,0.296795,0.470129,0.872645,-4.145415,0.567911,-10.685784
1790549087.9099,-0.043459,-0.039213,1.215790,-0.039240,-0.036246,1.215790,0.330791,0.759095,0.719663,-0.925864,-0.510309,-12.199420
1790549087.9241,-0.047431,-0.047786,1.221744,-0.044974,-0.044324,1.221744,0.552979,0.263725,0.662598,-0.235960,0.382011,-6.959909
1790549087.9376,-0.057682,-0.054357,1.237671,-0.053870,-0.051347,1.237671,0.540838,0.627968,0.635887,1.335487,1.757671,-8.007811
1790549087.9516,-0.065180,-0.064013,1.239626,-0.061787,-0.060213,1.239626,0.719317,0.608541,0.350563,-1.002520,1.534591,-9.327392
1790549087.9658,-0.061973,-0.070074,1.239886,-0.061917,-0.067116,1.239886,0.270084,-0.162439,0.422198,-1.539112,-2.183408,-15.187882
1790549087.9797,-0.051159,-0.064912,1.242756,-0.054386,-0.065573,1.242756,-0.453545,-0.801078,0.261931,0.760567,-0.398769,-15.032637
1790549087.9937,-0.048792,-0.059909,1.255345,-0.050470,-0.061608,1.255345,-0.533678,-0.329990,0.244933,3.060246,-2.257768,-11.073895
1790549088.0082,-0.043342,-0.047764,1.283139,-0.045480,-0.051917,1.283139,-0.886993,-0.678449,0.255860,3.635166,0.084571,-6.532986
1790549088.0227,-0.029896,-0.028785,1.302273,-0.034571,-0.035725,1.302273,-1.372650,-1.178676,0.351778,2.178703,0.121751,-5.523895
1790549088.0368,-0.004532,-0.002247,1.308211,-0.013544,-0.012290,1.308211,-1.966366,-1.863452,0.068883,0.415615,0.010211,-5.795574
1790549088.0511,0.020650,0.029817,1.325241,0.010392,0.017185,1.325241,-2.382816,-2.029789,0.099236,2.370342,-0.473129,-6.571797
1790549088.0650,0.005063,0.043534,1.326550,0.006662,0.035629,1.326550,-1.182030,1.014065,-0.277148,4.823333,-2.146228,-16.817952
1790549088.0790,-0.009565,0.025619,1.305850,-0.004697,0.028622,1.305850,1.232899,1.432944,-1.055413,-3.992103,1.237151,-13.480189
1790549088.0929,0.003340,0.022140,1.290322,0.000929,0.024085,1.290322,0.329577,-0.821718,-1.440296,2.791950,4.285911,-13.713056
1790549088.1068,-0.009034,0.018036,1.275173,-0.006045,0.019851,1.275173,0.231232,0.910863,-1.358949,3.405198,0.567911,-9.172147
1790549088.1207,-0.002135,0.020006,1.253190,-0.003308,0.019960,1.253190,-0.095373,-0.152726,-1.417227,-1.462456,1.757671,-7.309210
1790549088.1346,0.008298,0.017102,1.237877,0.004816,0.017960,1.237877,0.239731,-0.535180,-1.108835,-0.504256,1.497411,-6.532986
1790549088.1493,0.002571,0.012978,1.218740,0.003245,0.014472,1.218740,0.441278,0.584259,-1.123405,-0.159304,3.170511,-6.494175
1790549088.1631,0.008945,0.011774,1.204231,0.007235,0.012583,1.204231,0.217876,-0.195221,-0.714239,-2.535639,3.467951,-8.551168
1790549088.1763,0.012288,0.008499,1.193570,0.010772,0.009725,1.193570,0.385428,-0.034954,-0.535760,-2.152360,3.542311,-8.706413
1790549088.1905,0.012836,0.003750,1.190084,0.012217,0.005542,1.190084,0.452205,0.070676,-0.044033,-1.999048,3.691031,-10.064805
1790549088.2046,0.010741,0.002918,1.191558,0.011184,0.003706,1.191558,0.266442,0.262511,0.314139,-2.688951,4.657711,-8.512357
1790549088.2186,0.001496,-0.000366,1.195803,0.004403,0.000856,1.195803,0.319864,0.683818,0.705093,-3.187215,4.360271,-15.149070
1790549088.2326,-0.004301,-0.002430,1.200646,-0.001690,-0.001445,1.200646,0.160811,0.445846,0.935780,-4.413711,2.761531,-16.507462
1790549088.2468,-0.003583,-0.003782,1.206098,-0.003015,-0.003081,1.206098,0.060038,0.048822,1.121544,-5.525222,1.051251,-12.082986
1790549088.2611,-0.008567,-0.003969,1.218355,-0.006901,-0.003703,1.218355,0.002973,0.284365,1.259956,-1.385800,1.014071,-7.619700
1790549088.2757,-0.013577,-0.000550,1.233564,-0.011575,-0.001495,1.233564,-0.227714,0.272224,1.389869,-0.964192,0.865351,-4.825294
1790549088.2900,-0.014606,-0.003162,1.246950,-0.013697,-0.002662,1.246950,0.081892,-0.038596,1.425079,-0.964192,0.010211,-6.959909
1790549088.3040,-0.014803,-0.009536,1.273220,-0.014471,-0.007474,1.273220,0.435207,-0.263213,1.711617,0.607255,1.051251,-8.201867
1790549088.3180,-0.026239,-0.011964,1.303424,-0.022709,-0.010617,1.303424,0.137743,0.484699,1.904665,1.872079,1.497411,-12.587532
1790549088.3321,-0.029215,-0.020859,1.323031,-0.027263,-0.017786,1.323031,0.516555,0.115600,1.921663,-2.842263,0.158931,-13.014455
1790549088.3460,-0.027085,-0.024369,1.340141,-0.027139,-0.022394,1.340141,0.181452,-0.191578,1.605986,-2.267343,0.716631,-9.599070
1790549088.3601,-0.034845,-0.028142,1.346839,-0.032533,-0.026417,1.346839,0.188737,0.568475,0.955206,-1.577440,0.270471,-9.094525
1790549088.3740,-0.045903,-0.034877,1.359671,-0.041892,-0.032339,1.359671,0.447349,0.638895,0.729376,1.872079,0.902531,-11.035084
1790549088.3877,-0.056629,-0.041772,1.381736,-0.052208,-0.038942,1.381736,0.539624,0.555119,0.699022,3.098574,2.055111,-10.064805
1790549088.4012,-0.068891,-0.048457,1.397162,-0.063886,-0.045602,1.397162,0.554193,0.754238,0.507188,2.446998,2.501271,-10.724595
1790549088.4153,-0.067934,-0.056592,1.395600,-0.066720,-0.053295,1.395600,0.440064,-0.015528,0.320210,-0.772552,-1.179549,-11.384385
1790549088.4292,-0.056643,-0.056432,1.398876,-0.059666,-0.055491,1.398876,0.017543,-0.831431,0.013032,1.067191,1.943571,-13.635434
1790549088.4432,-0.050502,-0.053691,1.400288,-0.053251,-0.054231,1.400288,-0.238641,-0.495114,-0.070744,1.642111,0.196111,-11.462007
1790549088.4571,-0.043282,-0.050742,1.402559,-0.046273,-0.051789,1.402559,-0.373411,-0.584960,0.094380,0.952207,-1.216729,-7.309210
1790549088.4710,-0.030409,-0.046589,1.407882,-0.035168,-0.048149,1.407882,-0.514252,-1.036621,0.071311,1.143847,-1.588528,-6.028441
1790549088.4850,-0.016406,-0.035031,1.422213,-0.022035,-0.038966,1.422213,-0.886993,-1.255167,0.113806,2.561982,0.047391,-6.106063
1790549088.4989,0.001139,-0.016812,1.429230,-0.005813,-0.023458,1.429230,-1.361723,-1.404506,0.036101,2.140375,0.307651,-9.870749
1790549088.5129,0.012582,0.007275,1.431187,0.007063,-0.001945,1.431187,-1.852236,-0.923706,-0.278362,2.217030,-0.659029,-10.724595
1790549088.5280,0.003872,0.019446,1.418639,0.004829,0.013029,1.418639,-0.959842,0.658321,-0.869649,2.063719,-1.625708,-19.069001
1790549088.5422,-0.008647,0.018414,1.397629,-0.004604,0.016799,1.397629,0.075821,1.153691,-1.269102,-1.194160,2.538451,-14.644525
1790549088.5566,0.003730,0.027219,1.389734,0.001229,0.024093,1.389734,-0.329702,-0.391912,-1.056627,-4.375383,5.029511,-5.407462
1790549088.5707,-0.002828,0.027853,1.371237,-0.001611,0.026725,1.371237,-0.116013,0.745739,-0.976494,-1.500784,0.567911,-9.016902
1790549088.5850,0.009502,0.020568,1.353929,0.006168,0.022415,1.353929,0.492272,-0.422265,-1.068769,-4.682006,1.348691,-9.055714
1790549088.5991,0.025508,0.013819,1.340868,0.019706,0.016398,1.340868,0.520197,-0.742799,-1.056627,-3.723807,2.203831,-8.007811
1790549088.6128,0.025599,0.010945,1.342059,0.023831,0.012581,1.342059,0.420638,0.059749,-0.947354,0.530599,2.947431,-4.902916
1790549088.6266,0.034852,0.006769,1.333302,0.031546,0.008513,1.333302,0.367215,-0.438049,-0.648675,-2.420655,2.538451,-8.473546
1790549088.6406,0.042349,-0.000514,1.328420,0.039108,0.002194,1.328420,0.641612,-0.280211,-0.399776,-3.992103,3.802571,-9.288581
1790549088.6549,0.044840,-0.008692,1.331754,0.043120,-0.005426,1.331754,0.731458,-0.064093,-0.143592,-2.152360,4.100011,-9.443825
1790549088.6692,0.040456,-0.013131,1.342507,0.041255,-0.010820,1.342507,0.534767,0.357214,0.234006,-1.922392,4.955151,-9.133336
1790549088.6832,0.029126,-0.011689,1.335646,0.032765,-0.011428,1.335646,-0.089302,0.958214,0.371204,-6.483422,2.798711,-17.982287
1790549088.6975,0.018574,-0.002020,1.339887,0.022831,-0.004843,1.339887,-0.600456,0.805232,0.714806,-4.643678,3.988471,-15.420749
1790549088.7115,0.014966,0.000839,1.339414,0.017325,-0.000866,1.339414,-0.241070,0.325646,1.020770,-4.605350,0.902531,-12.432287
1790549088.7255,0.007646,0.006054,1.346037,0.010550,0.003978,1.346037,-0.313918,0.620683,1.000130,-1.999048,1.125611,-4.514804
1790549088.7395,0.014550,0.007516,1.357897,0.013350,0.006455,1.357897,-0.029809,-0.436835,1.055980,-2.075704,1.348691,-4.980539
1790549088.7535,0.014443,0.004872,1.382799,0.014115,0.005347,1.382799,0.295581,-0.186722,1.190750,-0.044320,2.389731,-8.551168
1790549088.7678,0.002831,0.001040,1.399928,0.006216,0.002332,1.399928,0.240945,0.591543,1.565920,-0.082648,0.939711,-12.548721
1790549088.7823,-0.002769,-0.005547,1.415837,-0.000074,-0.003184,1.415837,0.375714,0.173879,1.690976,-0.427600,0.084571,-12.199420
1790549088.7965,-0.006074,-0.009448,1.432413,-0.004274,-0.007569,1.432413,0.217876,0.033038,1.496714,-0.005993,0.456371,-9.366203
1790549088.8105,-0.011520,-0.015004,1.431246,-0.009346,-0.012773,1.431246,0.264013,0.369355,0.921210,-1.270816,-0.547489,-9.016902
1790549088.8245,-0.016543,-0.021981,1.438385,-0.014384,-0.019218,1.438385,0.440064,0.244299,0.707521,0.492271,0.382011,-8.589979
1790549088.8386,-0.029109,-0.029056,1.466597,-0.024691,-0.026105,1.466597,0.566335,0.621897,0.781584,3.213558,2.092291,-9.715504
1790549088.8522,-0.040947,-0.036021,1.480065,-0.036070,-0.033046,1.480065,0.546908,0.761523,0.657741,1.028863,1.980751,-10.724595
1790549088.8659,-0.044062,-0.041193,1.486876,-0.041665,-0.038749,1.486876,0.392712,0.223658,0.538756,-0.465928,1.720491,-10.724595
1790549088.8799,-0.037658,-0.044197,1.485508,-0.038860,-0.042563,1.485508,0.135314,-0.442906,0.342065,-0.542584,0.047391,-12.509909
1790549088.8938,-0.023916,-0.044936,1.481658,-0.028399,-0.044224,1.481658,-0.061377,-0.969843,0.259503,-0.657568,-0.733389,-12.509909
1790549088.9078,-0.019381,-0.043192,1.484706,-0.022086,-0.043502,1.484706,-0.266567,-0.446548,0.407628,1.718767,-1.365448,-11.423196
1790549088.9218,-0.011913,-0.037099,1.489476,-0.014965,-0.039020,1.489476,-0.565246,-0.673593,0.380917,1.603783,-0.956469,-9.327392
1790549088.9358,-0.002099,-0.025916,1.497018,-0.005959,-0.029847,1.497018,-0.925846,-0.890924,0.264359,2.063719,-0.807749,-8.007811
1790549088.9499,0.013428,-0.007720,1.507255,0.007612,-0.014358,1.507255,-1.390862,-1.320730,0.192725,2.102047,-0.324409,-7.231588
1790549088.9638,0.028984,0.016326,1.521589,0.022572,0.007121,1.521589,-1.770889,-1.380223,0.166014,2.063719,0.382011,-6.028441
1790549088.9778,0.046092,0.044146,1.534248,0.039036,0.033038,1.534248,-2.132703,-1.508922,0.053099,2.063719,-0.584669,-5.058161
1790549088.9918,0.015067,0.040724,1.525873,0.022258,0.038418,1.525873,0.138957,2.163857,-0.538189,3.980118,0.753811,-12.859210
1790549089.0058,0.039222,0.032322,1.516088,0.034133,0.034151,1.516088,0.732672,-1.270951,-1.156187,-11.082779,9.379570,-18.098721
1790549089.0199,0.027950,0.030068,1.508676,0.029805,0.031293,1.508676,0.301652,0.899935,-1.293385,2.830278,7.000050,-12.742777
1790549089.0342,0.012105,0.027209,1.502941,0.017415,0.028434,1.502941,0.250658,1.033491,-1.140403,3.826806,2.426911,-7.153965
1790549089.0483,0.023027,0.025133,1.483932,0.021343,0.026123,1.483932,0.026042,-0.495114,-0.935213,-1.654096,-0.026969,-6.882287
1790549089.0623,0.032217,0.018783,1.464579,0.028955,0.020985,1.464579,0.333219,-0.338489,-0.876934,-2.765607,0.047391,-8.279490
1790549089.0759,0.033538,0.013128,1.453973,0.032163,0.015485,1.453973,0.491058,0.170236,-0.728809,-1.922392,2.166651,-6.377742
1790549089.0896,0.037538,0.011078,1.449183,0.035925,0.012400,1.449183,0.323506,-0.044667,-0.603752,-2.842263,4.397451,-8.279490
1790549089.1036,0.037202,0.007338,1.448256,0.036819,0.008857,1.448256,0.420638,0.166594,-0.311144,-1.807408,3.765391,-8.201867
1790549089.1175,0.039400,0.002783,1.451693,0.038626,0.004605,1.451693,0.450991,-0.092019,0.129590,-1.845736,3.282051,-9.249770
1790549089.1315,0.030219,-0.000547,1.458904,0.032741,0.000999,1.458904,0.378143,0.675319,0.479263,-2.343999,4.694891,-12.742777
1790549089.1454,0.025995,-0.000361,1.461026,0.028019,0.000047,1.461026,0.018757,0.357214,0.775513,-5.103614,2.910251,-16.934385
1790549089.1594,0.020979,0.003879,1.461121,0.023091,0.002729,1.461121,-0.242284,0.522337,0.968562,-5.065286,2.092291,-8.512357
1790549089.1734,0.012150,0.004913,1.462970,0.015432,0.004258,1.462970,-0.175506,0.589115,1.159182,-1.577440,-0.287229,-7.464455
1790549089.1873,0.012378,0.006601,1.473586,0.013294,0.005898,1.473586,-0.082017,0.043965,1.229602,-1.922392,0.865351,-4.243126
1790549089.2013,0.011321,0.006313,1.494956,0.011913,0.006188,1.494956,0.137743,-0.000958,1.335233,-1.807408,2.426911,-7.580888
1790549089.2152,0.004110,0.002645,1.515546,0.006451,0.003708,1.515546,0.283440,0.298935,1.571990,-0.274288,1.869211,-12.471098
1790549089.2290,-0.000483,-0.000581,1.535524,0.001597,0.000706,1.535524,0.210591,0.114386,1.777180,-0.772552,1.199971,-12.238231
1790549089.2429,-0.005482,-0.010830,1.550550,-0.003358,-0.007369,1.550550,0.599117,0.135026,1.850029,-0.312616,-0.696209,-8.395923
1790549089.2569,-0.003531,-0.023333,1.559508,-0.003479,-0.018544,1.559508,0.722959,-0.206148,1.666694,-2.114032,-1.216729,-8.861658
1790549089.2712,-0.015852,-0.031545,1.565015,-0.012140,-0.027644,1.565015,0.484987,0.862297,1.125186,-1.539112,-0.101329,-7.852567
1790549089.2861,-0.031989,-0.039490,1.573535,-0.026034,-0.035936,1.573535,0.478917,0.999495,0.907855,0.185647,0.493551,-11.656063
1790549089.2999,-0.039807,-0.046870,1.582964,-0.035675,-0.043590,1.582964,0.517769,0.505339,0.750016,0.223975,1.125611,-10.996273
1790549089.3136,-0.049727,-0.055188,1.594337,-0.045512,-0.051709,1.594337,0.607616,0.624325,0.614032,1.105519,1.237151,-9.948371
1790549089.3273,-0.049593,-0.064546,1.597725,-0.048368,-0.060695,1.597725,0.619757,-0.016742,0.536327,-0.159304,0.270471,-12.277042
1790549089.3414,-0.045610,-0.069548,1.601209,-0.046438,-0.066892,1.601209,0.274941,-0.327562,0.465907,0.760567,-0.212869,-13.092077
1790549089.3555,-0.036124,-0.071515,1.602489,-0.039218,-0.070128,1.602489,0.027256,-0.711231,0.417341,0.530599,-0.919289,-12.005364
1790549089.3694,-0.029062,-0.068995,1.614697,-0.032109,-0.069335,1.614697,-0.271423,-0.711231,0.365133,3.443526,-0.770569,-10.763406
1790549089.3834,-0.022717,-0.060322,1.635825,-0.025534,-0.063026,1.635825,-0.752224,-0.757368,0.395487,4.210086,-1.365448,-8.357112
1790549089.3974,-0.007610,-0.041290,1.658045,-0.012987,-0.047811,1.658045,-1.461283,-1.408149,0.367561,3.558510,-0.659029,-6.688231
1790549089.4113,0.008738,-0.018251,1.672446,0.002220,-0.027119,1.672446,-1.710182,-1.439716,0.232792,2.140375,0.047391,-5.485084
1790549089.4253,0.020528,0.010155,1.693925,0.015036,-0.001027,1.693925,-2.102350,-1.235740,0.073739,2.830278,0.010211,-4.049070
1790549089.4393,0.037007,0.041584,1.696116,0.030416,0.028801,1.696116,-2.289327,-1.244239,-0.097455,0.722239,1.088431,-10.530539
1790549089.4532,0.007490,0.037650,1.681126,0.014367,0.034995,1.681126,0.186308,2.241562,-0.615894,0.492271,1.497411,-21.281238
1790549089.4672,0.011311,0.020433,1.663840,0.012228,0.024802,1.663840,1.268109,0.109529,-1.188969,-6.675061,5.141051,-20.155714
1790549089.4810,0.012776,0.024658,1.657553,0.012612,0.024701,1.657553,0.033326,0.501697,-1.536213,-3.072231,3.430771,-2.380189
1790549089.4950,-0.002774,0.035749,1.661161,0.001842,0.032434,1.661161,-0.270209,1.343097,-1.063912,-0.389272,4.471811,-1.603965
1790549089.5090,0.000143,0.036986,1.634245,0.000653,0.035621,1.634245,-0.068662,0.213945,-0.998348,-2.152360,1.199971,-5.019350
1790549089.5230,0.003737,0.032675,1.616175,0.002812,0.033559,1.616175,0.298009,0.017254,-0.901217,-1.845736,1.683311,-9.482637
1790549089.5371,0.009523,0.031755,1.604806,0.007510,0.032296,1.604806,0.194807,-0.129657,-1.012918,-2.267343,4.620531,-10.608161
1790549089.5511,0.010988,0.033057,1.599156,0.009945,0.032829,1.599156,0.092819,0.138668,-0.743379,-1.884064,4.360271,-7.852567
1790549089.5652,0.008915,0.033755,1.591622,0.009224,0.033477,1.591622,0.086749,0.377854,-0.466554,-2.305671,3.691031,-8.124245
1790549089.5792,0.007217,0.034634,1.591003,0.007819,0.034287,1.591003,0.029684,0.223658,0.059169,-2.190688,3.765391,-10.802217
1790549089.5933,0.009862,0.030967,1.589828,0.009249,0.031963,1.589828,0.342933,-0.066522,0.464693,-4.682006,4.174371,-12.277042
1790549089.6072,0.004831,0.025963,1.596133,0.006157,0.027763,1.596133,0.472846,0.397281,0.492618,-3.072231,5.252591,-14.217602
1790549089.6213,0.007878,0.015139,1.595994,0.007361,0.018926,1.595994,0.783666,-0.166081,0.671097,-4.528694,3.096151,-16.158161
1790549089.6352,0.003682,0.012412,1.608061,0.004786,0.014366,1.608061,0.298009,0.279509,0.967348,-2.765607,3.914111,-11.927742
1790549089.6491,-0.002139,0.016225,1.626519,-0.000061,0.015668,1.626519,-0.143938,0.345073,1.264812,-1.807408,3.096151,-8.046623
1790549089.6633,-0.004410,0.011312,1.640927,-0.003105,0.012619,1.640927,0.329577,0.000256,1.508855,-1.079176,1.274331,-9.172147
1790549089.6774,-0.008021,0.004334,1.668727,-0.006546,0.006819,1.668727,0.498343,-0.049524,1.718902,0.453943,0.976891,-6.338930
1790549089.6915,-0.018352,-0.006441,1.694765,-0.014810,-0.002463,1.694765,0.669537,0.385139,1.881597,1.412143,0.010211,-9.288581
1790549089.7054,-0.024766,-0.019728,1.707787,-0.021779,-0.014548,1.707787,0.754527,0.241870,1.875526,-0.005993,-1.179549,-8.822846
1790549089.7194,-0.030645,-0.028601,1.716226,-0.027986,-0.024386,1.716226,0.563906,0.375426,1.332804,-1.654096,0.790991,-11.306763
1790549089.7333,-0.041326,-0.031896,1.722873,-0.037324,-0.029643,1.722873,0.145027,0.692317,1.012271,-0.120976,0.233291,-10.569350
1790549089.7474,-0.051883,-0.039478,1.728891,-0.047515,-0.036528,1.728891,0.436422,0.666820,0.839863,0.530599,-0.026969,-11.151518
1790549089.7611,-0.060436,-0.046328,1.747361,-0.056560,-0.043388,1.747361,0.527482,0.485913,0.784012,1.143847,1.497411,-7.852567
1790549089.7751,-0.067318,-0.057026,1.755549,-0.064090,-0.052935,1.755549,0.736315,0.439776,0.614032,0.530599,0.865351,-9.016902
1790549089.7894,-0.068865,-0.069855,1.755492,-0.067432,-0.064779,1.755492,0.770311,0.104672,0.560610,0.070663,-0.733389,-11.423196
1790549089.8036,-0.062953,-0.073257,1.754946,-0.064297,-0.070713,1.754946,0.132886,-0.402839,0.442838,-0.120976,-0.696209,-15.343126
1790549089.8176,-0.053790,-0.075028,1.756488,-0.056942,-0.073734,1.756488,-0.034666,-0.730657,0.360277,1.910407,-2.220588,-14.101168
1790549089.8316,-0.044828,-0.072246,1.764879,-0.048462,-0.072692,1.764879,-0.370983,-0.815647,0.326281,3.098574,-2.146228,-10.646972
1790549089.8456,-0.035769,-0.061423,1.787241,-0.039577,-0.064804,1.787241,-0.863925,-0.943132,0.333566,3.251886,-0.547489,-6.455364
1790549089.8595,-0.017053,-0.045256,1.798492,-0.023810,-0.051120,1.798492,-1.275519,-1.542918,0.280143,1.987063,-0.584669,-6.959909
1790549089.8734,0.006446,-0.020322,1.814351,-0.002631,-0.029561,1.814351,-1.808527,-1.908375,0.259503,1.872079,0.530731,-6.494175
1790549089.8875,0.019890,0.009157,1.841157,0.013134,-0.002458,1.841157,-2.176412,-1.377795,0.217008,3.750150,-0.361589,-5.019350
1790549089.9016,0.035748,0.040219,1.852426,0.028964,0.027416,1.852426,-2.288113,-1.372939,0.084666,1.143847,0.158931,-3.699769
1790549089.9157,0.011007,0.031482,1.843934,0.016394,0.030262,1.843934,0.430351,1.700055,-0.534546,6.126485,-2.406488,-21.281238
1790549089.9300,0.031962,0.026035,1.820575,0.027291,0.027303,1.820575,0.494700,-1.046334,-1.368662,-9.128052,9.862910,-21.281238
1790549089.9457,0.011670,0.025019,1.804938,0.016357,0.025704,1.804938,0.310151,1.437800,-1.391730,1.565455,6.293630,-6.921098
1790549089.9603,0.008305,0.026426,1.763529,0.010720,0.026209,1.763529,0.177809,0.821016,-1.339522,-3.033903,3.170511,-2.729490
1790549089.9750,0.011691,0.022035,1.749906,0.011400,0.023287,1.749906,0.166882,-0.127229,-0.947354,0.415615,-0.212869,-5.329839
1790549089.9903,0.012453,0.015847,1.727462,0.012137,0.018079,1.727462,0.460704,0.288008,-0.963138,-2.803935,2.426911,-7.774944
1790549090.0042,0.020050,0.013361,1.715704,0.017676,0.014777,1.715704,0.271298,-0.306922,-0.770090,-2.305671,3.467951,-9.793126
1790549090.0181,0.026585,0.012896,1.709537,0.023913,0.013460,1.709537,0.243373,-0.203720,-0.591611,-2.995575,4.620531,-7.542077
1790549090.0327,0.025421,0.009943,1.703076,0.024968,0.010998,1.703076,0.307722,0.256440,-0.238295,-2.803935,3.691031,-9.793126
1790549090.0468,0.022441,0.007418,1.713527,0.023199,0.008492,1.713527,0.372072,0.226087,0.423412,-2.075704,5.624391,-11.500819
1790549090.0608,0.009214,0.013099,1.718043,0.013409,0.011717,1.718043,-0.299349,0.966713,0.665026,-3.302199,5.252591,-15.731238
1790549090.0749,0.005364,0.017778,1.715306,0.007778,0.015960,1.715306,-0.294492,0.385139,0.873859,-6.330110,3.579491,-14.644525
1790549090.0888,-0.001902,0.020958,1.715273,0.001002,0.019459,1.715273,-0.184005,0.609756,0.827721,-3.647151,2.612811,-10.025993
1790549090.1028,-0.006922,0.024351,1.727823,-0.004545,0.022883,1.727823,-0.150009,0.319576,1.126400,-1.079176,1.497411,-4.359560
1790549090.1167,-0.009076,0.029862,1.752894,-0.007717,0.027768,1.752894,-0.173078,0.092531,1.120330,-0.964192,2.203831,-3.622147
1790549090.1306,-0.015933,0.033040,1.786229,-0.013468,0.031459,1.786229,-0.028595,0.251584,1.239316,0.108991,2.538451,-4.708860
1790549090.1445,-0.007988,0.024179,1.804838,-0.009632,0.026363,1.804838,0.642826,-0.776795,1.479716,-1.347472,3.319231,-15.770049
1790549090.1586,-0.018222,0.020011,1.848125,-0.015645,0.021916,1.848125,0.378143,0.280723,1.717687,2.868606,3.393591,-11.190329
1790549090.1725,-0.019562,0.017028,1.859464,-0.018387,0.018495,1.859464,0.182666,-0.043453,1.695833,-1.845736,1.757671,-10.181238
1790549090.1866,-0.020028,0.010344,1.880791,-0.019536,0.012789,1.880791,0.399997,-0.236502,1.290309,0.952207,0.493551,-8.357112
1790549090.2006,-0.024830,0.003388,1.897859,-0.023242,0.006208,1.897859,0.561478,0.193305,0.779156,0.530599,2.166651,-8.085434
1790549090.2146,-0.039352,-0.003864,1.924624,-0.034519,-0.000842,1.924624,0.521411,0.740883,0.696594,3.021918,1.385871,-8.939280
1790549090.2283,-0.049161,-0.011496,1.939450,-0.044769,-0.008300,1.939450,0.586975,0.575760,0.730590,1.182175,2.352551,-10.841028
1790549090.2419,-0.055781,-0.019736,1.946752,-0.052477,-0.016305,1.946752,0.591832,0.420349,0.635887,0.377287,1.571771,-10.685784
1790549090.2559,-0.050141,-0.025239,1.955824,-0.050842,-0.022559,1.955824,0.413353,-0.462332,0.481691,0.530599,2.501271,-12.509909
1790549090.2705,-0.040034,-0.021984,1.951725,-0.043276,-0.022156,1.951725,-0.321203,-0.669950,0.251004,-0.504256,-0.138509,-11.345574
1790549090.2847,-0.027502,-0.021166,1.952366,-0.032234,-0.021463,1.952366,-0.203431,-0.930991,0.249790,0.530599,-1.068009,-10.763406
1790549090.2991,-0.016718,-0.018532,1.962256,-0.021373,-0.019412,1.962256,-0.310276,-0.889710,0.343279,1.642111,-0.844929,-9.831937
1790549090.3132,-0.008645,-0.014405,1.967983,-0.012463,-0.015907,1.967983,-0.472971,-0.702732,0.329923,1.220503,-1.476988,-8.784035
1790549090.3271,0.001245,-0.006294,1.976676,-0.002868,-0.009178,1.976676,-0.746153,-0.873926,0.280143,1.450471,-1.105189,-7.658511
1790549090.3412,0.013705,0.010229,1.990255,0.008733,0.004407,1.990255,-1.263377,-1.092472,0.215794,1.910407,-0.064149,-7.891378
1790549090.3552,0.026165,0.031521,1.998354,0.020935,0.023387,1.998354,-1.574198,-1.013552,0.008175,1.335487,0.828171,-9.870749
1790549090.3691,0.013129,0.027152,1.992994,0.015471,0.026023,1.992994,0.165668,0.919362,-0.487195,3.290214,-0.993649,-20.116903
1790549090.3830,0.014949,0.017624,1.979091,0.015105,0.020143,1.979091,0.680464,0.043965,-0.892718,-0.849208,2.501271,-13.907112
1790549090.3970,0.019325,0.024619,1.961938,0.018059,0.023277,1.961938,-0.218001,-0.118730,-0.938855,-0.695896,5.289771,-6.377742
1790549090.4109,-0.000144,0.017512,1.962499,0.005317,0.019242,1.962499,0.472846,1.281176,-0.790730,3.021918,0.865351,-6.998721
1790549090.4249,0.008100,0.012786,1.936666,0.007265,0.014722,1.936666,0.378143,-0.275354,-0.884219,-3.033903,2.501271,-10.181238
1790549090.4388,0.017400,0.005971,1.924785,0.014360,0.008596,1.924785,0.440064,-0.538823,-0.881791,-0.274288,0.939711,-10.608161
1790549090.4524,0.021076,0.001221,1.908596,0.019061,0.003434,1.908596,0.495915,-0.058023,-0.863579,-1.117504,2.947431,-6.571797
1790549090.4660,0.026907,-0.003583,1.898132,0.024554,-0.001478,1.898132,0.488630,-0.278996,-0.630463,-1.194160,3.579491,-8.706413
1790549090.4800,0.033854,-0.013140,1.888679,0.031064,-0.009642,1.888679,0.775167,-0.360344,-0.323285,-1.922392,3.058971,-9.793126
1790549090.4939,0.045285,-0.025532,1.883162,0.041019,-0.020765,1.883162,0.967002,-0.719730,-0.025821,-2.229015,2.612811,-10.336483
1790549090.5082,0.032681,-0.029913,1.884792,0.035182,-0.027168,1.884792,0.455848,0.910863,0.240077,-1.807408,5.326951,-14.178791
1790549090.5226,0.027300,-0.023995,1.875245,0.029664,-0.024947,1.875245,-0.369769,0.513838,0.487762,-6.023486,3.207691,-17.283686
1790549090.5368,0.018112,-0.017133,1.866998,0.021578,-0.019477,1.866998,-0.418334,0.796733,0.530257,-4.796990,3.207691,-13.053266
1790549090.5515,0.007179,-0.013914,1.868508,0.011498,-0.015583,1.868508,-0.335773,0.699602,0.871430,-0.427600,-0.361589,-4.204315
1790549090.5658,0.006718,0.001275,1.882801,0.008152,-0.003782,1.882801,-0.724298,0.272224,0.833792,-1.922392,2.017931,-1.526343
1790549090.5802,0.009454,0.002990,1.884280,0.009063,0.000958,1.884280,-0.150009,-0.200077,0.883572,-1.884064,0.902531,-9.676693
1790549090.5943,0.007984,-0.006586,1.906554,0.008308,-0.004323,1.906554,0.795808,-0.067736,1.164039,-0.197632,3.876931,-12.898021
1790549090.6083,-0.003758,-0.003957,1.929751,-0.000138,-0.004067,1.929751,-0.130583,0.619469,1.403225,0.492271,2.724351,-12.587532
1790549090.6223,-0.007905,-0.003390,1.935588,-0.005575,-0.003593,1.935588,-0.171864,0.206660,1.495499,-1.539112,-0.510309,-9.521448
1790549090.6362,-0.004699,-0.006854,1.937569,-0.004962,-0.005875,1.937569,0.107389,-0.254714,1.343732,-2.152360,-0.621849,-9.016902
1790549090.6502,-0.016977,-0.011821,1.950997,-0.013372,-0.010038,1.950997,0.227589,0.685032,0.943065,1.143847,-0.659029,-8.784035
1790549090.6644,-0.027100,-0.016834,1.959504,-0.022981,-0.014795,1.959504,0.302866,0.610970,0.736661,0.453943,0.642271,-10.142427
1790549090.6784,-0.036252,-0.024920,1.964087,-0.032271,-0.021882,1.964087,0.514127,0.600042,0.665026,-0.005993,0.493551,-10.452916
1790549090.6921,-0.045568,-0.032376,1.968964,-0.041579,-0.029228,1.968964,0.497129,0.630396,0.587321,0.262303,0.790991,-11.423196
1790549090.7057,-0.046853,-0.036081,1.973648,-0.045271,-0.034025,1.973648,0.281011,0.090103,0.484119,-0.350944,1.757671,-11.151518
1790549090.7197,-0.043415,-0.038573,1.983347,-0.043972,-0.037209,1.983347,0.206949,-0.309350,0.405200,0.645583,1.832031,-10.220049
1790549090.7337,-0.034886,-0.038152,1.988567,-0.037612,-0.037869,1.988567,-0.080803,-0.662665,0.339636,0.607255,0.530731,-11.423196
1790549090.7480,-0.025202,-0.036451,1.996446,-0.028925,-0.036876,1.996446,-0.279922,-0.787722,0.356634,1.220503,-1.365448,-8.900469
1790549090.7623,-0.018473,-0.030157,2.009987,-0.021609,-0.032173,2.009987,-0.545819,-0.642025,0.354206,1.833751,-0.547489,-8.240679
1790549090.7766,-0.007449,-0.016155,2.018255,-0.011697,-0.020961,2.018255,-1.069115,-0.884853,0.298355,1.335487,-0.175689,-11.733686
1790549090.7908,0.006510,0.005846,2.036648,0.001048,-0.002196,2.036648,-1.603337,-1.213886,0.159943,3.673494,0.530731,-12.005364
1790549090.8052,0.020346,0.032711,2.061801,0.014557,0.022239,2.061801,-1.905659,-1.262452,-0.078029,3.750150,0.493551,-7.386832
1790549090.8195,0.017146,0.047541,2.062711,0.016369,0.039951,2.062711,-1.202670,0.159309,-0.329356,2.446998,-0.993649,-12.936833
1790549090.8336,0.021805,0.028189,2.034236,0.020174,0.031718,2.034236,1.337315,0.175093,-0.592825,-7.594933,1.237151,-8.900469
1790549090.8476,0.039580,0.031003,2.023148,0.033758,0.031217,2.023148,0.021185,-0.835074,-0.892718,-8.859756,9.230850,-11.656063
1790549090.8616,0.033130,0.021673,2.012140,0.033318,0.024536,2.012140,0.614900,0.562404,-1.163472,1.143847,1.460231,-9.094525
1790549090.8756,0.036964,0.023894,1.994140,0.035870,0.024087,1.994140,-0.097801,0.031824,-1.141617,-2.305671,3.356411,-9.249770
1790549090.8894,0.036322,0.023033,1.988308,0.036186,0.023349,1.988308,-0.016453,0.071891,-0.727595,1.143847,0.865351,-10.258860
1790549090.9033,0.031570,0.023632,1.979164,0.032955,0.023547,1.979164,0.083106,0.542978,-0.749449,-1.155832,3.096151,-6.765853
1790549090.9170,0.033867,0.026348,1.967230,0.033593,0.025508,1.967230,-0.056520,0.130169,-0.574613,-2.880591,3.430771,-6.921098
1790549090.9306,0.034006,0.026186,1.958855,0.033883,0.025983,1.958855,0.137743,0.220016,-0.442271,-2.688951,3.765391,-8.551168
1790549090.9446,0.032695,0.024479,1.955187,0.033052,0.024930,1.955187,0.254300,0.252798,-0.258936,-2.190688,3.876931,-8.861658
1790549090.9585,0.028371,0.026557,1.955840,0.029775,0.026069,1.955840,0.035755,0.450703,-0.088956,-2.075704,4.137191,-7.697322
1790549090.9725,0.033297,0.017857,1.953176,0.032240,0.020320,1.953176,0.647682,-0.276568,0.450123,-3.187215,2.241011,-11.229140
1790549090.9864,0.037289,0.006723,1.963305,0.035775,0.010803,1.963305,0.981571,-0.260784,0.564253,-2.267343,3.802571,-8.589979
1790549091.0004,0.035891,0.004298,1.996070,0.035856,0.006249,1.996070,0.551765,0.001470,0.941851,-1.309144,5.624391,-6.494175
1790549091.0144,0.021311,0.008858,2.011484,0.025674,0.008075,2.011484,-0.198575,0.923004,0.911497,-0.619240,4.025651,-12.354665
1790549091.0283,0.021459,0.011470,2.017513,0.022723,0.010452,2.017513,-0.142724,-0.055594,1.165253,-2.918919,2.575631,-12.742777
1790549091.0422,0.017400,0.006188,2.030797,0.018997,0.007467,2.030797,0.346575,0.110743,1.315806,-0.427600,0.567911,-10.569350
1790549091.0565,0.010208,0.007079,2.055060,0.012845,0.007195,2.055060,0.023613,0.273438,1.408081,0.070663,1.683311,-6.688231
1790549091.0704,0.007261,-0.001116,2.073171,0.008936,0.001377,2.073171,0.508056,-0.031312,1.449362,0.300631,-0.138509,-7.192776
1790549091.0845,0.001908,-0.010091,2.098893,0.004016,-0.006651,2.098893,0.642826,0.109529,1.542851,0.607255,0.828171,-7.464455
1790549091.0984,-0.002712,-0.017537,2.115045,-0.000694,-0.014271,2.115045,0.463133,0.152024,1.456647,-0.082648,0.047391,-13.324944
1790549091.1124,-0.002380,-0.022165,2.115652,-0.001874,-0.019797,2.115652,0.250658,-0.009457,1.106974,-2.727279,0.084571,-12.315854
1790549091.1264,-0.014228,-0.028174,2.125941,-0.010522,-0.025661,2.125941,0.352646,0.722671,0.938208,0.453943,-0.026969,-11.423196
1790549091.1401,-0.024986,-0.038731,2.133123,-0.020647,-0.034810,2.133123,0.659824,0.692317,0.842291,0.262303,-0.398769,-7.930189
1790549091.1541,-0.035748,-0.045007,2.156103,-0.031218,-0.041948,2.156103,0.594260,0.621897,0.764586,0.798895,2.278191,-6.144874
1790549091.1679,-0.037160,-0.050104,2.166054,-0.035378,-0.047657,2.166054,0.499557,0.091317,0.509616,-0.350944,3.058971,-8.822846
1790549091.1820,-0.036417,-0.054402,2.170998,-0.036105,-0.052378,2.170998,0.225161,-0.095661,0.537541,0.415615,-0.175689,-15.459560
1790549091.1963,-0.032087,-0.050989,2.180820,-0.033293,-0.051406,2.180820,-0.336987,-0.410124,0.503545,1.833751,-0.733389,-14.916203
1790549091.2104,-0.025726,-0.044556,2.195054,-0.027996,-0.046611,2.195054,-0.596813,-0.629884,0.457408,2.753622,-1.551348,-11.772497
1790549091.2245,-0.018412,-0.034735,2.217945,-0.021287,-0.038298,2.217945,-0.814145,-0.815647,0.326281,2.370342,-0.547489,-5.407462
1790549091.2387,-0.004708,-0.014945,2.244493,-0.009682,-0.021951,2.244493,-1.331369,-1.268522,0.373632,2.255358,1.237151,-5.291028
1790549091.2530,0.015944,0.009906,2.264195,0.008256,0.000349,2.264195,-1.725966,-1.687401,0.287428,1.910407,1.274331,-7.192776
1790549091.2669,0.029926,0.037751,2.284577,0.023425,0.026530,2.284577,-2.065925,-1.329229,0.180584,3.136902,0.307651,-7.386832
1790549091.2807,0.004558,0.040817,2.275752,0.010218,0.036531,2.275752,-0.446260,1.857894,-0.477481,3.175230,-3.410348,-21.164805
1790549091.2950,0.013765,0.036663,2.246514,0.012701,0.036624,2.246514,0.251872,-0.271712,-1.018989,-5.218598,2.166651,-15.925294
1790549091.3094,0.026197,0.038561,2.216363,0.022148,0.037980,2.216363,0.149884,-0.541251,-1.582351,-0.772552,5.587211,-5.950818
1790549091.3235,0.011477,0.043959,2.217149,0.014678,0.042165,2.217149,-0.135439,0.887794,-0.917001,2.753622,3.170511,-3.389280
1790549091.3374,0.014201,0.041586,2.201766,0.014344,0.041760,2.201766,0.220304,0.003899,-0.734880,-1.079176,2.761531,-9.366203
1790549091.3514,0.025425,0.037591,2.185493,0.022101,0.038842,2.185493,0.412139,-0.593459,-0.785874,-1.347472,4.174371,-9.249770
1790549091.3655,0.029216,0.033734,2.166199,0.027082,0.035266,2.166199,0.380571,-0.031312,-0.788302,-1.462456,3.244871,-7.658511
1790549091.3791,0.025101,0.034625,2.160786,0.025695,0.034818,2.160786,0.083106,0.369355,-0.619536,0.300631,3.616671,-7.386832
1790549091.3928,0.027108,0.035091,2.139762,0.026684,0.035009,2.139762,0.046682,0.107101,-0.405847,-2.765607,3.207691,-9.016902
1790549091.4067,0.025678,0.032641,2.129206,0.025980,0.033351,2.129206,0.249444,0.235800,-0.155734,-1.845736,3.207691,-9.870749
1790549091.4207,0.021700,0.030816,2.119784,0.022984,0.031577,2.119784,0.260371,0.409422,0.159943,-2.420655,3.914111,-9.288581
1790549091.4346,0.021242,0.029779,2.110528,0.021765,0.030318,2.110528,0.175381,0.159309,0.298355,-3.225543,3.839751,-10.646972
1790549091.4484,0.018758,0.023559,2.110226,0.019660,0.025587,2.110226,0.562692,0.207874,0.558182,-2.382327,4.025651,-11.229140
1790549091.4625,0.018261,0.017789,2.114502,0.018681,0.020129,2.114502,0.460704,-0.005815,0.788869,-1.845736,2.724351,-12.005364
1790549091.4765,0.015873,0.018659,2.119725,0.016715,0.019100,2.119725,0.035755,0.139883,1.065693,-2.688951,3.542311,-11.345574
1790549091.4903,0.011862,0.021188,2.130941,0.013318,0.020561,2.130941,-0.060163,0.196947,1.337661,-1.769080,2.984611,-8.434735
1790549091.5043,0.006838,0.016985,2.147364,0.008782,0.018058,2.147364,0.281011,0.150810,1.563491,-0.465928,0.679451,-6.843476
1790549091.5182,0.005521,0.011713,2.163141,0.006499,0.013617,2.163141,0.396355,-0.081091,1.704332,-0.849208,0.976891,-5.950818
1790549091.5322,0.006512,0.005122,2.192896,0.006508,0.007670,2.192896,0.613686,-0.339704,1.918021,-0.350944,2.055111,-5.562707
1790549091.5466,-0.002682,-0.002100,2.206502,0.000075,0.000831,2.206502,0.420638,0.493198,1.898595,-2.343999,0.010211,-12.626343
1790549091.5608,-0.003559,-0.007494,2.216737,-0.002469,-0.004996,2.216737,0.306508,-0.017956,1.666694,-3.110559,0.344831,-14.023546
1790549091.5749,-0.008976,-0.012111,2.221413,-0.007024,-0.009976,2.221413,0.266442,0.362071,1.176180,-2.305671,0.567911,-12.548721
1790549091.5890,-0.022605,-0.018930,2.239329,-0.017931,-0.016244,2.239329,0.393927,0.771236,0.884786,1.565455,-0.212869,-10.452916
1790549091.6025,-0.033770,-0.027395,2.256917,-0.029018,-0.024049,2.256917,0.614900,0.642537,0.827721,1.258831,1.088431,-8.667602
1790549091.6161,-0.043351,-0.033652,2.270906,-0.039051,-0.030771,2.270906,0.511698,0.583044,0.593392,0.875551,1.646131,-7.503266
1790549091.6302,-0.044040,-0.045211,2.267503,-0.042543,-0.040879,2.267503,0.679250,0.116814,0.442838,-1.500784,-1.253909,-11.966553
1790549091.6442,-0.041415,-0.047589,2.272331,-0.041754,-0.045576,2.272331,0.121959,-0.226788,0.328709,0.683911,0.567911,-13.945924
1790549091.6582,-0.032936,-0.046033,2.275291,-0.035581,-0.045896,2.275291,-0.204645,-0.625027,0.298355,0.185647,-0.510309,-14.411658
1790549091.6723,-0.026199,-0.041643,2.297778,-0.029014,-0.042919,2.297778,-0.441403,-0.708803,0.220650,3.060246,-1.142369,-9.366203
1790549091.6862,-0.023038,-0.031564,2.334562,-0.024831,-0.034970,2.334562,-0.835999,-0.592245,0.153872,3.941790,-0.733389,-6.727042
1790549091.7003,-0.011395,-0.011273,2.359185,-0.015426,-0.018382,2.359185,-1.491636,-1.109470,0.206081,2.676966,0.344831,-6.688231
1790549091.7142,0.010060,0.014782,2.376915,0.002414,0.004833,2.376915,-1.966366,-1.756607,0.090737,1.680439,0.047391,-6.532986
1790549091.7283,0.029252,0.046211,2.401611,0.021201,0.033798,2.401611,-2.325752,-1.687401,0.042171,2.332014,0.084571,-5.213406
1790549091.7423,0.004538,0.045262,2.389600,0.009537,0.041822,2.389600,-0.078375,1.895532,-0.743379,0.952207,-0.287229,-21.281238
1790549091.7564,0.001392,0.029682,2.355338,0.003836,0.033324,2.355338,1.262038,0.646180,-1.001991,-5.870174,6.962870,-14.178791
1790549091.7703,0.018957,0.034687,2.325878,0.014421,0.034278,2.325878,-0.044379,-0.878783,-1.498575,-2.075704,6.665430,-6.804665
1790549091.7844,0.002066,0.033952,2.334028,0.005773,0.034050,2.334028,0.021185,1.060202,-1.085767,5.551565,1.571771,-9.133336
1790549091.7985,0.012528,0.032514,2.301710,0.010501,0.032975,2.301710,0.080678,-0.317849,-0.988635,-2.880591,1.051251,-6.727042
1790549091.8134,0.014325,0.030333,2.296063,0.013178,0.031125,2.296063,0.176595,-0.062879,-0.799229,1.067191,2.464091,-9.560259
1790549091.8278,0.009788,0.029131,2.273491,0.010805,0.029729,2.273491,0.166882,0.589115,-0.941284,-1.615768,3.170511,-8.784035
1790549091.8416,0.016340,0.029664,2.248203,0.014680,0.029684,2.248203,0.083106,-0.121158,-0.725166,-3.072231,3.244871,-7.425644
1790549091.8554,0.016689,0.028682,2.232495,0.016086,0.028982,2.232495,0.215448,0.215159,-0.501764,-2.152360,3.653851,-7.774944
1790549091.8693,0.011172,0.028720,2.226770,0.012646,0.028799,2.226770,0.129244,0.495626,-0.120524,-1.385800,4.211551,-9.909560
1790549091.8835,0.007150,0.031695,2.223814,0.008799,0.030826,2.223814,-0.097801,0.348715,0.204866,-1.615768,3.653851,-9.521448
1790549091.8978,0.005634,0.030405,2.222358,0.006583,0.030532,2.222358,0.162025,0.145953,0.363919,-2.382327,4.248731,-13.984735
1790549091.9118,0.013491,0.015750,2.223344,0.011419,0.020185,2.223344,1.061705,-0.547322,0.616461,-2.688951,2.426911,-13.286133
1790549091.9261,0.009222,0.009823,2.248770,0.009881,0.012931,2.248770,0.670751,0.113171,1.204105,-0.389272,5.475671,-8.706413
1790549091.9403,-0.002187,0.014044,2.268930,0.001434,0.013710,2.268930,-0.157294,0.607327,1.206534,0.108991,3.579491,-9.055714
1790549091.9543,-0.005607,0.016425,2.279343,-0.003495,0.015610,2.279343,-0.078375,0.159309,1.434792,-2.075704,3.244871,-9.676693
1790549091.9683,-0.005923,0.007868,2.294500,-0.005195,0.010191,2.294500,0.590618,-0.143013,1.573205,-1.040848,1.162791,-9.327392
1790549091.9823,-0.010105,0.003878,2.316134,-0.008632,0.005772,2.316134,0.305294,0.073105,1.694619,-0.235960,1.348691,-6.843476
1790549091.9963,-0.014662,-0.005883,2.343964,-0.012853,-0.002386,2.343964,0.645254,0.028181,1.752898,0.607255,0.567911,-7.852567
1790549092.0103,-0.018692,-0.017991,2.364056,-0.016941,-0.013310,2.364056,0.756955,0.102244,1.786894,-0.542584,-0.138509,-9.987182
1790549092.0262,-0.022907,-0.026690,2.371964,-0.021117,-0.022676,2.371964,0.471632,0.262511,1.397154,-3.340527,0.344831,-12.859210
1790549092.0409,-0.031131,-0.029306,2.375753,-0.028127,-0.027317,2.375753,0.121959,0.576974,1.002558,-1.884064,0.679451,-10.918651
1790549092.0560,-0.040823,-0.037468,2.390177,-0.037014,-0.034423,2.390177,0.481345,0.513838,0.796154,1.028863,0.382011,-9.793126
1790549092.0701,-0.048795,-0.043131,2.405586,-0.045261,-0.040518,2.405586,0.457062,0.442204,0.736661,0.837223,1.832031,-7.542077
1790549092.0847,-0.056047,-0.053691,2.414814,-0.052811,-0.049739,2.414814,0.696248,0.423992,0.553325,0.837223,0.828171,-9.831937
1790549092.0988,-0.057014,-0.064139,2.423342,-0.055753,-0.059819,2.423342,0.670751,0.001470,0.485333,1.220503,0.047391,-13.480189
1790549092.1126,-0.050077,-0.064935,2.430003,-0.051780,-0.063400,2.430003,-0.009169,-0.550964,0.337208,1.182175,0.010211,-15.226693
1790549092.1267,-0.040873,-0.060982,2.440143,-0.044145,-0.061708,2.440143,-0.437761,-0.746441,0.231578,1.642111,-1.923148,-11.811308
1790549092.1408,-0.034417,-0.052355,2.478768,-0.037335,-0.055160,2.478768,-0.793504,-0.843573,0.105307,4.171758,-1.588528,-6.183686
1790549092.1548,-0.025056,-0.033394,2.506890,-0.028740,-0.039924,2.506890,-1.339868,-1.011124,0.208509,3.098574,0.828171,-5.485084
1790549092.1689,-0.002379,-0.011281,2.515555,-0.010287,-0.019874,2.515555,-1.632477,-1.692258,0.163586,0.415615,0.307651,-6.688231
1790549092.1828,0.020621,0.017522,2.536243,0.011349,0.006303,2.536243,-2.143630,-1.913232,0.201224,1.680439,0.196111,-5.640329
1790549092.1968,0.027981,0.045802,2.557483,0.022991,0.033953,2.557483,-2.164271,-0.875140,-0.105954,3.251886,-0.361589,-5.446273
1790549092.2107,0.001522,0.038822,2.539134,0.007963,0.037361,2.539134,0.437636,2.142003,-0.697241,-2.420655,2.278191,-21.281238
1790549092.2246,0.017667,0.033526,2.508097,0.014756,0.034676,2.508097,0.418209,-0.733086,-1.451223,-5.716862,5.029511,-18.719700
1790549092.2386,0.029507,0.037820,2.465048,0.025082,0.036877,2.465048,-0.074732,-0.343346,-1.601777,-2.727279,4.583351,-5.795574
1790549092.2525,0.020012,0.042247,2.432521,0.021533,0.040636,2.432521,-0.154866,1.101483,-0.999563,-1.500784,2.129471,-3.622147
1790549092.2665,0.024225,0.035446,2.408192,0.023418,0.037003,2.408192,0.375714,0.047608,-0.955853,-2.535639,0.307651,-8.551168
1790549092.2806,0.034893,0.029574,2.393036,0.031450,0.031803,2.393036,0.450991,-0.538823,-0.791944,-1.960720,2.910251,-10.646972
1790549092.2941,0.031855,0.026240,2.382670,0.031733,0.027909,2.382670,0.311365,0.359642,-0.883005,-0.082648,3.319231,-9.715504
1790549092.3080,0.035264,0.026695,2.366438,0.034205,0.027059,2.366438,0.106175,0.019682,-0.528475,-2.612295,3.616671,-7.503266
1790549092.3225,0.035240,0.025043,2.352830,0.034929,0.025648,2.352830,0.208163,0.213945,-0.364566,-2.650623,3.430771,-8.861658
1790549092.3367,0.032112,0.023829,2.350412,0.032957,0.024374,2.350412,0.181452,0.281937,0.088309,-1.462456,3.207691,-9.443825
1790549092.3510,0.028090,0.025229,2.350526,0.029551,0.024973,2.350526,0.057609,0.342644,0.374846,-2.267343,4.137191,-9.133336
1790549092.3651,0.025949,0.019884,2.348658,0.027029,0.021410,2.348658,0.448563,0.215159,0.468335,-3.723807,4.062831,-14.877392
1790549092.3791,0.026343,0.013227,2.352608,0.026549,0.015682,2.352608,0.523840,-0.047095,0.651671,-2.650623,3.505131,-16.352217
1790549092.3932,0.020189,0.015393,2.362862,0.022097,0.015479,2.362862,-0.023738,0.375426,1.032911,-2.190688,4.211551,-11.966553
1790549092.4070,0.012469,0.020559,2.372151,0.015357,0.019035,2.372151,-0.301777,0.487127,1.278168,-1.692424,2.017931,-7.852567
1790549092.4209,0.007828,0.016915,2.393360,0.010087,0.017551,2.393360,0.214234,0.067034,1.512497,0.185647,0.419191,-8.861658
1790549092.4349,0.007229,0.010511,2.418082,0.008086,0.012623,2.418082,0.497129,-0.231645,1.722544,-0.082648,1.385871,-7.464455
1790549092.4489,-0.002015,0.000800,2.456420,0.001016,0.004347,2.456420,0.647682,0.222444,1.892524,2.217030,0.344831,-9.793126
1790549092.4628,-0.008867,-0.009085,2.477632,-0.005902,-0.005055,2.477632,0.624614,0.289222,1.928948,-1.002520,0.047391,-11.190329
1790549092.4767,-0.009120,-0.015001,2.492087,-0.008155,-0.012018,2.492087,0.361145,-0.073806,1.622984,-2.075704,0.456371,-11.772497
1790549092.4906,-0.016230,-0.018323,2.504455,-0.013807,-0.016432,2.504455,0.170524,0.402137,1.145827,-0.427600,0.344831,-10.802217
1790549092.5046,-0.029108,-0.023972,2.521504,-0.024518,-0.021710,2.521504,0.317436,0.738455,1.006200,1.297159,0.010211,-10.646972
1790549092.5185,-0.036299,-0.028673,2.539961,-0.032764,-0.026584,2.539961,0.367215,0.334145,0.929709,1.182175,1.646131,-8.085434
1790549092.5322,-0.044058,-0.035841,2.556551,-0.040670,-0.033064,2.556551,0.546908,0.397281,0.799796,1.335487,1.571771,-8.279490
1790549092.5459,-0.049355,-0.044399,2.560432,-0.046749,-0.040999,2.560432,0.582119,0.386353,0.599463,-0.427600,0.716631,-10.181238
1790549092.5601,-0.048447,-0.050894,2.568652,-0.047938,-0.047926,2.568652,0.425494,-0.121158,0.559396,0.645583,1.088431,-13.324944
1790549092.5745,-0.038894,-0.047193,2.574884,-0.041607,-0.047413,2.574884,-0.335773,-0.691805,0.447695,0.108991,-0.026969,-13.829490
1790549092.5886,-0.031388,-0.044400,2.589207,-0.034454,-0.045303,2.589207,-0.370983,-0.665094,0.407628,1.872079,-1.997508,-11.539630
1790549092.6028,-0.025097,-0.037152,2.625753,-0.027904,-0.039597,2.625753,-0.721870,-0.824146,0.213365,3.290214,-1.514168,-4.941727
1790549092.6168,-0.012193,-0.021833,2.642233,-0.016906,-0.027162,2.642233,-1.090969,-1.131324,0.309283,1.680439,0.790991,-5.950818
1790549092.6308,0.004335,-0.000849,2.662727,-0.002038,-0.008743,2.662727,-1.534131,-1.459143,0.424626,2.830278,0.939711,-9.016902
1790549092.6448,0.015189,0.025981,2.682071,0.010021,0.015563,2.682071,-1.989434,-1.054833,0.212151,3.865134,0.344831,-10.569350
1790549092.6590,0.015766,0.046146,2.687632,0.014042,0.036971,2.687632,-1.592410,-0.110231,-0.234653,1.987063,-1.105189,-13.169700
1790549092.6730,0.000114,0.038311,2.679211,0.004293,0.037909,2.679211,0.425494,1.222897,-0.740950,1.603783,-0.324409,-20.543826
1790549092.6869,0.027169,0.039743,2.636558,0.020306,0.039193,2.636558,0.160811,-1.391151,-1.278815,-7.633261,8.264170,-9.210958
1790549092.7008,0.026302,0.036673,2.630517,0.024503,0.037429,2.630517,0.253086,0.058535,-1.173185,2.715294,2.575631,-8.085434
1790549092.7147,0.016835,0.032541,2.617683,0.019135,0.034008,2.617683,0.336862,0.787020,-1.025059,0.645583,1.608951,-5.291028
1790549092.7286,0.027193,0.031713,2.598475,0.024776,0.032402,2.598475,0.033326,-0.438049,-0.787088,-4.030431,2.017931,-12.859210
1790549092.7427,0.023348,0.024885,2.586822,0.023776,0.027140,2.586822,0.418209,0.414279,-0.870863,-0.044320,0.902531,-8.745224
1790549092.7566,0.029532,0.025319,2.563464,0.027805,0.025866,2.563464,0.075821,-0.107802,-0.808942,-3.072231,3.282051,-7.930189
1790549092.7703,0.029992,0.025079,2.548942,0.029336,0.025315,2.548942,0.148670,0.171450,-0.540617,-1.769080,3.542311,-8.007811
1790549092.7843,0.027983,0.023257,2.538264,0.028389,0.023874,2.538264,0.230017,0.296507,-0.309930,-1.539112,2.947431,-7.969000
1790549092.7983,0.027665,0.020358,2.533120,0.027882,0.021413,2.533120,0.359931,0.118028,0.042171,-1.692424,3.728211,-8.279490
1790549092.8123,0.025156,0.019515,2.534155,0.025974,0.020084,2.534155,0.284654,0.206660,0.342065,-1.424128,4.732071,-8.046623
1790549092.8267,0.020655,0.017146,2.533316,0.022251,0.018028,2.533316,0.341718,0.370570,0.461050,-2.918919,5.661571,-11.500819
1790549092.8409,0.021506,0.008234,2.534332,0.021729,0.011172,2.534332,0.671965,-0.030097,0.621317,-3.263871,2.947431,-14.411658
1790549092.8547,0.020716,0.009162,2.541417,0.021020,0.009765,2.541417,0.056395,0.025753,0.912711,-2.190688,3.728211,-11.112707
1790549092.8687,0.015106,0.018234,2.552137,0.016880,0.015693,2.552137,-0.454759,0.352357,1.173752,-1.500784,3.021791,-6.106063
1790549092.8825,0.006949,0.020125,2.568181,0.009928,0.018796,2.568181,-0.040736,0.408208,1.244172,-0.235960,1.906391,-6.338930
1790549092.8965,0.013022,0.014917,2.585154,0.012094,0.016081,2.585154,0.391498,-0.606815,1.487000,-0.734224,0.902531,-5.717951
1790549092.9105,0.004130,0.008085,2.630299,0.006519,0.010484,2.630299,0.601545,0.121670,1.786894,2.408670,2.092291,-6.649420
1790549092.9244,-0.010438,0.001384,2.667265,-0.005351,0.004114,2.667265,0.413353,0.614612,1.857314,2.906934,0.307651,-11.888930
1790549092.9383,-0.006459,-0.001284,2.676843,-0.006126,0.000336,2.676843,0.115888,-0.297209,1.625413,-3.838791,0.307651,-10.957462
1790549092.9525,-0.011760,-0.004403,2.684708,-0.010070,-0.002981,2.684708,0.132886,0.346287,1.150683,-1.999048,0.010211,-10.452916
1790549092.9664,-0.023071,-0.011041,2.704330,-0.019171,-0.008623,2.704330,0.382999,0.585473,0.977061,1.450471,-0.026969,-8.900469
1790549092.9800,-0.030689,-0.015587,2.722192,-0.027233,-0.013498,2.722192,0.385428,0.348715,0.922424,1.220503,1.832031,-7.309210
1790549092.9937,-0.040550,-0.022561,2.739120,-0.036555,-0.019842,2.739120,0.529910,0.516267,0.799796,1.565455,1.534591,-7.813756
1790549093.0073,-0.045368,-0.029990,2.744772,-0.042724,-0.026946,2.744772,0.515341,0.318361,0.597034,-0.082648,1.274331,-12.703965
1790549093.0214,-0.042055,-0.034928,2.753340,-0.042256,-0.032533,2.753340,0.270084,-0.286281,0.638315,0.032335,0.270471,-15.226693
1790549093.0355,-0.034103,-0.029267,2.761654,-0.036549,-0.030247,2.761654,-0.448688,-0.623813,0.491404,0.453943,0.939711,-14.139979
1790549093.0496,-0.030994,-0.026546,2.778613,-0.032661,-0.027657,2.778613,-0.385553,-0.383413,0.514473,1.603783,-1.662888,-9.210958
1790549093.0637,-0.018453,-0.020670,2.802797,-0.022715,-0.022766,2.802797,-0.635666,-1.164106,0.281357,2.102047,-1.328269,-5.252217
1790549093.0780,-0.005223,-0.005313,2.823177,-0.010471,-0.010549,2.823177,-1.072757,-1.219957,0.389416,2.715294,1.051251,-6.688231
1790549093.0920,0.011114,0.015900,2.840967,0.004638,0.007966,2.840967,-1.535345,-1.428789,0.383345,2.293686,1.088431,-8.046623
1790549093.1061,0.024014,0.039604,2.859907,0.018201,0.030112,2.859907,-1.808527,-1.189603,0.215794,2.983590,-0.324409,-9.055714
1790549093.1200,0.011447,0.041802,2.858024,0.013473,0.038295,2.858024,-0.290850,0.889008,-0.612251,3.558510,0.047391,-17.788231
1790549093.1340,0.006470,0.039779,2.835453,0.008571,0.039334,2.835453,0.228803,0.636467,-0.898789,-2.727279,5.364131,-15.498371
1790549093.1480,0.028798,0.046963,2.802553,0.022730,0.044674,2.802553,-0.384338,-1.136181,-1.272744,-3.263871,3.356411,-7.153965
1790549093.1621,0.015347,0.046825,2.796274,0.017562,0.046180,2.796274,0.069751,0.897507,-0.919429,1.910407,1.683311,-4.398371
1790549093.1760,0.013082,0.039122,2.777678,0.014426,0.041239,2.777678,0.494700,0.465273,-0.665673,-2.688951,0.902531,-9.172147
1790549093.1900,0.027335,0.037862,2.759612,0.023462,0.038875,2.759612,0.151098,-0.756154,-0.845366,-2.727279,3.728211,-11.811308
1790549093.2040,0.024820,0.036330,2.745460,0.024412,0.037093,2.745460,0.180238,0.326860,-0.874506,-0.005993,3.133331,-8.784035
1790549093.2177,0.022600,0.037355,2.723233,0.023144,0.037276,2.723233,0.004187,0.470129,-0.804086,-2.267343,2.947431,-8.163056
1790549093.2313,0.026161,0.036790,2.703179,0.025256,0.036936,2.703179,0.089177,0.053678,-0.604966,-3.033903,2.426911,-8.279490
1790549093.2453,0.026833,0.030879,2.693118,0.026360,0.032696,2.693118,0.448563,0.104672,-0.290504,-1.730752,2.166651,-9.094525
1790549093.2592,0.028162,0.025201,2.686829,0.027622,0.027450,2.686829,0.492272,0.016040,0.042171,-1.999048,2.835891,-8.861658
1790549093.2733,0.024239,0.025790,2.685136,0.025253,0.026288,2.685136,0.148670,0.314719,0.119876,-1.040848,4.694891,-8.822846
1790549093.2872,0.023678,0.021597,2.683437,0.024151,0.023005,2.683437,0.419424,0.086460,0.260717,-2.190688,4.694891,-12.665154
1790549093.3011,0.018537,0.019488,2.682221,0.020221,0.020543,2.682221,0.163240,0.416707,0.453766,-2.880591,2.426911,-14.489280
1790549093.3154,0.015185,0.022375,2.684991,0.016696,0.021826,2.684991,-0.130583,0.262511,0.883572,-3.532167,3.170511,-11.694875
1790549093.3296,0.013509,0.022480,2.691696,0.014465,0.022284,2.691696,-0.009169,0.107101,1.170109,-2.803935,1.162791,-8.822846
1790549093.3437,0.008002,0.017415,2.717655,0.009941,0.018875,2.717655,0.347789,0.064606,1.466360,0.760567,0.642271,-6.261308
1790549093.3578,-0.002044,0.010360,2.746664,0.001551,0.012914,2.746664,0.505628,0.354786,1.716473,0.875551,0.939711,-6.455364
1790549093.3718,-0.008684,-0.000170,2.770131,-0.005614,0.003756,2.770131,0.665894,0.233371,1.757754,-0.235960,0.010211,-10.064805
1790549093.3858,-0.013547,-0.009026,2.791709,-0.011167,-0.005192,2.791709,0.522626,0.165380,1.739542,-1.002520,-0.324409,-11.850119
1790549093.3998,-0.015321,-0.015255,2.802517,-0.014075,-0.012236,2.802517,0.351432,0.122885,1.274526,-3.493839,-0.101329,-13.868301
1790549093.4138,-0.027652,-0.018768,2.819491,-0.023579,-0.016809,2.819491,0.151098,0.700816,1.070550,1.028863,-0.138509,-10.375294
1790549093.4277,-0.038934,-0.025501,2.833630,-0.034327,-0.022893,2.833630,0.430351,0.655893,0.893285,1.028863,0.605091,-8.939280
1790549093.4413,-0.049348,-0.031911,2.849399,-0.044842,-0.029206,2.849399,0.503199,0.573331,0.861717,1.488799,1.720491,-7.697322
1790549093.4550,-0.053729,-0.040859,2.853169,-0.051063,-0.037363,2.853169,0.624614,0.347501,0.605533,-0.925864,1.014071,-10.569350
1790549093.4686,-0.052921,-0.050768,2.858768,-0.052364,-0.046747,2.858768,0.571191,-0.026455,0.572751,-1.117504,-1.365448,-11.927742
1790549093.4826,-0.047613,-0.048504,2.867472,-0.049038,-0.047977,2.867472,-0.226500,-0.448976,0.493832,1.143847,0.456371,-15.343126
1790549093.4965,-0.040958,-0.045142,2.880213,-0.043382,-0.045992,2.880213,-0.389195,-0.618956,0.351778,2.408670,-1.476988,-12.121798
1790549093.5105,-0.032638,-0.040103,2.899524,-0.035861,-0.041870,2.899524,-0.550676,-0.842358,0.229149,3.213558,-1.737248,-8.046623
1790549093.5244,-0.019459,-0.026842,2.915489,-0.024379,-0.031350,2.915489,-1.037547,-1.199316,0.200010,2.485326,-0.064149,-6.416553
1790549093.5383,-0.004332,-0.007792,2.932664,-0.010346,-0.014860,2.932664,-1.434571,-1.355941,0.310497,2.830278,0.196111,-7.503266
1790549093.5524,0.011647,0.015879,2.949679,0.005049,0.006658,2.949679,-1.767246,-1.423932,0.264359,3.405198,0.196111,-9.016902
1790549093.5663,0.026361,0.039537,2.964524,0.019967,0.029673,2.964524,-1.836452,-1.315874,0.072525,3.213558,-0.473129,-9.172147
1790549093.5810,0.022177,0.042581,2.969609,0.021514,0.038709,2.969609,-0.402551,0.204232,-0.228582,2.945262,-2.109048,-15.381938
1790549093.5951,0.013912,0.032193,2.955536,0.016193,0.034148,2.955536,0.695034,0.797948,-0.802871,-1.845736,2.389731,-16.585084
1790549093.6093,0.044152,0.033746,2.925270,0.035764,0.033866,2.925270,0.118316,-1.706828,-1.214466,-6.636734,8.561610,-11.306763
1790549093.6234,0.036220,0.030130,2.910963,0.036084,0.031251,2.910963,0.260371,0.657107,-1.004419,0.875551,2.166651,-7.891378
1790549093.6373,0.041610,0.022053,2.894884,0.039952,0.024813,2.894884,0.511698,-0.088376,-0.889076,-2.880591,1.051251,-9.676693
1790549093.6514,0.056277,0.014910,2.882081,0.051380,0.017880,2.882081,0.518983,-0.853286,-0.833225,-1.462456,1.980751,-8.318301
1790549093.6656,0.057522,0.005471,2.865679,0.055679,0.009194,2.865679,0.613686,0.065820,-1.188969,-0.082648,1.311511,-6.804665
1790549093.6793,0.063128,0.002534,2.847059,0.060893,0.004532,2.847059,0.276155,-0.195221,-1.088195,-1.270816,2.835891,-7.697322
1790549093.6930,0.067246,-0.001784,2.828514,0.065341,0.000111,2.828514,0.342933,-0.071378,-1.050556,-1.807408,2.798711,-8.900469
1790549093.7069,0.070804,-0.009816,2.813964,0.069165,-0.006838,2.813964,0.562692,-0.073806,-0.835653,-1.845736,2.092291,-9.870749
1790549093.7210,0.065860,-0.012277,2.801886,0.066852,-0.010645,2.801886,0.254300,0.512624,-0.444700,-2.497311,3.542311,-10.452916
1790549093.7350,0.055952,-0.002814,2.793319,0.059222,-0.005163,2.793319,-0.702444,0.828301,-0.303859,-3.263871,2.612811,-18.409210
1790549093.7490,0.054052,0.011260,2.781379,0.055603,0.006333,2.781379,-1.007193,0.421563,-0.176374,-7.058341,2.315371,-13.363756
1790549093.7632,0.051242,0.022445,2.770514,0.052550,0.017611,2.770514,-0.873638,0.500483,-0.149663,-4.567022,0.270471,-8.124245
1790549093.7773,0.035281,0.034811,2.772877,0.040461,0.029651,2.772877,-0.647807,1.095412,-0.045247,0.108991,1.199971,-1.798021
1790549093.7913,0.028414,0.042600,2.766067,0.032028,0.038715,2.766067,-0.332130,0.666820,-0.193372,-1.270816,2.835891,-4.165504
