t,imu_roll,imu_pitch,imu_yaw,lpf_roll,lpf_pitch,lpf_yaw,gyro_x,gyro_y,gyro_z,acc_x,acc_y,acc_z
1790548915.7995,0.018969,-0.032684,0.002712,0.013278,-0.022879,0.002712,-0.009076,-0.006735,-0.000121,0.032335,1.199971,-10.181238
1790548915.8150,0.005647,-0.035590,-0.003983,0.007937,-0.031777,-0.003983,0.007922,-0.003093,-0.000121,0.300631,1.125611,-9.793126
1790548915.8289,0.009992,-0.036469,-0.001481,0.009375,-0.035061,-0.001481,0.023706,0.007834,-0.003763,0.032335,1.162791,-10.025993
1790548915.8427,0.008349,-0.036582,-0.002361,0.008657,-0.036126,-0.002361,0.016421,0.006620,0.001093,0.185647,1.162791,-9.909560
1790548915.8567,0.005995,-0.034016,-0.003861,0.006794,-0.034649,-0.003861,-0.047928,0.007834,0.005950,0.262303,1.311511,-10.297672
1790548915.8706,0.001473,-0.030885,-0.006445,0.003069,-0.032015,-0.006445,-0.102565,-0.004307,0.002307,0.453943,1.348691,-10.258860
1790548915.8849,-0.000151,-0.026424,-0.008061,0.000815,-0.028101,-0.008061,-0.097708,0.069755,0.024162,0.262303,1.460231,-9.987182
1790548915.8993,0.000244,-0.022741,-0.007840,0.000416,-0.024349,-0.007840,-0.104993,0.109822,0.087297,0.070663,1.460231,-9.948371
1790548915.9133,0.002864,-0.019517,-0.005942,0.002130,-0.020967,-0.005942,-0.140203,0.068541,0.173502,-0.120976,1.460231,-10.064805
1790548915.9273,0.003094,-0.015369,-0.002440,0.002805,-0.017048,-0.002440,-0.216694,0.040616,0.271847,0.070663,1.423051,-9.521448
1790548915.9412,0.006159,-0.014034,0.003114,0.005153,-0.014938,0.003114,-0.245833,-0.185214,0.395690,0.032335,1.162791,-9.715504
1790548915.9553,0.003807,-0.019732,0.009951,0.004211,-0.018294,0.009951,-0.109850,0.044259,0.563241,0.262303,0.567911,-10.336483
1790548915.9694,-0.000694,-0.028740,0.016653,0.000777,-0.025606,0.016653,0.037062,0.040616,0.659158,0.530599,0.233291,-9.637881
1790548915.9834,0.009293,-0.026596,0.043401,0.006738,-0.026299,0.043401,0.012779,0.009048,0.534102,-1.270816,1.534591,-9.637881
1790548915.9975,0.010610,-0.030513,0.047543,0.009449,-0.029249,0.047543,0.009136,0.102537,0.311914,-0.389272,0.790991,-11.229140
1790548916.0115,0.007096,-0.033522,0.042401,0.007802,-0.032240,0.042401,0.071058,0.024832,0.237851,0.645583,1.051251,-11.578441
1790548916.0254,-0.001446,-0.032956,0.036108,0.001328,-0.032741,0.036108,0.107482,0.165673,0.283988,1.182175,1.571771,-10.103616
1790548916.0394,-0.007400,-0.035528,0.034892,-0.004782,-0.034692,0.034892,0.221611,0.187527,0.291273,0.798895,1.311511,-10.181238
1790548916.0529,-0.015859,-0.036753,0.032008,-0.012536,-0.036135,0.032008,0.158476,0.367220,0.230566,0.875551,1.237151,-9.172147
1790548916.0666,-0.020078,-0.036329,0.033029,-0.017816,-0.036271,0.033029,0.154833,0.327154,0.168645,0.300631,1.497411,-8.939280
1790548916.0805,-0.023121,-0.034202,0.033864,-0.021529,-0.034822,0.033864,0.032205,0.219095,0.158932,0.415615,1.757671,-10.142427
1790548916.0943,-0.025357,-0.032663,0.035336,-0.024208,-0.033311,0.035336,-0.000577,0.153531,0.173502,0.453943,1.571771,-10.103616
1790548916.1083,-0.026481,-0.029141,0.037176,-0.025799,-0.030392,0.037176,-0.058856,-0.097796,0.232994,0.952207,1.869211,-9.909560
1790548916.1223,-0.018484,-0.028103,0.039894,-0.020678,-0.028790,0.039894,-0.158415,-0.477823,0.084869,0.070663,1.125611,-11.190329
1790548916.1362,-0.010191,-0.026234,0.043755,-0.013337,-0.027000,0.043755,-0.332038,-0.717009,0.042374,0.837223,0.753811,-12.005364
1790548916.1512,-0.000392,-0.021336,0.046809,-0.004276,-0.023035,0.046809,-0.647714,-0.785001,-0.181028,0.952207,0.158931,-12.393476
1790548916.1654,-0.012851,-0.026666,0.042207,-0.010278,-0.025577,0.042207,-0.197268,0.460709,-0.534343,3.098574,-1.328269,-14.139979
1790548916.1797,-0.012192,-0.019850,0.021306,-0.011618,-0.021568,0.021306,-0.164486,0.131677,-0.858519,0.070663,2.241011,-9.210958
1790548916.1937,-0.010076,-0.008930,-0.003824,-0.010539,-0.012721,-0.003824,-0.355106,0.084325,-1.022428,-0.044320,2.241011,-7.425644
1790548916.2078,-0.016953,-0.000456,-0.031654,-0.015029,-0.004136,-0.031654,-0.109850,0.458281,-0.871875,0.837223,2.649991,-7.580888
1790548916.2222,-0.016026,0.002949,-0.053053,-0.015727,0.000823,-0.053053,0.006708,0.318655,-0.869447,-0.695896,2.538451,-10.258860
1790548916.2361,-0.016599,0.000541,-0.062935,-0.016338,0.000626,-0.062935,0.058916,0.244592,-0.995717,0.185647,0.865351,-9.676693
1790548916.2501,-0.020548,0.007100,-0.079895,-0.019285,0.005158,-0.079895,-0.250690,0.364792,-0.981148,0.645583,2.017931,-8.357112
1790548916.2641,-0.022488,0.007609,-0.086059,-0.021527,0.006874,-0.086059,-0.176627,0.300442,-0.816024,0.300631,0.753811,-9.249770
1790548916.2778,-0.022528,0.008211,-0.091684,-0.022228,0.007810,-0.091684,-0.169342,0.324725,-0.646044,-0.542584,0.939711,-10.375294
1790548916.2914,-0.023760,0.008318,-0.093701,-0.023300,0.008166,-0.093701,-0.104993,0.142604,-0.281802,0.492271,1.237151,-11.190329
1790548916.3054,-0.027036,0.010709,-0.093359,-0.025915,0.009946,-0.093359,-0.202124,0.187527,0.020520,0.798895,1.646131,-11.035084
1790548916.3194,-0.028446,0.013678,-0.088548,-0.027687,0.012559,-0.088548,-0.215480,0.158388,0.333768,-0.044320,1.794851,-10.258860
1790548916.3334,-0.020969,0.009113,-0.069525,-0.022984,0.010147,-0.069525,0.153619,-0.208283,0.679799,-2.037376,0.976891,-10.841028
1790548916.3474,-0.018778,-0.001921,-0.055250,-0.020040,0.001699,-0.055250,0.607708,-0.285988,1.071967,0.223975,0.976891,-12.044175
1790548916.3613,-0.021442,0.002965,-0.022589,-0.021021,0.002585,-0.022589,0.228896,-0.214354,1.233448,1.373815,4.174371,-7.542077
1790548916.3753,-0.021702,0.002197,0.001822,-0.021498,0.002313,0.001822,0.242252,-0.339410,1.460492,1.182175,2.984611,-9.793126
1790548916.3894,-0.016972,-0.000173,0.022275,-0.018329,0.000573,0.022275,0.409803,-0.568883,1.596476,0.300631,3.170511,-9.249770
1790548916.4041,-0.017144,0.000604,0.058704,-0.017500,0.000595,0.058704,0.379450,-0.499677,1.734888,1.335487,3.244871,-6.455364
1790548916.4185,-0.016142,0.003163,0.081627,-0.016549,0.002393,0.081627,0.196114,-0.477823,1.821092,1.067191,3.802571,-8.279490
1790548916.4326,-0.026841,0.003614,0.124079,-0.023754,0.003247,0.124079,-0.097708,0.310156,1.907296,1.757095,2.166651,-12.781588
1790548916.4467,-0.029318,0.002971,0.131303,-0.027649,0.003054,0.131303,-0.162058,0.091610,1.812593,-0.772552,1.014071,-12.393476
1790548916.4606,-0.029148,0.000979,0.130504,-0.028699,0.001601,0.130504,-0.111064,0.016333,1.541840,-1.117504,0.456371,-10.375294
1790548916.4746,-0.027473,0.000534,0.126561,-0.027841,0.000855,0.126561,-0.216694,-0.011592,1.159385,-1.347472,0.344831,-10.530539
1790548916.4886,-0.022820,-0.005585,0.124249,-0.024327,-0.003653,0.124249,0.020064,-0.097796,0.555956,-1.385800,-0.919289,-8.357112
1790548916.5026,-0.028167,-0.012047,0.136069,-0.027015,-0.009529,0.136069,0.255607,0.189956,0.245136,1.412143,0.084571,-9.133336
1790548916.5162,-0.028561,-0.019129,0.141382,-0.028097,-0.016249,0.141382,0.479009,-0.091725,0.033875,1.182175,1.014071,-9.327392
1790548916.5300,-0.038829,-0.024479,0.153790,-0.035609,-0.022010,0.153790,0.477795,0.486206,-0.021975,2.293686,1.757671,-9.249770
1790548916.5440,-0.038170,-0.029715,0.144599,-0.037402,-0.027404,0.144599,0.335741,0.245806,-0.041402,-1.615768,1.088431,-11.539630
1790548916.5580,-0.041404,-0.033933,0.137498,-0.040203,-0.031974,0.137498,0.268963,0.392717,-0.151889,-0.389272,0.976891,-11.112707
1790548916.5719,-0.027029,-0.036685,0.130541,-0.030981,-0.035272,0.130541,0.013993,-0.817782,-0.236879,-1.117504,-0.250049,-12.160609
1790548916.5860,-0.010163,-0.031239,0.122893,-0.016408,-0.032449,0.122893,-0.525086,-1.150457,-0.460281,0.415615,0.121751,-12.160609
1790548916.6000,-0.005078,-0.019954,0.126587,-0.008477,-0.023703,0.126587,-0.920896,-0.666015,-0.516131,2.332014,0.233291,-7.464455
1790548916.6139,0.007906,-0.013919,0.137770,0.002991,-0.016854,0.137770,-0.925753,-1.097035,-0.499133,1.028863,-1.365448,-5.446273
1790548916.6279,0.008527,-0.004268,0.127611,0.006866,-0.008044,0.127611,-0.749702,0.085539,-0.847592,0.070663,0.753811,-8.007811
1790548916.6419,0.007689,-0.011234,0.119803,0.007442,-0.010277,0.119803,0.515434,0.370863,-1.097705,-1.692424,2.426911,-17.089630
1790548916.6564,0.009971,-0.000367,0.111563,0.009212,-0.003340,0.111563,-0.210623,0.130463,-0.874303,-1.347472,6.256450,-9.210958
1790548916.6707,-0.003320,-0.003239,0.096097,0.000439,-0.003269,0.096097,0.191258,0.868661,-0.831808,2.063719,1.385871,-10.802217
1790548916.6846,-0.002973,0.000307,0.081596,-0.001949,-0.000766,0.081596,-0.189983,0.340509,-1.052782,-1.155832,1.497411,-8.163056
1790548916.6987,-0.007560,0.005786,0.069148,-0.005877,0.003821,0.069148,-0.362391,0.347794,-0.800240,0.875551,1.199971,-7.309210
1790548916.7127,-0.009674,0.006187,0.057830,-0.008535,0.005477,0.057830,-0.079496,0.308941,-0.782028,0.070663,0.939711,-9.754315
1790548916.7266,-0.011662,0.006060,0.049526,-0.010724,0.005885,0.049526,-0.046714,0.209382,-0.542842,0.568927,1.051251,-10.802217
1790548916.7403,-0.013058,0.009043,0.046884,-0.012357,0.008095,0.046884,-0.191197,0.159602,-0.198026,0.147319,1.683311,-9.366203
1790548916.7539,-0.015410,0.011033,0.048729,-0.014494,0.010152,0.048729,-0.197268,0.141390,0.172287,0.453943,1.348691,-10.608161
1790548916.7680,-0.014871,0.010006,0.057718,-0.014758,0.010050,0.057718,0.043132,0.081897,0.416330,-1.462456,1.720491,-11.384385
1790548916.7820,-0.018737,0.008205,0.067681,-0.017543,0.008758,0.067681,0.136621,0.253091,0.615449,-0.274288,2.166651,-11.384385
1790548916.7959,-0.016725,0.005569,0.079592,-0.016971,0.006526,0.079592,0.084413,-0.271418,0.928698,0.185647,1.125611,-11.229140
1790548916.8098,-0.017330,0.001296,0.097259,-0.017222,0.002865,0.097259,0.403733,-0.185214,1.095035,0.913879,2.798711,-9.715504
1790548916.8238,-0.015308,0.002973,0.119356,-0.015882,0.002941,0.119356,0.238609,-0.268990,1.218878,-0.197632,4.248731,-7.192776
1790548916.8378,-0.014989,-0.001474,0.145130,-0.015257,-0.000150,0.145130,0.435300,-0.312699,1.416783,0.990535,2.984611,-9.366203
1790548916.8517,-0.012894,-0.003937,0.169958,-0.013603,-0.002801,0.169958,0.438943,-0.455968,1.534555,0.913879,3.914111,-8.124245
1790548916.8657,-0.013860,-0.003379,0.199843,-0.013783,-0.003206,0.199843,0.199757,-0.327269,1.663254,1.642111,4.025651,-8.628791
1790548916.8797,-0.016073,-0.001721,0.226720,-0.015386,-0.002166,0.226720,-0.106207,-0.142719,1.881799,0.607255,2.501271,-10.724595
1790548916.8937,-0.022105,-0.001338,0.249811,-0.020089,-0.001586,0.249811,-0.136561,0.171743,1.947363,0.147319,1.274331,-10.336483
1790548916.9081,-0.024990,-0.005142,0.261980,-0.023520,-0.004075,0.261980,0.084413,0.044259,1.816236,-0.580912,0.493551,-9.405014
1790548916.9223,-0.024394,-0.007326,0.244194,-0.024132,-0.006351,0.244194,0.040704,0.081897,1.522413,-2.343999,0.902531,-8.046623
1790548916.9362,-0.026115,-0.008547,0.251763,-0.025520,-0.007888,0.251763,-0.044286,0.024832,1.041613,-0.005993,0.716631,-10.996273
1790548916.9501,-0.026035,-0.010966,0.247443,-0.025881,-0.010043,0.247443,0.012779,0.035760,0.479465,-0.580912,0.084571,-10.220049
1790548916.9637,-0.030783,-0.018036,0.250345,-0.029312,-0.015638,0.250345,0.355167,0.268875,0.196570,1.220503,-0.212869,-11.462007
1790548916.9775,-0.029742,-0.026521,0.244171,-0.029613,-0.023256,0.244171,0.513005,0.015119,0.012021,-0.465928,0.307651,-12.082986
1790548916.9913,-0.035449,-0.032371,0.241625,-0.033698,-0.029637,0.241625,0.454727,0.437641,-0.213810,0.607255,1.348691,-9.715504
1790548917.0054,-0.032268,-0.040766,0.233126,-0.032697,-0.037428,0.233126,0.526361,-0.066228,-0.222309,-0.772552,0.270471,-9.210958
1790548917.0193,-0.037663,-0.046397,0.227686,-0.036173,-0.043706,0.227686,0.375807,0.389075,-0.252662,0.798895,0.530731,-8.861658
1790548917.0334,-0.026570,-0.045106,0.220901,-0.029451,-0.044686,0.220901,-0.169342,-0.686655,-0.230808,-0.580912,0.307651,-16.002917
1790548917.0493,-0.001378,-0.034063,0.212138,-0.009800,-0.037250,0.212138,-0.784913,-1.494060,-0.400788,-0.465928,0.010211,-12.471098
1790548917.0641,-0.002310,-0.018162,0.225121,-0.004557,-0.023888,0.225121,-1.090876,-0.143934,-0.421428,2.715294,0.828171,-8.201867
1790548917.0787,0.012076,-0.001139,0.225544,0.007086,-0.007963,0.225544,-1.118802,-1.053326,-0.558626,0.683911,0.828171,-4.126693
1790548917.0933,-0.003671,0.005012,0.239759,-0.000444,0.001119,0.239759,-0.451023,0.833451,-0.882802,4.516709,0.902531,-8.628791
1790548917.1086,0.004451,0.004981,0.222462,0.002982,0.003823,0.222462,0.268963,-0.184000,-1.089206,-2.995575,6.628250,-13.557812
1790548917.1228,-0.002583,0.015785,0.216394,-0.000914,0.012196,0.216394,-0.420670,0.569982,-1.010287,1.603783,6.479530,-11.073895
1790548917.1371,-0.007500,0.014519,0.193745,-0.005524,0.013822,0.193745,0.118409,0.617334,-1.146271,-0.427600,1.348691,-8.201867
1790548917.1515,-0.017343,0.021089,0.189002,-0.013797,0.018909,0.189002,-0.395173,0.709608,-0.941081,1.872079,1.869211,-8.900469
1790548917.1659,-0.033220,0.028424,0.186400,-0.027393,0.025570,0.186400,-0.532371,1.090849,-0.801455,2.140375,0.865351,-8.357112
1790548917.1800,-0.039466,0.034271,0.177029,-0.035844,0.031661,0.177029,-0.415813,0.569982,-0.665471,0.568927,1.162791,-8.551168
1790548917.1936,-0.042024,0.038089,0.168812,-0.040170,0.036161,0.168812,-0.313825,0.323511,-0.578052,0.415615,1.125611,-10.181238
1790548917.2073,-0.040967,0.044098,0.156234,-0.040728,0.041717,0.156234,-0.398815,0.120749,-0.389860,-0.619240,1.906391,-8.784035
1790548917.2209,-0.040226,0.046224,0.154146,-0.040377,0.044872,0.154146,-0.278615,-0.001879,-0.032903,0.147319,0.790991,-13.208511
1790548917.2349,-0.034654,0.037021,0.161207,-0.036371,0.039376,0.161207,0.497222,-0.454754,0.599665,-0.312616,0.753811,-14.217602
1790548917.2489,-0.036198,0.034173,0.169969,-0.036250,0.035734,0.169969,0.345454,-0.021305,0.710152,0.568927,3.914111,-9.288581
1790548917.2629,-0.030985,0.032069,0.181292,-0.032565,0.033168,0.181292,0.146334,-0.493606,0.916556,-0.159304,2.910251,-11.656063
1790548917.2768,-0.026492,0.025890,0.199066,-0.028314,0.028074,0.199066,0.498436,-0.534887,1.204308,0.377287,3.542311,-10.646972
1790548917.2908,-0.019775,0.020981,0.217142,-0.022336,0.023109,0.217142,0.545787,-0.684227,1.352433,-0.082648,4.546171,-8.628791
1790548917.3046,-0.016692,0.014817,0.247262,-0.018385,0.017305,0.247262,0.585854,-0.566455,1.485989,1.105519,3.319231,-7.697322
1790548917.3185,-0.011741,0.007399,0.268624,-0.013734,0.010370,0.268624,0.719410,-0.636875,1.530912,0.530599,3.691031,-7.542077
1790548917.3326,-0.013833,-0.001784,0.307516,-0.013804,0.001863,0.307516,0.868749,-0.289631,1.801666,1.603783,3.579491,-6.455364
1790548917.3465,-0.019493,-0.002322,0.324972,-0.017787,-0.001066,0.324972,0.068629,0.162030,1.772527,0.377287,3.876931,-14.217602
1790548917.3605,-0.027609,-0.001895,0.340567,-0.024662,-0.001646,0.340567,-0.062498,0.350222,1.915795,-0.044320,2.798711,-12.898021
1790548917.3746,-0.026219,-0.007250,0.338270,-0.025752,-0.005569,0.338270,0.187615,-0.184000,1.782240,-1.654096,0.196111,-10.879840
1790548917.3886,-0.028178,-0.013258,0.339862,-0.027450,-0.010951,0.339862,0.228896,0.085539,1.492060,-1.194160,-0.138509,-9.172147
1790548917.4027,-0.033390,-0.017963,0.344133,-0.031608,-0.015859,0.344133,0.188829,0.315012,1.048898,-0.312616,0.158931,-6.843476
1790548917.4171,-0.028467,-0.023298,0.339727,-0.029409,-0.021066,0.339727,0.170617,-0.086869,0.392047,-3.762135,-1.142369,-10.375294
1790548917.4309,-0.028681,-0.027716,0.329129,-0.028900,-0.025721,0.329129,0.185187,0.136533,-0.020761,-0.964192,-0.435949,-10.918651
1790548917.4446,-0.031194,-0.032883,0.321048,-0.030506,-0.030735,0.321048,0.288389,0.242164,-0.131248,0.070663,0.047391,-11.888930
1790548917.4586,-0.035270,-0.037617,0.316197,-0.033841,-0.035552,0.316197,0.333312,0.328368,-0.156745,0.377287,1.014071,-10.297672
1790548917.4725,-0.035750,-0.044903,0.307595,-0.035177,-0.042098,0.307595,0.515434,0.114679,-0.313369,0.032335,0.605091,-7.930189
1790548917.4865,-0.039476,-0.048856,0.326364,-0.038186,-0.046829,0.326364,0.443799,0.221523,-0.341295,1.182175,2.092291,-7.425644
1790548917.5006,-0.023569,-0.044988,0.317142,-0.027954,-0.045540,0.317142,-0.322324,-1.071538,-0.497919,0.530599,0.419191,-17.865854
1790548917.5146,-0.008023,-0.029685,0.321030,-0.014002,-0.034441,0.321030,-1.161297,-1.169884,-0.652115,2.600310,0.084571,-13.596623
1790548917.5287,-0.010478,-0.016991,0.371200,-0.011535,-0.022226,0.371200,-1.126086,-0.107509,-0.559840,3.558510,-1.476988,-6.532986
1790548917.5428,0.001303,-0.002108,0.355921,-0.002548,-0.008144,0.355921,-1.174652,-0.667229,-0.894944,-0.427600,-0.435949,-11.888930
1790548917.5569,-0.007480,-0.001343,0.337152,-0.006001,-0.003383,0.337152,-0.069783,0.766673,-1.267685,1.143847,0.976891,-11.306763
1790548917.5709,0.000614,0.002467,0.320056,-0.001371,0.000712,0.320056,0.023706,-0.380691,-1.222762,-0.044320,6.144910,-11.035084
1790548917.5851,-0.004175,0.006685,0.302306,-0.003333,0.004893,0.302306,-0.380603,0.515346,-1.078279,0.300631,0.158931,-12.082986
1790548917.5990,-0.007481,0.001148,0.278410,-0.006237,0.002271,0.278410,0.321171,0.543271,-1.266471,-1.002520,0.047391,-9.870749
1790548917.6130,-0.006200,0.006364,0.263780,-0.006211,0.005136,0.263780,-0.266474,0.118321,-1.098919,-0.197632,2.389731,-9.094525
1790548917.6271,-0.013271,0.011503,0.252172,-0.011153,0.009593,0.252172,-0.391530,0.516560,-0.978719,1.833751,0.642271,-7.580888
1790548917.6411,-0.021222,0.014003,0.238705,-0.018201,0.012680,0.238705,-0.234906,0.686540,-0.824523,0.760567,0.419191,-9.987182
1790548917.6548,-0.018710,0.016120,0.229982,-0.018557,0.015088,0.229982,-0.193625,-0.026162,-0.552555,-0.427600,0.865351,-9.754315
1790548917.6690,-0.017999,0.015817,0.224766,-0.018166,0.015598,0.224766,-0.023645,0.022404,-0.303656,0.108991,0.865351,-9.405014
1790548917.6827,-0.021561,0.020985,0.226970,-0.020543,0.019369,0.226970,-0.251904,0.342937,0.073942,-0.657568,2.835891,-8.046623
1790548917.6968,-0.023367,0.021529,0.229801,-0.022520,0.020881,0.229801,-0.083138,0.192384,0.435756,-1.692424,1.646131,-11.772497
1790548917.7108,-0.017326,0.012843,0.239219,-0.018884,0.015254,0.239219,0.549430,-0.532459,0.729579,-0.044320,1.571771,-13.596623
1790548917.7248,-0.020233,0.012399,0.267429,-0.019829,0.013255,0.267429,0.265320,-0.083226,0.979692,1.948735,4.732071,-7.697322
1790548917.7389,-0.017483,0.010898,0.288006,-0.018187,0.011605,0.288006,0.220397,-0.402546,1.198237,0.530599,4.397451,-10.724595
1790548917.7528,-0.013246,0.000295,0.309720,-0.014728,0.003688,0.309720,0.798329,-0.528817,1.360932,0.415615,2.873071,-10.181238
1790548917.7667,-0.010268,-0.003055,0.328683,-0.011606,-0.001032,0.328683,0.519076,-0.449897,1.390072,0.492271,4.546171,-6.494175
1790548917.7805,-0.010843,-0.006408,0.354524,-0.011072,-0.004795,0.354524,0.372165,-0.226495,1.528484,0.875551,3.951291,-9.482637
1790548917.7945,-0.012831,-0.007184,0.368953,-0.012303,-0.006467,0.368953,0.106268,-0.031018,1.680252,-0.695896,3.728211,-12.238231
1790548917.8085,-0.016264,-0.005770,0.388214,-0.015076,-0.005979,0.388214,-0.097708,0.027261,1.938864,-0.542584,3.133331,-12.199420
1790548917.8223,-0.018639,-0.007599,0.398987,-0.017570,-0.007113,0.398987,-0.045500,-0.005521,1.849018,-0.657568,0.047391,-8.551168
1790548917.8363,-0.023847,-0.011734,0.407100,-0.021964,-0.010348,0.407100,0.126908,0.243378,1.621973,-0.734224,0.047391,-8.861658
1790548917.8502,-0.022868,-0.012729,0.404922,-0.022597,-0.012015,0.404922,-0.026074,-0.028590,1.260159,-1.654096,0.605091,-6.455364
1790548917.8642,-0.024470,-0.014579,0.404666,-0.023908,-0.013810,0.404666,-0.026074,0.081897,0.625162,-0.235960,-0.398769,-9.948371
1790548917.8782,-0.025677,-0.019072,0.402814,-0.025147,-0.017493,0.402814,0.196114,0.069755,0.177144,0.492271,-0.361589,-12.354665
1790548917.8917,-0.024281,-0.025648,0.393659,-0.024541,-0.023201,0.393659,0.377021,-0.021305,-0.173743,-0.427600,-0.398769,-13.441378
1790548917.9056,-0.029284,-0.028670,0.387055,-0.027861,-0.027030,0.387055,0.224040,0.413358,-0.334010,0.377287,0.976891,-9.055714
1790548917.9202,-0.026598,-0.034971,0.376269,-0.026977,-0.032588,0.376269,0.406161,-0.021305,-0.410501,-1.079176,0.493551,-9.210958
1790548917.9343,-0.030622,-0.039778,0.369273,-0.029529,-0.037621,0.369273,0.363666,0.350222,-0.404430,0.262303,0.939711,-8.279490
1790548917.9483,-0.025146,-0.042263,0.358127,-0.026461,-0.040871,0.358127,0.111124,-0.261705,-0.393503,-0.887536,-0.064149,-12.315854
1790548917.9624,-0.006964,-0.033817,0.350754,-0.012813,-0.035933,0.350754,-0.629502,-1.242732,-0.439640,0.262303,0.939711,-14.605714
1790548917.9765,0.006464,-0.018622,0.342036,0.000681,-0.023816,0.342036,-1.144299,-0.927055,-0.608406,0.990535,0.233291,-11.850119
1790548917.9906,0.009318,-0.007526,0.377588,0.006727,-0.012413,0.377588,-1.041096,-0.360051,-0.544056,1.833751,-1.402628,-4.825294
1790548918.0045,0.018242,0.004717,0.366142,0.014788,-0.000422,0.366142,-0.941537,-0.585881,-0.751675,0.607255,0.530731,-8.046623
1790548918.0184,0.011009,0.007323,0.341274,0.012143,0.004999,0.341274,-0.328395,0.727821,-1.475303,0.913879,-0.882109,-14.799770
1790548918.0325,0.018111,0.017383,0.357788,0.016321,0.013668,0.357788,-0.419456,-0.322412,-1.162055,0.032335,6.479530,-9.676693
1790548918.0464,0.008493,0.019234,0.344463,0.010842,0.017564,0.344463,-0.067355,0.828594,-1.053996,0.990535,2.798711,-10.918651
1790548918.0604,0.002348,0.018398,0.323098,0.004896,0.018148,0.323098,0.046775,0.739962,-1.272542,-0.695896,1.014071,-8.512357
1790548918.0743,-0.003640,0.026320,0.311825,-0.001079,0.023869,0.311825,-0.483805,0.503204,-1.041855,1.220503,1.646131,-6.067252
1790548918.0882,-0.009798,0.029582,0.294129,-0.007182,0.027868,0.294129,-0.301684,0.628261,-0.939867,0.223975,0.382011,-8.706413
1790548918.1021,-0.016150,0.030842,0.280070,-0.013459,0.029950,0.280070,-0.112278,0.640402,-0.779600,-0.044320,1.051251,-9.676693
1790548918.1158,-0.016722,0.035037,0.273514,-0.015743,0.033511,0.273514,-0.274973,0.194812,-0.506418,-0.350944,1.720491,-8.357112
1790548918.1294,-0.021927,0.040710,0.270770,-0.020072,0.038551,0.270770,-0.366033,0.476493,-0.242949,-0.120976,2.129471,-8.551168
1790548918.1434,-0.019854,0.041246,0.271217,-0.019920,0.040437,0.271217,-0.084353,-0.051659,0.128578,-1.577440,1.534591,-11.229140
1790548918.1573,-0.016281,0.035018,0.276594,-0.017372,0.036644,0.276594,0.380664,-0.226495,0.475823,-2.037376,1.646131,-13.751868
1790548918.1719,-0.014343,0.028181,0.292133,-0.015252,0.030720,0.292133,0.448656,-0.203426,0.870419,-1.270816,2.464091,-11.772497
1790548918.1860,-0.012872,0.026697,0.319676,-0.013586,0.027904,0.319676,0.210684,-0.255635,1.045256,-0.274288,3.988471,-9.831937
1790548918.1995,-0.010682,0.021802,0.343077,-0.011553,0.023633,0.343077,0.387949,-0.383120,1.268658,0.223975,2.873071,-10.220049
1790548918.2135,-0.005509,0.015166,0.374283,-0.007322,0.017706,0.374283,0.580997,-0.583453,1.400999,-0.235960,3.876931,-9.443825
1790548918.2275,-0.002369,0.010424,0.408621,-0.003855,0.012608,0.408621,0.522719,-0.470538,1.517557,0.032335,3.839751,-7.153965
1790548918.2416,0.000168,0.003310,0.443354,-0.001038,0.006100,0.443354,0.640490,-0.488750,1.587977,0.760567,3.319231,-7.542077
1790548918.2558,-0.001475,-0.003098,0.477047,-0.001344,-0.000339,0.477047,0.590710,-0.204641,1.748244,0.837223,3.505131,-7.852567
1790548918.2697,-0.004985,-0.005595,0.504953,-0.003893,-0.004018,0.504953,0.173046,-0.027376,2.049351,-0.082648,2.575631,-11.811308
1790548918.2835,-0.011490,-0.007164,0.525072,-0.009211,-0.006220,0.525072,0.023706,0.222737,1.943721,-0.197632,1.274331,-12.354665
1790548918.2975,-0.017859,-0.013171,0.533569,-0.015264,-0.011086,0.533569,0.271391,0.273731,1.733674,-0.504256,0.047391,-11.462007
1790548918.3115,-0.020474,-0.013904,0.531676,-0.018911,-0.013059,0.531676,-0.075854,0.134105,1.374288,-1.309144,0.382011,-8.706413
1790548918.3254,-0.022313,-0.017397,0.513368,-0.021292,-0.016096,0.513368,0.084413,0.210596,0.694368,-2.114032,-0.547489,-10.336483
1790548918.3393,-0.026503,-0.021938,0.503783,-0.024940,-0.020185,0.503783,0.193686,0.298014,0.212354,0.185647,-0.435949,-9.210958
1790548918.3530,-0.029232,-0.028847,0.498040,-0.027944,-0.026249,0.498040,0.451084,0.221523,0.042374,0.185647,0.605091,-11.850119
1790548918.3666,-0.036364,-0.035726,0.496567,-0.033838,-0.032883,0.496567,0.505721,0.505633,-0.133676,1.182175,1.051251,-10.297672
1790548918.3806,-0.036712,-0.043051,0.486619,-0.035850,-0.040001,0.486619,0.504506,0.154745,-0.246592,-0.964192,0.642271,-10.491728
1790548918.3945,-0.041684,-0.049744,0.482307,-0.039934,-0.046821,0.482307,0.483866,0.353865,-0.286658,1.143847,0.753811,-9.637881
1790548918.4087,-0.032182,-0.051184,0.470282,-0.034508,-0.049875,0.470282,0.055274,-0.500891,-0.374077,-1.884064,0.084571,-12.509909
1790548918.4233,-0.008335,-0.042761,0.458644,-0.016187,-0.044895,0.458644,-0.611290,-1.538983,-0.546485,-0.542584,0.456371,-12.160609
1790548918.4376,-0.004653,-0.028328,0.470881,-0.008113,-0.033298,0.470881,-1.043525,-0.435328,-0.687325,3.558510,0.121751,-7.697322
1790548918.4515,0.002569,-0.016420,0.465596,-0.000636,-0.021484,0.465596,-1.070236,-0.664800,-0.680040,2.063719,-1.253909,-5.174595
1790548918.4655,0.026454,0.005447,0.461929,0.018327,-0.002632,0.461929,-1.534038,-1.678609,-0.669113,0.453943,1.162791,-5.873196
1790548918.4795,0.017016,-0.001318,0.441044,0.017409,-0.001712,0.441044,0.313886,0.765459,-0.976291,1.833751,-1.811608,-16.934385
1790548918.4935,0.025986,-0.002868,0.444405,0.023413,-0.002521,0.444405,0.254393,-0.326055,-1.083136,-5.486894,7.780830,-20.388581
1790548918.5077,0.011779,-0.006378,0.429302,0.015269,-0.005221,0.429302,0.288389,1.055639,-1.176624,2.676966,2.464091,-11.888930
1790548918.5220,0.004229,-0.003779,0.410059,0.007541,-0.004212,0.410059,-0.158415,0.675612,-1.285897,0.875551,1.423051,-9.055714
1790548918.5360,-0.000618,0.007978,0.395979,0.001830,0.004321,0.395979,-0.742418,0.481350,-1.211835,0.837223,2.017931,-7.386832
1790548918.5500,-0.009275,0.009950,0.375827,-0.005943,0.008262,0.375827,-0.188769,0.781243,-1.096491,0.530599,0.307651,-7.852567
1790548918.5640,-0.006394,0.012601,0.362216,-0.006259,0.011299,0.362216,-0.197268,0.012691,-0.918012,-0.619240,0.902531,-8.007811
1790548918.5776,-0.004691,0.015149,0.353361,-0.005161,0.013994,0.353361,-0.166914,0.038188,-0.690968,-0.389272,1.460231,-8.512357
1790548918.5914,-0.006165,0.017025,0.349309,-0.005864,0.016116,0.349309,-0.118349,0.221523,-0.326725,-0.542584,1.683311,-9.210958
1790548918.6055,-0.004937,0.020415,0.356303,-0.005215,0.019126,0.356303,-0.153559,0.060042,0.003522,-1.960720,2.873071,-9.055714
1790548918.6196,-0.010864,0.018026,0.363398,-0.009169,0.018356,0.363398,0.154833,0.353865,0.577811,-0.082648,1.906391,-10.996273
1790548918.6335,-0.001930,0.008063,0.376097,-0.004102,0.011151,0.376097,0.658702,-0.749790,0.966336,-1.002520,1.608951,-13.363756
1790548918.6474,-0.005548,0.005127,0.410010,-0.005114,0.006934,0.410010,0.403733,0.066113,1.169098,0.377287,4.657711,-8.589979
1790548918.6613,-0.006667,0.004703,0.438833,-0.006201,0.005372,0.438833,0.156048,-0.140291,1.328151,0.377287,3.505131,-8.163056
1790548918.6756,-0.000347,-0.002559,0.463208,-0.002103,-0.000180,0.463208,0.540931,-0.629590,1.445922,-0.427600,2.649991,-9.715504
1790548918.6895,0.004998,-0.005576,0.494723,0.002867,-0.003957,0.494723,0.428015,-0.628376,1.540626,0.223975,4.174371,-7.192776
1790548918.7036,0.001785,-0.007479,0.527392,0.002109,-0.006422,0.527392,0.262892,-0.061372,1.719104,0.837223,4.248731,-10.220049
1790548918.7175,0.001042,-0.004046,0.553827,0.001362,-0.004759,0.553827,-0.189983,-0.190071,1.857517,-0.274288,3.096151,-10.103616
1790548918.7315,-0.000696,-0.005768,0.579392,-0.000078,-0.005465,0.579392,0.120837,-0.134220,2.078490,-0.542584,2.315371,-10.452916
1790548918.7455,-0.005698,-0.007551,0.601825,-0.004012,-0.006925,0.601825,0.029777,0.083111,1.992286,0.070663,0.642271,-8.706413
1790548918.7594,-0.014824,-0.010840,0.613339,-0.011580,-0.009666,0.613339,0.141478,0.489849,1.682680,-0.619240,0.790991,-9.560259
1790548918.7735,-0.013113,-0.012031,0.600577,-0.012653,-0.011322,0.600577,-0.068569,-0.114794,1.291726,-2.343999,-0.064149,-9.327392
1790548918.7875,-0.018790,-0.014163,0.587953,-0.016949,-0.013311,0.587953,-0.004219,0.440069,0.598451,-1.309144,-0.621849,-10.258860
1790548918.8016,-0.022580,-0.018115,0.578607,-0.020891,-0.016674,0.578607,0.159690,0.288301,0.236637,-0.350944,-0.361589,-11.656063
1790548918.8153,-0.021463,-0.022373,0.564928,-0.021291,-0.020663,0.564928,0.192472,0.016333,-0.069327,-1.155832,-0.621849,-13.130889
1790548918.8289,-0.022641,-0.023232,0.564933,-0.022236,-0.022461,0.564933,0.083199,0.072184,-0.261161,0.990535,1.162791,-8.279490
1790548918.8429,-0.014848,-0.027071,0.552072,-0.017065,-0.025688,0.552072,0.168189,-0.353980,-0.303656,-1.845736,-0.435949,-7.969000
1790548918.8568,-0.017903,-0.031380,0.557018,-0.017651,-0.029672,0.557018,0.346668,0.163244,-0.201668,0.913879,0.865351,-5.368651
1790548918.8709,-0.018547,-0.035789,0.553133,-0.018278,-0.033954,0.553133,0.309030,0.095252,-0.136105,-0.120976,1.162791,-10.957462
1790548918.8850,0.001735,-0.028090,0.545676,-0.004269,-0.029850,0.545676,-0.627074,-1.369003,-0.130034,-1.730752,0.196111,-19.185434
1790548918.8988,0.020173,-0.011969,0.537083,0.012840,-0.017333,0.537083,-1.266927,-1.343506,-0.319440,0.952207,-0.175689,-14.644525
1790548918.9130,0.020780,-0.001198,0.555145,0.018398,-0.006039,0.555145,-1.083591,-0.145148,-0.580481,1.412143,-1.960328,-3.971448
1790548918.9274,0.013144,-0.005437,0.539306,0.014720,-0.005618,0.539306,0.136621,0.843164,-0.919226,-2.688951,-1.328269,-10.025993
1790548918.9416,0.028940,-0.009124,0.532531,0.024674,-0.008072,0.532531,0.253179,-0.837209,-1.066138,-2.458983,1.385871,-11.190329
1790548918.9555,0.020190,0.002357,0.544005,0.021535,-0.000772,0.544005,-0.636787,0.678041,-0.801455,1.373815,4.694891,-10.064805
1790548918.9696,0.008932,0.002138,0.521095,0.012713,0.001265,0.521095,-0.043072,1.020429,-1.052782,-0.695896,0.642271,-12.277042
1790548918.9835,0.005599,0.004897,0.507540,0.007733,0.003807,0.507540,-0.217908,0.565125,-1.012715,-1.539112,0.605091,-6.300119
1790548918.9968,-0.003118,0.015193,0.503293,0.000138,0.011777,0.503293,-0.671997,0.793384,-0.886445,0.377287,1.943571,-6.610609
1790548919.0098,-0.013515,0.024648,0.490460,-0.009419,0.020787,0.490460,-0.697494,0.969435,-0.840307,0.185647,1.646131,-9.249770
1790548919.0229,-0.021343,0.030017,0.468310,-0.017766,0.027248,0.468310,-0.491090,0.691396,-0.632689,0.952207,0.307651,-11.345574
1790548919.0364,-0.018843,0.033754,0.459433,-0.018520,0.031802,0.459433,-0.333252,0.047901,-0.505204,-1.999048,0.753811,-11.267951
1790548919.0500,-0.020910,0.032424,0.456569,-0.020193,0.032238,0.456569,0.095341,0.192384,-0.133676,0.223975,1.608951,-9.288581
1790548919.0639,-0.015763,0.032573,0.478830,-0.017092,0.032472,0.478830,0.074700,-0.268990,0.201427,-1.769080,2.947431,-8.978091
1790548919.0778,-0.016161,0.031812,0.492055,-0.016440,0.032010,0.492055,0.073486,-0.038303,0.534102,-0.120976,2.612811,-10.685784
1790548919.0916,-0.011254,0.029540,0.509461,-0.012810,0.030281,0.509461,0.174260,-0.434113,0.745362,-0.810880,2.798711,-11.617252
1790548919.1056,-0.005715,0.023069,0.531012,-0.007844,0.025233,0.531012,0.472939,-0.574954,1.029472,0.070663,2.835891,-11.656063
1790548919.1197,-0.000715,0.017998,0.574010,-0.002853,0.020168,0.574010,0.528789,-0.556742,1.246803,-0.082648,3.988471,-7.736133
1790548919.1356,0.003377,0.011459,0.615841,0.001508,0.014072,0.615841,0.530003,-0.559170,1.475062,0.913879,3.616671,-8.124245
1790548919.1501,0.008613,0.004968,0.654347,0.006481,0.007699,0.654347,0.640490,-0.647802,1.564908,0.492271,4.323091,-7.658511
1790548919.1646,0.011246,0.000311,0.687947,0.009816,0.002528,0.687947,0.539717,-0.519103,1.646256,1.105519,4.323091,-7.076343
1790548919.1790,0.008117,-0.002761,0.720621,0.008627,-0.001175,0.720621,0.389163,-0.097796,1.685108,1.067191,4.546171,-8.900469
1790548919.1936,0.001838,-0.003345,0.746296,0.003874,-0.002694,0.746296,0.058916,0.196026,1.774955,-0.389272,3.058971,-12.975644
1790548919.2075,0.002839,-0.003027,0.747769,0.003149,-0.002927,0.747769,-0.096494,-0.191285,1.637757,-1.884064,1.237151,-11.306763
1790548919.2214,-0.001048,-0.006754,0.747851,0.000212,-0.005606,0.747851,0.106268,0.089182,1.415569,0.108991,-0.473129,-10.452916
1790548919.2354,-0.002125,-0.009955,0.732355,-0.001424,-0.008651,0.732355,0.041918,0.019976,1.059825,-0.964192,-0.733389,-8.667602
1790548919.2495,-0.002486,-0.011370,0.711901,-0.002167,-0.010554,0.711901,-0.056427,0.081897,0.434542,-1.692424,-0.733389,-11.112707
1790548919.2631,-0.001017,-0.012916,0.694806,-0.001362,-0.012207,0.694806,0.015207,-0.004307,-0.116678,-1.117504,0.010211,-10.530539
1790548919.2768,0.000729,-0.017866,0.675892,0.000102,-0.016168,0.675892,0.264106,-0.049230,-0.491848,0.108991,-0.212869,-11.850119
1790548919.2905,-0.002249,-0.021306,0.669705,-0.001544,-0.019765,0.669705,0.272605,0.272517,-0.541628,0.492271,1.274331,-8.900469
1790548919.3044,0.001262,-0.026984,0.655220,0.000420,-0.024818,0.655220,0.386735,-0.091725,-0.632689,-0.964192,0.679451,-9.055714
1790548919.3184,0.005960,-0.032716,0.644322,0.004298,-0.030346,0.644322,0.413446,-0.175501,-0.654543,-0.772552,0.753811,-6.765853
1790548919.3324,0.004589,-0.040294,0.628876,0.004501,-0.037310,0.628876,0.489937,0.148675,-0.612048,0.377287,0.158931,-6.998721
1790548919.3464,0.010220,-0.040351,0.622015,0.008504,-0.039439,0.622015,0.011565,-0.343053,-0.531915,0.185647,1.869211,-16.468651
1790548919.3604,0.028473,-0.028123,0.609680,0.022482,-0.031518,0.609680,-0.925753,-1.228162,-0.584123,-0.504256,0.753811,-15.110259
1790548919.3744,0.032934,-0.006788,0.605491,0.029799,-0.014207,0.605491,-1.544965,-0.374621,-0.830594,2.217030,0.939711,-8.357112
1790548919.3884,0.029506,-0.003066,0.569504,0.029594,-0.006409,0.569504,-0.521444,0.438855,-1.381815,0.223975,-2.703928,-11.462007
1790548919.4024,0.028874,-0.005419,0.548608,0.029090,-0.005716,0.548608,0.162118,0.253091,-1.500800,0.262303,1.869211,-12.044175
1790548919.4167,0.028173,0.011709,0.602884,0.028448,0.006482,0.602884,-0.858975,0.084325,-1.086778,2.255358,7.074410,-8.395923
1790548919.4312,0.021381,0.015180,0.573670,0.023501,0.012571,0.573670,-0.333252,0.719322,-1.180267,-0.734224,0.233291,-9.637881
1790548919.4452,0.018296,0.015404,0.548550,0.019857,0.014554,0.548550,-0.058856,0.607620,-1.312608,-2.343999,0.865351,-9.016902
1790548919.4592,0.007804,0.024387,0.545648,0.011420,0.021437,0.545648,-0.548155,0.703538,-0.891301,3.021918,2.501271,-7.697322
1790548919.4733,0.001130,0.033728,0.527408,0.004217,0.030041,0.527408,-0.688995,0.619762,-0.931368,0.760567,1.199971,-9.715504
1790548919.4872,-0.012004,0.041957,0.510840,-0.007138,0.038382,0.510840,-0.636787,0.946366,-0.602335,2.446998,0.902531,-9.793126
1790548919.5009,-0.009343,0.044850,0.498542,-0.008681,0.042909,0.498542,-0.294399,-0.034661,-0.399574,-1.270816,0.642271,-12.742777
1790548919.5146,-0.010216,0.045093,0.498004,-0.009755,0.044438,0.498004,-0.016361,0.103751,-0.043830,-0.120976,1.720491,-8.628791
1790548919.5286,-0.012655,0.047816,0.510481,-0.011785,0.046803,0.510481,-0.119563,0.155960,0.330126,-0.312616,2.687171,-7.852567
1790548919.5426,-0.012411,0.047049,0.522131,-0.012223,0.046975,0.522131,0.050417,-0.158503,0.688298,0.377287,2.389731,-10.181238
1790548919.5566,-0.007226,0.040848,0.536117,-0.008725,0.042686,0.536117,0.406161,-0.515461,0.929912,-0.619240,2.575631,-13.441378
1790548919.5707,-0.002793,0.033346,0.567317,-0.004572,0.036148,0.567317,0.629563,-0.582239,1.234662,0.722239,4.323091,-10.414105
1790548919.5848,-0.000350,0.029186,0.602466,-0.001617,0.031275,0.602466,0.437729,-0.436542,1.416783,0.147319,4.694891,-9.443825
1790548919.5987,0.002961,0.022887,0.634723,0.001587,0.025403,0.634723,0.562785,-0.520318,1.516343,0.223975,3.914111,-9.366203
1790548919.6126,0.005220,0.017736,0.669731,0.004130,0.020036,0.669731,0.556715,-0.480251,1.557623,0.683911,4.211551,-7.425644
1790548919.6268,0.006205,0.014617,0.703959,0.005582,0.016243,0.703959,0.418302,-0.440184,1.640185,1.450471,4.769251,-7.891378
1790548919.6408,0.006598,0.009622,0.737729,0.006294,0.011608,0.737729,0.460797,-0.386762,1.768884,1.028863,3.356411,-8.589979
1790548919.6547,-0.002712,0.007470,0.768680,-0.000010,0.008712,0.768680,0.231324,0.332010,1.857517,1.105519,4.174371,-11.811308
1790548919.6688,-0.005282,0.007171,0.780164,-0.003701,0.007633,0.780164,-0.079496,-0.016449,1.710605,-0.887536,0.828171,-10.724595
1790548919.6835,-0.009353,0.003456,0.782628,-0.007657,0.004709,0.782628,0.098983,0.126820,1.438638,-0.964192,-0.250049,-11.462007
1790548919.6975,-0.009698,0.002685,0.769047,-0.009086,0.003292,0.769047,-0.058856,0.058828,1.020973,-2.382327,0.382011,-8.861658
1790548919.7116,-0.006838,0.001847,0.752055,-0.007512,0.002280,0.752055,-0.066140,-0.102653,0.424829,-2.382327,-0.101329,-10.142427
1790548919.7256,-0.003482,0.000995,0.742872,-0.004691,0.001380,0.742872,-0.030930,-0.220424,-0.132462,0.300631,0.084571,-10.685784
1790548919.7393,0.002817,-0.001903,0.726538,0.000565,-0.000918,0.726538,0.118409,-0.343053,-0.489420,-0.504256,-0.026969,-10.646972
1790548919.7530,0.003260,-0.003546,0.718469,0.002451,-0.002757,0.718469,0.105054,0.022404,-0.533129,0.530599,0.976891,-8.784035
1790548919.7671,0.008494,-0.008446,0.701981,0.006681,-0.006740,0.701981,0.288389,-0.213140,-0.629046,-0.925864,0.382011,-9.793126
1790548919.7812,0.011315,-0.014257,0.690138,0.009925,-0.012002,0.690138,0.368522,-0.136649,-0.636331,0.453943,0.493551,-8.512357
1790548919.7952,0.008834,-0.019535,0.678946,0.009161,-0.017275,0.678946,0.332098,0.225166,-0.558626,0.568927,0.456371,-8.900469
1790548919.8091,0.010849,-0.021860,0.670300,0.010343,-0.020485,0.670300,0.182759,0.012691,-0.593836,-1.232488,1.534591,-10.452916
1790548919.8230,0.024939,-0.013554,0.656225,0.020560,-0.015634,0.656225,-0.682925,-0.860277,-0.574410,-2.114032,0.084571,-15.343126
1790548919.8375,0.030059,-0.010966,0.630607,0.027209,-0.012366,0.630607,-0.332038,-0.108723,-1.112275,-2.420655,-1.514168,-15.149070
1790548919.8516,0.030065,-0.011559,0.622985,0.029208,-0.011801,0.622985,0.108696,0.200883,-1.163269,-0.657568,2.464091,-9.443825
1790548919.8658,0.024719,-0.002250,0.626846,0.026066,-0.005116,0.626846,-0.596720,0.319869,-0.982362,3.098574,2.129471,-8.706413
1790548919.8799,0.026652,0.007804,0.615391,0.026476,0.003928,0.615391,-0.654999,0.083111,-1.219119,-0.580912,2.649991,-10.064805
1790548919.8940,0.017091,0.016961,0.613008,0.019906,0.013051,0.613008,-0.538442,0.792170,-0.945937,0.952207,3.653851,-10.258860
1790548919.9080,0.006532,0.024106,0.602590,0.010544,0.020790,0.602590,-0.503232,0.828594,-0.758960,1.297159,1.720491,-9.793126
1790548919.9222,0.002600,0.029077,0.583338,0.004983,0.026591,0.583338,-0.402458,0.495919,-0.788099,-0.849208,0.642271,-8.745224
1790548919.9365,-0.004404,0.038293,0.574855,-0.001588,0.034782,0.574855,-0.627074,0.562697,-0.625404,1.067191,1.757671,-8.745224
1790548919.9506,-0.009901,0.043954,0.562731,-0.007407,0.041202,0.562731,-0.451023,0.447354,-0.489420,1.067191,0.902531,-9.948371
1790548919.9642,-0.009640,0.044778,0.552025,-0.008970,0.043705,0.552025,-0.159629,0.085539,-0.229594,-0.657568,0.382011,-10.996273
1790548919.9784,-0.009907,0.044198,0.550877,-0.009626,0.044050,0.550877,0.006708,0.033331,0.097011,-0.235960,1.534591,-10.297672
1790548919.9925,-0.011673,0.044797,0.559852,-0.011059,0.044573,0.559852,-0.032144,0.006620,0.483108,0.760567,2.426911,-9.987182
1790548920.0065,-0.008494,0.041533,0.570332,-0.009263,0.042445,0.570332,0.175474,-0.406188,0.829138,0.568927,1.794851,-11.850119
1790548920.0207,-0.003431,0.035523,0.590060,-0.005181,0.037600,0.590060,0.449870,-0.504534,0.962694,-0.465928,2.724351,-9.521448
1790548920.0348,0.001709,0.031382,0.625533,-0.000358,0.033247,0.625533,0.431658,-0.632019,1.248017,0.530599,3.951291,-8.201867
1790548920.0487,0.004555,0.025372,0.658405,0.003081,0.027734,0.658405,0.555500,-0.493606,1.363361,0.760567,4.323091,-9.870749
1790548920.0627,0.007896,0.018949,0.694058,0.006452,0.021585,0.694058,0.618636,-0.532459,1.507844,0.453943,4.397451,-8.706413
1790548920.0771,0.010509,0.014385,0.729485,0.009292,0.016545,0.729485,0.485080,-0.500891,1.487203,0.990535,4.285911,-8.318301
1790548920.0911,0.014396,0.009523,0.763420,0.012865,0.011629,0.763420,0.504506,-0.616235,1.541840,1.067191,3.542311,-7.386832
1790548920.1052,0.014439,0.004601,0.794175,0.013967,0.006710,0.794175,0.491151,-0.319984,1.612260,0.875551,3.691031,-8.551168
1790548920.1193,0.007248,0.005719,0.817818,0.009264,0.006016,0.817818,-0.049142,0.255519,1.745816,-0.235960,3.319231,-13.557812
1790548920.1335,0.006759,0.004781,0.831045,0.007511,0.005151,0.831045,0.026134,-0.137863,1.598904,-1.539112,1.943571,-13.945924
1790548920.1474,0.005624,0.002306,0.840235,0.006190,0.003160,0.840235,0.051631,-0.096582,1.317223,-0.235960,-0.101329,-10.452916
1790548920.1614,0.002013,0.001263,0.843198,0.003266,0.001832,0.843198,0.003066,0.188741,0.954195,-0.504256,0.382011,-5.329839
1790548920.1759,0.008321,0.000422,0.830414,0.006804,0.000845,0.830414,-0.052785,-0.361265,0.336197,-2.190688,-0.138509,-11.345574
1790548920.1896,0.010256,-0.002385,0.813382,0.009220,-0.001416,0.813382,0.056488,-0.038303,-0.196812,-1.117504,-0.956469,-11.578441
1790548920.2036,0.010450,-0.006025,0.795727,0.010081,-0.004642,0.795727,0.136621,0.102537,-0.539200,-0.427600,-0.621849,-10.763406
1790548920.2176,0.010888,-0.008803,0.782705,0.010646,-0.007555,0.782705,0.108696,0.049115,-0.467566,-0.044320,-0.064149,-9.133336
1790548920.2314,0.011414,-0.013463,0.771062,0.011183,-0.011690,0.771062,0.300531,0.063685,-0.584123,-0.159304,0.679451,-9.288581
1790548920.2453,0.018062,-0.018396,0.756433,0.015998,-0.016385,0.756433,0.282318,-0.264134,-0.562269,-1.615768,0.084571,-7.115154
1790548920.2592,0.010230,-0.022487,0.752139,0.011961,-0.020656,0.752139,0.264106,0.514132,-0.455424,1.603783,0.605091,-8.163056
1790548920.2732,0.014451,-0.022666,0.752424,0.013704,-0.022063,0.752424,0.108696,-0.120865,-0.477279,-2.305671,3.207691,-11.345574
1790548920.2872,0.027017,-0.011360,0.740463,0.023023,-0.014571,0.740463,-0.884472,-0.800784,-0.510060,-1.155832,0.456371,-17.904665
1790548920.3009,0.026431,-0.006223,0.715170,0.025409,-0.008727,0.715170,-0.493518,0.268875,-1.186338,-1.040848,-0.398769,-12.005364
1790548920.3148,0.024340,-0.004227,0.737293,0.024661,-0.005577,0.737293,0.088056,0.131677,-1.068566,1.795423,3.207691,-5.562707
1790548920.3288,0.014860,0.009911,0.760796,0.017800,0.005264,0.760796,-0.648929,0.635546,-0.970220,1.948735,4.360271,-4.204315
1790548920.3428,0.012673,0.018410,0.735618,0.014211,0.014467,0.735618,-0.595506,0.466780,-0.949580,-1.922392,1.534591,-8.279490
1790548920.3568,-0.002040,0.027538,0.729608,0.002835,0.023617,0.729608,-0.578508,1.133344,-0.738319,1.488799,3.207691,-11.539630
1790548920.3708,-0.008906,0.035095,0.715223,-0.005383,0.031651,0.715223,-0.512945,0.678041,-0.752889,-0.350944,2.241011,-11.423196
1790548920.3848,-0.014617,0.041683,0.700095,-0.011847,0.038673,0.700095,-0.443739,0.603978,-0.850020,-0.005993,1.757671,-9.327392
1790548920.3988,-0.020358,0.050401,0.690949,-0.017804,0.046882,0.690949,-0.579722,0.544485,-0.656972,0.453943,1.906391,-8.279490
1790548920.4125,-0.020241,0.053961,0.674267,-0.019510,0.051837,0.674267,-0.300470,0.174172,-0.546485,-0.580912,1.014071,-9.443825
1790548920.4264,-0.019701,0.055333,0.666768,-0.019644,0.054284,0.666768,-0.113492,0.046687,-0.327939,0.147319,1.497411,-9.016902
1790548920.4405,-0.017877,0.056373,0.667554,-0.018407,0.055746,0.667554,-0.089209,-0.151218,0.071514,0.415615,1.720491,-8.861658
1790548920.4545,-0.014435,0.051228,0.671388,-0.015626,0.052583,0.671388,0.277462,-0.369764,0.537744,0.530599,1.088431,-10.957462
1790548920.4685,-0.011083,0.046512,0.690739,-0.012446,0.048333,0.690739,0.372165,-0.458396,0.857064,0.990535,3.207691,-10.103616
1790548920.4825,-0.007014,0.040895,0.713882,-0.008644,0.043126,0.713882,0.396448,-0.601665,1.200666,1.412143,2.612811,-10.414105
1790548920.4965,-0.000844,0.032803,0.741353,-0.003184,0.035900,0.741353,0.648989,-0.726722,1.430139,0.262303,3.728211,-9.754315
1790548920.5104,0.004800,0.020958,0.774661,0.002405,0.025441,0.774661,0.939169,-0.760718,1.747030,0.645583,3.728211,-9.405014
1790548920.5244,0.006515,0.014996,0.807064,0.005282,0.018129,0.807064,0.618636,-0.457182,1.744601,0.645583,5.252591,-8.784035
1790548920.5383,0.012070,0.010715,0.837675,0.010034,0.012940,0.837675,0.443799,-0.717009,1.711820,0.492271,4.211551,-9.327392
1790548920.5522,0.015535,0.008446,0.863944,0.013885,0.009794,0.863944,0.431658,-0.593166,1.563694,1.258831,5.326951,-7.153965
1790548920.5662,0.013125,0.006794,0.889977,0.013353,0.007694,0.889977,0.315100,-0.137863,1.458064,1.143847,4.397451,-7.852567
1790548920.5804,0.010511,0.006201,0.908177,0.011364,0.006649,0.908177,0.157262,-0.041946,1.614688,-0.350944,4.397451,-10.918651
1790548920.5946,0.009858,0.004885,0.910224,0.010310,0.005414,0.910224,0.003066,-0.069871,1.441066,-1.884064,0.567911,-12.742777
1790548920.6086,0.008207,0.002563,0.911340,0.008838,0.003418,0.911340,0.055274,0.027261,1.135102,-1.194160,0.047391,-11.112707
1790548920.6225,0.009064,0.003095,0.910039,0.008996,0.003192,0.910039,-0.168128,-0.114794,0.688298,-0.619240,-0.361589,-9.909560
1790548920.6365,0.012088,0.001632,0.892886,0.011161,0.002100,0.892886,-0.018789,-0.106295,0.248778,-2.190688,-0.361589,-10.258860
1790548920.6502,0.017736,-0.000252,0.873401,0.015763,0.000453,0.873401,0.021278,-0.243493,-0.249020,-1.654096,-0.250049,-8.512357
1790548920.6639,0.018338,-0.004261,0.868158,0.017566,-0.002847,0.868158,0.215541,-0.022519,-0.463923,0.837223,0.196111,-10.491728
1790548920.6779,0.017653,-0.010260,0.863979,0.017626,-0.008036,0.863979,0.385520,0.068541,-0.503990,0.837223,0.642271,-9.133336
1790548920.6924,0.013006,-0.017227,0.860221,0.014392,-0.014470,0.860221,0.472939,0.341723,-0.551341,0.837223,0.865351,-7.813756
1790548920.7063,0.012238,-0.024133,0.847673,0.012884,-0.021234,0.847673,0.474153,0.175386,-0.539200,-0.619240,0.865351,-9.754315
1790548920.7203,0.008011,-0.028181,0.838013,0.009473,-0.026097,0.838013,0.278676,0.387861,-0.467566,-0.197632,0.976891,-10.064805
1790548920.7343,0.017032,-0.024412,0.832856,0.014765,-0.024918,0.832856,-0.254332,-0.574954,-0.317012,-0.695896,2.129471,-14.062357
1790548920.7483,0.028015,-0.015396,0.825247,0.024040,-0.018252,0.825247,-0.765486,-0.752219,-0.443283,0.415615,-0.807749,-12.548721
1790548920.7622,0.020559,-0.012239,0.815215,0.021604,-0.014043,0.815215,-0.335680,0.574839,-0.853663,1.258831,-0.324409,-8.861658
1790548920.7763,0.018507,-0.015159,0.801647,0.019436,-0.014824,0.801647,0.233753,0.304085,-0.887659,-0.389272,1.385871,-7.697322
1790548920.7903,0.015172,-0.010509,0.790791,0.016451,-0.011804,0.790791,-0.289543,0.353865,-0.971434,0.415615,1.980751,-9.754315
1790548920.8042,0.018866,-0.003055,0.781867,0.018141,-0.005679,0.781867,-0.403672,-0.065014,-1.032142,-0.810880,3.282051,-8.822846
1790548920.8183,0.008950,0.003642,0.779412,0.011707,0.000845,0.779412,-0.366033,0.776386,-0.958079,1.297159,2.873071,-8.628791
1790548920.8322,-0.001437,0.007947,0.769406,0.002506,0.005816,0.769406,-0.287114,0.845592,-0.784457,0.683911,1.497411,-8.861658
1790548920.8462,-0.004846,0.013604,0.753432,-0.002640,0.011267,0.753432,-0.415813,0.420643,-0.778386,-0.350944,1.051251,-8.822846
1790548920.8601,-0.010107,0.020037,0.740722,-0.007867,0.017406,0.740722,-0.502017,0.494705,-0.609620,0.223975,0.716631,-9.560259
1790548920.8737,-0.012689,0.023820,0.729133,-0.011242,0.021896,0.729133,-0.342965,0.300442,-0.381361,-0.274288,0.567911,-10.918651
1790548920.8874,-0.011933,0.024947,0.720042,-0.011726,0.024032,0.720042,-0.135346,0.040616,-0.286658,-0.350944,0.828171,-10.220049
1790548920.9010,-0.012211,0.023682,0.717842,-0.012065,0.023787,0.717842,0.010351,0.002978,0.088512,0.377287,0.493551,-9.637881
1790548920.9150,-0.014597,0.022650,0.724638,-0.013838,0.022991,0.724638,0.043132,0.063685,0.453968,0.837223,1.497411,-9.909560
1790548920.9289,-0.012948,0.020636,0.735562,-0.013215,0.021342,0.735562,0.120837,-0.248350,0.739292,0.338959,1.906391,-10.414105
1790548920.9436,-0.008368,0.014822,0.748590,-0.009822,0.016778,0.748590,0.361238,-0.449897,0.929912,-0.197632,1.906391,-11.617252
1790548920.9576,-0.005282,0.008217,0.781267,-0.006644,0.010785,0.781267,0.582211,-0.511819,1.227377,1.680439,4.174371,-9.870749
1790548920.9716,-0.004619,0.002966,0.816881,-0.005227,0.005312,0.816881,0.534860,-0.341839,1.417997,1.067191,3.988471,-7.503266
1790548920.9855,0.001060,-0.002050,0.843730,-0.000826,0.000158,0.843730,0.486294,-0.633233,1.507844,-0.044320,3.802571,-8.551168
1790548920.9995,0.007496,-0.006586,0.875924,0.005000,-0.004563,0.875924,0.508149,-0.734007,1.538197,0.492271,3.505131,-6.416553
1790548921.0135,0.006461,-0.009635,0.908080,0.006023,-0.008114,0.908080,0.391591,-0.226495,1.560052,0.990535,3.616671,-7.037532
1790548921.0275,0.000481,-0.006992,0.934866,0.002144,-0.007329,0.934866,-0.102565,0.159602,1.691179,0.798895,4.471811,-12.665154
1790548921.0415,0.001532,-0.006474,0.941224,0.001716,-0.006730,0.941224,-0.102565,-0.179144,1.604975,-2.152360,1.237151,-12.121798
1790548921.0554,0.000476,-0.006020,0.953694,0.000848,-0.006233,0.953694,-0.142631,-0.083226,1.407070,-0.504256,0.196111,-10.569350
1790548921.0694,-0.002587,-0.007494,0.954173,-0.001557,-0.007116,0.954173,-0.004219,0.180242,1.044041,-0.772552,0.047391,-5.329839
1790548921.0834,-0.002728,-0.009304,0.952635,-0.002376,-0.008648,0.952635,0.020064,0.001764,0.583882,-1.040848,-0.101329,-11.578441
1790548921.0973,-0.000040,-0.010408,0.941547,-0.000741,-0.009880,0.941547,-0.035787,-0.095368,-0.009834,-1.309144,-0.435949,-10.336483
1790548921.1109,0.003774,-0.012941,0.930771,0.002420,-0.012023,0.930771,0.106268,-0.184000,-0.370434,-0.580912,0.047391,-11.966553
1790548921.1246,-0.000982,-0.015786,0.926452,0.000038,-0.014657,0.926452,0.187615,0.368434,-0.486992,1.028863,0.828171,-9.870749
1790548921.1387,0.003584,-0.018967,0.912708,0.002520,-0.017674,0.912708,0.197328,-0.168216,-0.501561,-1.117504,0.679451,-9.055714
1790548921.1526,0.007021,-0.023048,0.910599,0.005671,-0.021436,0.910599,0.358809,-0.200998,-0.501561,0.300631,1.646131,-7.309210
1790548921.1664,0.003292,-0.025593,0.909982,0.004005,-0.024346,0.909982,0.198543,0.260376,-0.394717,0.952207,1.125611,-8.163056
1790548921.1806,0.000974,-0.026286,0.903056,0.001883,-0.025704,0.903056,0.033419,0.227594,-0.256305,-0.235960,0.865351,-9.288581
1790548921.1950,0.014743,-0.019459,0.896206,0.010885,-0.021333,0.896206,-0.540870,-0.883346,-0.155531,-1.270816,0.307651,-14.566903
1790548921.2095,0.023480,-0.007958,0.888602,0.019701,-0.011970,0.888602,-0.899042,-0.561598,-0.444497,0.377287,-0.510309,-14.722147
1790548921.2248,0.024656,-0.006216,0.873387,0.023169,-0.007943,0.873387,-0.107421,0.073398,-1.021214,-0.044320,1.497411,-9.172147
1790548921.2399,0.016939,0.003482,0.908511,0.018808,0.000055,0.908511,-0.358749,0.438855,-0.969006,2.255358,3.914111,-4.670049
1790548921.2541,0.021206,0.011937,0.883059,0.020486,0.008372,0.883059,-0.533585,0.021190,-1.123202,-1.807408,2.055111,-7.542077
1790548921.2695,0.009769,0.020785,0.876405,0.012984,0.017061,0.876405,-0.497161,0.835879,-0.996931,1.603783,2.947431,-9.521448
1790548921.2838,0.002474,0.025617,0.862769,0.005627,0.023050,0.862769,-0.336894,0.659829,-0.782028,0.147319,1.720491,-11.073895
1790548921.2976,-0.002475,0.030511,0.854290,-0.000045,0.028272,0.854290,-0.338108,0.463138,-0.801455,0.875551,1.571771,-8.706413
1790548921.3116,-0.009655,0.035651,0.844845,-0.006772,0.033437,0.844845,-0.384246,0.610049,-0.636331,0.683911,1.051251,-8.395923
1790548921.3255,-0.011473,0.039616,0.832184,-0.010062,0.037763,0.832184,-0.333252,0.268875,-0.456638,-0.350944,0.865351,-9.521448
1790548921.3392,-0.010448,0.040386,0.820419,-0.010332,0.039599,0.820419,-0.085567,0.070970,-0.360721,-0.887536,1.385871,-10.646972
1790548921.3529,-0.010785,0.041408,0.819542,-0.010649,0.040865,0.819542,-0.098922,0.021190,-0.055971,0.530599,1.423051,-9.249770
1790548921.3669,-0.009813,0.041562,0.824493,-0.010064,0.041353,0.824493,-0.017575,-0.134220,0.309485,0.377287,2.092291,-10.258860
1790548921.3808,-0.003633,0.036243,0.834464,-0.005562,0.037776,0.834464,0.364880,-0.572526,0.625162,0.262303,2.315371,-11.811308
1790548921.3947,0.000570,0.029925,0.853615,-0.001270,0.032280,0.853615,0.545787,-0.503320,0.849779,0.722239,3.542311,-9.288581
1790548921.4086,0.002836,0.023709,0.882523,0.001604,0.026280,0.882523,0.561571,-0.488750,1.203094,1.757095,3.876931,-8.939280
1790548921.4225,0.008075,0.013159,0.907122,0.006134,0.017095,0.907122,0.818969,-0.658730,1.407070,0.683911,3.319231,-10.802217
1790548921.4367,0.014595,0.004711,0.932292,0.012057,0.008426,0.932292,0.753406,-0.726722,1.555195,0.185647,3.691031,-7.464455
1790548921.4511,0.017581,-0.002196,0.959067,0.015924,0.000991,0.959067,0.658702,-0.491178,1.612260,0.492271,4.100011,-7.969000
1790548921.4650,0.016815,-0.010206,0.990119,0.016548,-0.006847,0.990119,0.669630,-0.267776,1.745816,1.105519,3.282051,-10.142427
1790548921.4791,0.009250,-0.008421,1.017454,0.011439,-0.007949,1.017454,-0.046714,0.250663,1.594048,1.220503,3.319231,-10.685784
1790548921.4931,0.006901,-0.005216,1.024028,0.008263,-0.006036,1.024028,-0.204553,0.057614,1.624401,-1.845736,2.501271,-10.685784
1790548921.5072,0.002750,-0.003109,1.032237,0.004404,-0.003987,1.032237,-0.206981,0.180242,1.373074,-1.232488,1.051251,-11.035084
1790548921.5212,-0.000478,-0.006640,1.041202,0.000986,-0.005844,1.041202,0.083199,0.103751,1.178811,-0.542584,-1.068009,-11.617252
1790548921.5352,-0.004255,-0.006943,1.045971,-0.002683,-0.006613,1.045971,-0.098922,0.202097,0.807284,-0.389272,-0.175689,-8.706413
1790548921.5492,-0.002002,-0.008973,1.030720,-0.002206,-0.008265,1.030720,0.023706,-0.012806,0.368978,-2.918919,-0.398769,-9.831937
1790548921.5631,-0.000387,-0.011421,1.020694,-0.000933,-0.010474,1.020694,0.079557,-0.018877,-0.138533,-1.040848,-0.212869,-10.841028
1790548921.5768,0.001800,-0.014671,1.011878,0.000980,-0.013412,1.011878,0.148763,-0.083226,-0.394717,-0.120976,-0.175689,-10.957462
1790548921.5907,-0.002131,-0.018010,1.009493,-0.001197,-0.016631,1.009493,0.232539,0.287087,-0.443283,1.143847,1.014071,-9.754315
1790548921.6047,-0.001349,-0.021742,0.998713,-0.001303,-0.020209,0.998713,0.242252,0.057614,-0.429927,-0.542584,0.642271,-8.473546
1790548921.6187,-0.003202,-0.026892,0.990445,-0.002633,-0.024887,0.990445,0.364880,0.214238,-0.393503,-0.159304,0.790991,-7.386832
1790548921.6327,-0.006915,-0.032285,0.985784,-0.005630,-0.030066,0.985784,0.368522,0.296800,-0.258733,0.300631,0.679451,-8.589979
1790548921.6467,0.003551,-0.032342,0.985058,0.000797,-0.031659,0.985058,0.024920,-0.726722,-0.128820,-0.044320,2.017931,-13.053266
1790548921.6606,0.021145,-0.019185,0.985971,0.015040,-0.022927,0.985971,-0.942751,-1.271872,-0.247806,0.607255,1.794851,-13.092077
1790548921.6746,0.018956,-0.002181,0.986492,0.017782,-0.008405,0.986492,-1.220790,0.131677,-0.306085,0.683911,0.828171,-5.950818
1790548921.6887,0.010736,-0.004078,0.976687,0.012850,-0.005376,0.976687,-0.170557,0.702324,-0.843950,0.262303,-3.187268,-7.580888
1790548921.7030,0.015459,-0.002551,0.981955,0.014676,-0.003399,0.981955,0.094126,-0.338196,-1.050354,2.408670,4.211551,-7.930189
1790548921.7170,0.009028,0.011885,0.990597,0.010722,0.007300,0.990597,-0.656213,0.435212,-0.596265,2.025391,7.669290,-6.959909
1790548921.7310,0.001974,0.012849,0.972414,0.004598,0.011185,0.972414,-0.084353,0.705966,-0.873089,-0.619240,1.199971,-10.569350
1790548921.7451,0.000052,0.012765,0.955920,0.001416,0.012291,0.955920,0.038276,0.328368,-1.176624,0.300631,1.608951,-9.016902
1790548921.7589,-0.006923,0.020073,0.957769,-0.004421,0.017739,0.957769,-0.427955,0.461923,-0.837879,2.255358,2.017931,-6.338930
1790548921.7729,-0.015213,0.026798,0.944727,-0.011975,0.024080,0.944727,-0.476520,0.744818,-0.953222,0.683911,1.088431,-8.395923
1790548921.7870,-0.022726,0.032361,0.926614,-0.019501,0.029877,0.926614,-0.403672,0.753317,-0.870661,-0.274288,1.014071,-9.560259
1790548921.8006,-0.019442,0.037671,0.912060,-0.019459,0.035333,0.912060,-0.420670,-0.050445,-0.597479,-0.810880,1.014071,-10.142427
1790548921.8142,-0.018685,0.035323,0.905971,-0.018918,0.035326,0.905971,0.056488,0.000549,-0.194384,0.147319,-0.138509,-12.354665
1790548921.8282,-0.020078,0.037172,0.908129,-0.019730,0.036618,0.908129,-0.052785,0.084325,0.212354,0.032335,2.798711,-8.046623
1790548921.8420,-0.021911,0.038302,0.917950,-0.021256,0.037797,0.917950,-0.073425,-0.001879,0.529245,0.990535,2.426911,-9.870749
1790548921.8559,-0.017588,0.033421,0.926412,-0.018689,0.034734,0.926412,0.304173,-0.419544,0.823068,-0.542584,2.055111,-11.888930
1790548921.8699,-0.012856,0.025392,0.943776,-0.014606,0.028195,0.943776,0.639276,-0.542172,1.070753,0.338959,3.319231,-8.861658
1790548921.8838,-0.010341,0.018847,0.970001,-0.011621,0.021651,0.970001,0.611351,-0.499677,1.360932,1.220503,3.839751,-7.231588
1790548921.8977,-0.005716,0.011177,0.994416,-0.007487,0.014319,0.994416,0.655060,-0.627162,1.528484,0.645583,3.430771,-7.774944
1790548921.9116,-0.001241,0.004584,1.020787,-0.003115,0.007505,1.020787,0.618636,-0.642946,1.626830,0.952207,4.025651,-7.891378
1790548921.9255,0.003082,-0.001013,1.045965,0.001223,0.001542,1.045965,0.555500,-0.619877,1.733674,0.722239,4.174371,-8.163056
1790548921.9396,-0.000435,-0.002206,1.076199,0.000062,-0.001082,1.076199,0.135407,-0.083226,1.759171,1.565455,3.653851,-11.888930
1790548921.9539,-0.002900,-0.001551,1.092463,-0.002012,-0.001410,1.092463,-0.057641,-0.024948,1.828377,-1.002520,2.278191,-10.957462
1790548921.9682,-0.009837,-0.003141,1.115589,-0.007489,-0.002622,1.115589,0.038276,0.239735,1.664468,0.262303,0.976891,-9.288581
1790548921.9823,-0.014898,-0.006385,1.126215,-0.012675,-0.005256,1.126215,0.085627,0.238521,1.364575,-0.849208,-0.175689,-9.793126
1790548921.9964,-0.016472,-0.006150,1.131291,-0.015333,-0.005882,1.131291,-0.131704,0.057614,0.980906,-0.964192,0.158931,-9.831937
1790548922.0104,-0.016402,-0.006330,1.127775,-0.016081,-0.006196,1.127775,-0.102565,0.036974,0.436970,-1.232488,-0.175689,-9.831937
1790548922.0241,-0.013011,-0.008498,1.123592,-0.013932,-0.007807,1.123592,0.068629,-0.193713,0.052087,-0.734224,0.047391,-11.811308
1790548922.0377,-0.013979,-0.011724,1.124558,-0.013965,-0.010549,1.124558,0.183973,0.057614,-0.120321,0.990535,0.567911,-11.850119
1790548922.0513,-0.019660,-0.014743,1.120377,-0.017951,-0.013485,1.120377,0.209470,0.454639,-0.280588,0.530599,1.014071,-10.375294
1790548922.0652,-0.017615,-0.017736,1.112110,-0.017716,-0.016460,1.112110,0.241038,-0.052873,-0.317012,-0.350944,1.385871,-8.706413
1790548922.0791,-0.016530,-0.020340,1.110138,-0.016885,-0.019176,1.110138,0.196114,-0.066228,-0.374077,0.798895,1.014071,-8.163056
1790548922.0931,-0.016675,-0.024537,1.108624,-0.016738,-0.022929,1.108624,0.311458,0.013905,-0.376505,0.952207,1.051251,-8.551168
1790548922.1070,-0.008266,-0.023586,1.106460,-0.010807,-0.023388,1.106460,-0.136561,-0.579811,-0.346151,0.837223,0.010211,-14.411658
1790548922.1209,0.001240,-0.014378,1.105526,-0.002374,-0.017081,1.105526,-0.729062,-0.679370,-0.417786,1.335487,0.233291,-14.605714
1790548922.1350,0.010810,-0.000709,1.102300,0.006855,-0.005621,1.102300,-1.030169,-0.651445,-0.598693,0.990535,0.493551,-10.879840
1790548922.1489,0.007964,0.002836,1.093759,0.007631,0.000299,1.093759,-0.408528,0.296800,-0.805097,0.645583,-1.105189,-9.210958
1790548922.1628,0.005465,0.002663,1.070391,0.006115,0.001954,1.070391,0.028563,0.470422,-1.281041,-1.117504,1.348691,-9.133336
1790548922.1768,0.007374,0.008369,1.053041,0.006996,0.006444,1.053041,-0.165700,0.084325,-1.074637,-0.772552,5.773111,-9.599070
1790548922.1908,0.003217,0.005056,1.035573,0.004351,0.005473,1.035573,0.179116,0.489849,-1.160841,0.185647,0.307651,-10.841028
1790548922.2052,0.004266,0.001191,1.009522,0.004292,0.002476,1.009522,0.261678,0.243378,-1.311394,-1.577440,0.939711,-9.599070
1790548922.2192,0.005095,0.003294,1.002574,0.004854,0.003049,1.002574,-0.063712,0.009048,-0.915584,1.067191,2.166651,-7.697322
1790548922.2332,0.005786,0.003705,0.986210,0.005507,0.003508,0.986210,-0.052785,0.140176,-0.975077,-0.350944,0.790991,-8.706413
1790548922.2470,0.007100,0.001488,0.971855,0.006622,0.002094,0.971855,0.137835,0.072184,-0.884016,-0.312616,0.976891,-10.220049
1790548922.2606,0.010378,-0.001047,0.965631,0.009251,-0.000105,0.965631,0.165761,-0.176715,-0.520988,0.338959,1.088431,-9.948371
1790548922.2743,0.013053,-0.006054,0.966312,0.011912,-0.004269,0.966312,0.288389,-0.225281,-0.076612,0.760567,0.196111,-10.996273
1790548922.2881,0.014365,-0.009708,0.971940,0.013629,-0.008076,0.971940,0.268963,-0.159717,0.322841,0.377287,1.720491,-11.035084
1790548922.3020,0.015939,-0.012783,0.978648,0.015246,-0.011371,0.978648,0.236181,-0.168216,0.514675,-0.274288,1.943571,-11.112707
1790548922.3159,0.015199,-0.016601,0.989042,0.015213,-0.015032,0.989042,0.290817,-0.048016,0.729579,0.070663,1.683311,-9.715504
1790548922.3299,0.014671,-0.018956,1.002613,0.014834,-0.017779,1.002613,0.233753,-0.072299,1.001546,-0.274288,2.055111,-7.891378
1790548922.3439,0.014438,-0.027408,1.022640,0.014557,-0.024519,1.022640,0.662345,-0.152433,1.425282,-0.159304,2.017931,-8.163056
1790548922.3579,0.007601,-0.028749,1.038950,0.009688,-0.027480,1.038950,0.157262,0.383004,1.456850,-1.385800,3.356411,-12.859210
1790548922.3719,0.003791,-0.020805,1.057445,0.005560,-0.022807,1.057445,-0.519015,0.148675,1.620759,-1.117504,2.575631,-9.599070
1790548922.3859,0.004258,-0.017216,1.074017,0.004649,-0.018894,1.074017,-0.279829,-0.124507,1.822306,-1.845736,1.237151,-7.774944
1790548922.3998,-0.007929,-0.018543,1.102895,-0.004156,-0.018648,1.102895,0.030991,0.567554,1.845375,1.182175,0.790991,-8.357112
1790548922.4136,-0.013687,-0.019096,1.125771,-0.010827,-0.018962,1.125771,0.009136,0.205739,1.781026,-0.044320,1.423051,-7.891378
1790548922.4275,-0.017181,-0.022497,1.142424,-0.015275,-0.021437,1.142424,0.118409,0.112250,1.613474,-0.887536,0.270471,-11.694875
1790548922.4416,-0.017367,-0.020583,1.152903,-0.016739,-0.020839,1.152903,-0.215480,-0.037089,1.206736,-1.462456,0.865351,-10.569350
1790548922.4561,-0.013915,-0.020375,1.154933,-0.014763,-0.020514,1.154933,-0.143845,-0.187643,0.676156,-2.458983,-0.510309,-11.888930
1790548922.4702,-0.023736,-0.023498,1.160074,-0.021044,-0.022603,1.160074,0.125694,0.608835,0.389619,1.067191,-0.101329,-9.210958
1790548922.4838,-0.025696,-0.031652,1.164224,-0.024300,-0.028937,1.164224,0.525147,0.073398,0.259706,1.143847,0.233291,-10.452916
1790548922.4975,-0.031959,-0.036357,1.170569,-0.029661,-0.034131,1.170569,0.407375,0.408501,0.229352,0.875551,2.129471,-9.055714
1790548922.5110,-0.034893,-0.038748,1.169355,-0.033323,-0.037363,1.169355,0.162118,0.254305,0.112794,-0.197632,0.976891,-9.754315
1790548922.5250,-0.037618,-0.040824,1.170539,-0.036330,-0.039786,1.170539,0.135407,0.198455,0.191714,0.223975,1.051251,-9.831937
1790548922.5389,-0.036138,-0.041134,1.172889,-0.036196,-0.040729,1.172889,-0.003005,-0.128150,0.177144,0.645583,0.939711,-10.530539
1790548922.5527,-0.020640,-0.036247,1.176573,-0.025307,-0.037592,1.176573,-0.425526,-1.175954,0.073942,1.450471,0.196111,-13.480189
1790548922.5667,-0.006836,-0.022621,1.181555,-0.012377,-0.027112,1.181555,-0.960963,-1.077609,-0.261161,2.255358,1.571771,-10.491728
1790548922.5807,-0.003565,-0.006482,1.197563,-0.006209,-0.012671,1.197563,-1.224432,-0.465681,-0.188313,3.520182,0.010211,-7.270399
1790548922.5946,0.016110,0.015435,1.201986,0.009414,0.007003,1.201986,-1.518254,-1.494060,-0.275731,1.220503,1.832031,-6.727042
1790548922.6086,-0.002282,0.010590,1.196621,0.001227,0.009514,1.196621,0.177902,1.326393,-0.619333,4.401726,-3.112908,-21.281238
1790548922.6226,0.011224,0.005281,1.183661,0.008225,0.006551,1.183661,0.464440,-0.735221,-0.760174,-3.072231,4.508991,-15.653616
1790548922.6366,0.002797,0.006120,1.172851,0.004425,0.006249,1.172851,-0.024860,0.686540,-0.816024,1.220503,2.203831,-11.151518
1790548922.6504,-0.002052,-0.002038,1.153232,-0.000109,0.000448,1.153232,0.567642,0.613691,-1.154770,-0.887536,0.605091,-8.745224
1790548922.6644,-0.004152,-0.006525,1.134284,-0.002939,-0.004433,1.134284,0.254393,0.398788,-1.141414,-0.849208,-0.138509,-8.822846
1790548922.6783,-0.003766,-0.006181,1.121015,-0.003518,-0.005656,1.121015,-0.028502,0.098895,-0.964150,0.492271,0.939711,-9.482637
1790548922.6923,-0.008983,-0.008680,1.108717,-0.007343,-0.007773,1.108717,0.181545,0.450996,-0.944723,1.412143,1.014071,-10.025993
1790548922.7064,-0.006457,-0.011458,1.094778,-0.006723,-0.010352,1.094778,0.177902,0.000549,-0.909513,-0.580912,0.716631,-10.918651
1790548922.7202,-0.000871,-0.010164,1.086897,-0.002627,-0.010220,1.086897,0.009136,-0.299344,-0.653329,-0.044320,2.203831,-7.503266
1790548922.7338,0.002906,-0.010824,1.080436,0.001246,-0.010643,1.080436,0.086842,-0.131792,-0.361935,-1.232488,1.757671,-8.978091
1790548922.7477,0.002556,-0.016175,1.080554,0.002163,-0.014515,1.080554,0.369737,0.069755,0.143148,-0.887536,1.199971,-10.414105
1790548922.7617,0.002734,-0.020836,1.085133,0.002563,-0.018939,1.085133,0.357595,-0.011592,0.377477,-0.849208,2.352551,-12.626343
1790548922.7757,0.003082,-0.023510,1.093552,0.002926,-0.022139,1.093552,0.220397,-0.074727,0.585096,-0.312616,2.389731,-11.927742
1790548922.7896,0.001919,-0.025890,1.105353,0.002221,-0.024765,1.105353,0.210684,0.013905,0.838851,-0.427600,2.241011,-9.987182
1790548922.8036,-0.001311,-0.028849,1.119692,-0.000252,-0.027624,1.119692,0.241038,0.151103,1.082894,-0.619240,1.980751,-9.210958
1790548922.8174,-0.001901,-0.030715,1.133569,-0.001406,-0.029787,1.133569,0.072272,0.001764,1.337864,-2.267343,0.939711,-12.587532
1790548922.8313,-0.002824,-0.029630,1.153281,-0.002399,-0.029677,1.153281,-0.124419,-0.039517,1.631686,-1.654096,1.460231,-12.548721
1790548922.8453,-0.007348,-0.028194,1.174907,-0.005863,-0.028639,1.174907,-0.132918,0.217881,1.757957,-1.155832,1.199971,-7.580888
1790548922.8591,-0.014571,-0.026990,1.198856,-0.011958,-0.027485,1.198856,-0.194839,0.284659,1.895155,0.300631,0.382011,-7.580888
1790548922.8731,-0.021447,-0.029444,1.221787,-0.018600,-0.028856,1.221787,0.078343,0.289515,1.805308,0.108991,0.790991,-9.754315
1790548922.8871,-0.021966,-0.034634,1.240237,-0.020957,-0.032901,1.240237,0.268963,0.001764,1.613474,-1.884064,0.605091,-8.279490
1790548922.9010,-0.024915,-0.037747,1.255063,-0.023728,-0.036293,1.255063,0.185187,0.131677,1.149672,-0.350944,1.274331,-9.327392
1790548922.9149,-0.026102,-0.037283,1.257855,-0.025390,-0.036986,1.257855,-0.132918,0.159602,0.610593,-2.420655,0.010211,-12.548721
1790548922.9289,-0.032243,-0.042696,1.258546,-0.030187,-0.040983,1.258546,0.272605,0.395146,0.401760,0.722239,-0.584669,-12.354665
1790548922.9431,-0.045780,-0.051746,1.263109,-0.041102,-0.048517,1.263109,0.589496,0.835879,0.313128,2.332014,0.419191,-10.452916
1790548922.9573,-0.052668,-0.060029,1.267730,-0.049198,-0.056576,1.267730,0.640490,0.488635,0.131007,0.415615,1.646131,-8.240679
1790548922.9710,-0.057179,-0.065298,1.271101,-0.054785,-0.062681,1.271101,0.465654,0.364792,-0.002549,0.185647,1.832031,-8.473546
1790548922.9851,-0.053538,-0.065582,1.270672,-0.053912,-0.064711,1.270672,0.078343,-0.168216,-0.132462,-0.619240,1.794851,-10.569350
1790548922.9991,-0.038714,-0.060305,1.263848,-0.043274,-0.061627,1.263848,-0.438882,-1.027829,-0.304870,0.760567,-0.473129,-15.032637
1790548923.0129,-0.035871,-0.050470,1.268574,-0.038092,-0.053817,1.268574,-0.767915,-0.409831,-0.343723,6.049829,-0.435949,-12.548721
1790548923.0268,-0.032651,-0.040314,1.271033,-0.034283,-0.044365,1.271033,-0.895399,-0.459610,-0.457852,4.210086,-1.848788,-7.115154
1790548923.0407,-0.020911,-0.023763,1.267595,-0.024922,-0.029943,1.267595,-1.197721,-0.885774,-0.406858,1.105519,0.493551,-5.795574
1790548923.0546,-0.003806,-0.003067,1.266927,-0.010141,-0.011130,1.266927,-1.548608,-1.375074,-0.426285,1.680439,0.158931,-4.708860
1790548923.0684,0.020618,0.024197,1.273336,0.011390,0.013599,1.273336,-1.824218,-2.034353,-0.574410,2.217030,1.571771,-3.078790
1790548923.0824,0.016335,0.012613,1.256300,0.014851,0.012909,1.256300,0.865107,0.702324,-0.915584,-6.790045,3.653851,-16.546273
1790548923.0963,0.031218,-0.003375,1.244917,0.026308,0.001510,1.244917,1.309483,-0.838423,-0.978719,-2.612295,7.185950,-15.692427
1790548923.1103,0.022409,-0.009161,1.228839,0.023579,-0.005960,1.228839,0.517862,0.724178,-1.393956,2.676966,4.397451,-12.820399
1790548923.1240,0.017627,-0.008785,1.203638,0.019413,-0.007937,1.203638,-0.024860,0.671970,-1.543295,-0.734224,0.679451,-4.786483
1790548923.1380,0.020351,-0.009434,1.188683,0.020069,-0.008985,1.188683,-0.053999,-0.083226,-1.149913,0.645583,-0.212869,-7.231588
1790548923.1519,0.019730,-0.014538,1.175018,0.019832,-0.012872,1.175018,0.363666,0.141390,-1.060067,0.645583,0.939711,-7.037532
1790548923.1659,0.030094,-0.016941,1.157233,0.027016,-0.015721,1.157233,0.319957,-0.441398,-1.171768,-2.420655,3.579491,-8.628791
1790548923.1795,0.033716,-0.021064,1.143474,0.031706,-0.019461,1.143474,0.381878,-0.079584,-1.007859,-1.002520,2.835891,-9.987182
1790548923.1932,0.040663,-0.029155,1.132153,0.037976,-0.026247,1.132153,0.616207,-0.362479,-0.808739,-0.887536,1.720491,-9.405014
1790548923.2075,0.045335,-0.037536,1.129706,0.043127,-0.034150,1.129706,0.532432,-0.289631,-0.055971,-0.887536,0.344831,-11.811308
1790548923.2214,0.046122,-0.043206,1.137407,0.045223,-0.040489,1.137407,0.553072,-0.057729,0.413902,-1.040848,3.467951,-9.870749
1790548923.2355,0.039536,-0.041019,1.146321,0.041242,-0.040860,1.146321,-0.096494,0.441283,0.772074,-1.730752,2.984611,-15.731238
1790548923.2494,0.036277,-0.037181,1.152956,0.037766,-0.038285,1.152956,-0.267688,0.308941,1.085322,-4.260399,1.311511,-12.044175
1790548923.2634,0.023943,-0.029681,1.165056,0.028090,-0.032262,1.165056,-0.471664,0.880802,1.166670,-1.692424,1.683311,-7.425644
1790548923.2772,0.012102,-0.023701,1.175599,0.016898,-0.026270,1.175599,-0.504446,0.777600,1.273514,-0.504256,0.121751,-4.708860
1790548923.2916,0.008395,-0.017036,1.190832,0.010946,-0.019806,1.190832,-0.459522,0.214238,1.343934,-0.964192,0.753811,-4.359560
1790548923.3074,0.012377,-0.026472,1.212525,0.011948,-0.024472,1.212525,0.542145,-0.424400,1.569765,-0.657568,0.679451,-11.229140
1790548923.3224,0.003241,-0.030172,1.240828,0.005853,-0.028462,1.240828,0.281104,0.412144,1.767670,-0.197632,2.984611,-13.053266
1790548923.3365,-0.008449,-0.030139,1.269472,-0.004158,-0.029636,1.269472,-0.077068,0.525059,1.953434,1.488799,0.790991,-10.879840
1790548923.3519,-0.009698,-0.039746,1.295644,-0.008036,-0.036713,1.295644,0.457155,-0.140291,2.022640,-0.005993,-0.584669,-8.085434
1790548923.3660,-0.009943,-0.049844,1.309027,-0.009371,-0.045905,1.309027,0.604066,0.101323,1.422854,-3.072231,-0.064149,-7.930189
1790548923.3801,-0.022429,-0.053543,1.322641,-0.018512,-0.051252,1.322641,0.244680,0.812810,1.039185,-0.044320,1.125611,-8.473546
1790548923.3946,-0.031962,-0.062338,1.333721,-0.027927,-0.059012,1.333721,0.522719,0.542057,0.872847,1.373815,0.196111,-12.005364
1790548923.4084,-0.040122,-0.069631,1.346585,-0.036463,-0.066446,1.346585,0.517862,0.484992,0.724722,1.603783,1.497411,-11.733686
1790548923.4222,-0.043195,-0.069715,1.360501,-0.041176,-0.068734,1.360501,0.085627,0.135319,0.393261,1.718767,2.798711,-11.073895
1790548923.4362,-0.038638,-0.064687,1.368907,-0.039399,-0.065901,1.368907,-0.328395,-0.425614,0.094582,2.102047,1.460231,-9.831937
1790548923.4504,-0.034880,-0.056600,1.376404,-0.036236,-0.059390,1.376404,-0.596720,-0.414687,-0.026832,3.865134,0.567911,-12.199420
1790548923.4647,-0.026004,-0.050460,1.384029,-0.029074,-0.053139,1.384029,-0.493518,-0.809283,-0.139747,4.440053,-0.250049,-10.996273
1790548923.4788,-0.020895,-0.038874,1.395420,-0.023349,-0.043154,1.395420,-0.811624,-0.630804,-0.128820,5.091629,1.162791,-8.939280
1790548923.4927,-0.011373,-0.021961,1.403240,-0.014965,-0.028319,1.403240,-1.253571,-0.950124,-0.160388,3.520182,0.382011,-6.416553
1790548923.5067,0.006234,-0.001962,1.407167,-0.000126,-0.009869,1.407167,-1.546180,-1.383573,-0.239307,1.603783,-0.250049,-6.377742
1790548923.5207,0.018710,0.017310,1.406022,0.013059,0.009156,1.406022,-1.417481,-0.971978,-0.505204,2.830278,1.014071,-10.879840
1790548923.5346,0.003175,0.004758,1.392336,0.006140,0.006077,1.392336,0.744907,1.264471,-0.981148,1.527127,-2.703928,-21.281238
1790548923.5489,0.020542,-0.005725,1.325855,0.016221,-0.002184,1.325855,1.188068,-0.769217,-1.362388,-4.758662,9.751370,-5.407462
1790548923.5634,0.019594,-0.002063,1.319287,0.018582,-0.002099,1.319287,-0.125633,0.068541,-1.029713,2.293686,3.244871,-8.201867
1790548923.5775,0.018360,-0.013683,1.297979,0.018427,-0.010208,1.297979,0.782545,0.364792,-1.174196,-1.462456,0.567911,-8.706413
1790548923.5918,0.030362,-0.022398,1.278046,0.026782,-0.018741,1.278046,0.634420,-0.601665,-1.205764,-1.462456,1.757671,-9.987182
1790548923.6057,0.037894,-0.027912,1.259736,0.034561,-0.025161,1.259736,0.414660,-0.366122,-1.334463,-0.274288,1.534591,-8.551168
1790548923.6197,0.040197,-0.032681,1.247353,0.038506,-0.030425,1.247353,0.418302,-0.088083,-1.202121,0.798895,2.389731,-8.163056
1790548923.6336,0.051482,-0.038508,1.223739,0.047589,-0.036083,1.223739,0.411017,-0.487536,-1.100134,-3.378855,1.274331,-9.055714
1790548923.6473,0.062886,-0.048295,1.208293,0.058297,-0.044632,1.208293,0.706054,-0.641732,-0.869447,-2.075704,1.460231,-10.414105
1790548923.6609,0.065922,-0.062403,1.198850,0.063635,-0.057072,1.198850,1.044800,-0.086869,-0.385004,-1.999048,1.237151,-9.793126
1790548923.6747,0.059962,-0.060341,1.193236,0.061064,-0.059360,1.193236,-0.113492,0.562697,-0.011048,-4.643678,2.910251,-18.253966
1790548923.6887,0.058509,-0.050577,1.192643,0.059275,-0.053212,1.192643,-0.686567,0.234879,0.439399,-5.985158,1.869211,-18.098721
1790548923.7028,0.054917,-0.042150,1.194957,0.056224,-0.045469,1.194957,-0.605219,0.464352,0.574168,-6.176798,0.790991,-11.539630
1790548923.7173,0.032423,-0.034181,1.212075,0.039563,-0.037567,1.212075,-0.697494,1.337320,0.840066,0.607255,-0.510309,-2.923546
1790548923.7314,0.028054,-0.026581,1.222223,0.031507,-0.029877,1.222223,-0.617361,0.543271,0.836423,-1.270816,-0.064149,-1.914455
1790548923.7456,0.023077,-0.019556,1.231814,0.025606,-0.022652,1.231814,-0.480163,0.344152,0.883775,-1.194160,1.014071,-6.532986
1790548923.7598,0.009950,-0.011225,1.246584,0.014647,-0.014653,1.246584,-0.574866,0.784885,1.071967,0.223975,2.464091,-14.178791
1790548923.7738,0.008653,-0.014953,1.253600,0.010451,-0.014863,1.253600,0.108696,0.060042,1.132674,-3.608823,-1.737248,-18.525644
1790548923.7878,0.004908,-0.017742,1.266895,0.006571,-0.016878,1.266895,0.103840,0.106180,1.275943,-0.005993,0.084571,-5.950818
1790548923.8021,0.001436,-0.018663,1.280504,0.002977,-0.018127,1.280504,-0.034573,0.123178,1.328151,-0.427600,0.084571,-5.640329
1790548923.8161,-0.001643,-0.027914,1.302928,-0.000257,-0.024978,1.302928,0.511791,-0.095368,1.404642,1.948735,-0.621849,-7.930189
1790548923.8302,-0.007453,-0.036976,1.322157,-0.005294,-0.033376,1.322157,0.685414,0.318655,1.125389,-0.389272,2.538451,-10.957462
1790548923.8443,-0.022530,-0.043487,1.336963,-0.017359,-0.040454,1.336963,0.464440,0.935439,0.929912,0.990535,1.757671,-10.491728
1790548923.8585,-0.035912,-0.053700,1.350322,-0.030346,-0.049726,1.350322,0.709696,0.816453,0.796356,1.680439,1.608951,-11.694875
1790548923.8722,-0.046049,-0.060100,1.365009,-0.041338,-0.056988,1.365009,0.508149,0.657400,0.734435,0.913879,2.352551,-10.258860
1790548923.8860,-0.046737,-0.060022,1.381346,-0.045117,-0.059112,1.381346,0.119623,0.026046,0.480679,0.300631,3.691031,-10.336483
1790548923.9000,-0.043399,-0.054877,1.392724,-0.043915,-0.056147,1.392724,-0.313825,-0.327269,0.274275,1.910407,2.501271,-11.423196
1790548923.9140,-0.041160,-0.046917,1.405882,-0.041986,-0.049686,1.405882,-0.576080,-0.357623,0.061800,4.861661,1.237151,-12.471098
1790548923.9281,-0.036858,-0.038660,1.418171,-0.038397,-0.041968,1.418171,-0.651357,-0.537316,-0.004977,5.014973,-0.064149,-10.608161
1790548923.9422,-0.025505,-0.024219,1.432413,-0.029372,-0.029543,1.432413,-1.007101,-1.060611,0.016877,3.941790,1.311511,-7.774944
1790548923.9564,-0.007549,-0.006376,1.443556,-0.014096,-0.013326,1.443556,-1.343418,-1.504987,0.033875,2.715294,0.121751,-6.610609
1790548923.9712,0.014120,0.014964,1.455452,0.005655,0.006477,1.455452,-1.536466,-1.750243,0.070299,2.485326,-0.026969,-4.980539
1790548923.9853,0.035889,0.038976,1.452374,0.026819,0.029226,1.452374,-1.748941,-1.430924,-0.262375,-1.577440,1.088431,-10.025993
1790548923.9996,-0.004991,0.021533,1.433787,0.004552,0.023841,1.433787,1.157715,3.077185,-0.721321,-0.427600,1.088431,-21.281238
1790548924.0136,0.031202,0.006320,1.406163,0.023207,0.011577,1.406163,1.150430,-2.109630,-1.262829,-11.696027,5.921830,-21.281238
1790548924.0276,0.022589,-0.001392,1.393720,0.022774,0.002499,1.393720,0.500864,0.612477,-1.192408,3.405198,0.790991,-10.103616
1790548924.0415,0.026829,-0.006903,1.368559,0.025612,-0.004082,1.368559,0.457155,0.069755,-1.305324,-2.114032,1.720491,-6.610609
1790548924.0557,0.037442,-0.013431,1.354508,0.033893,-0.010626,1.354508,0.396448,-0.602879,-1.063709,-0.120976,0.456371,-9.133336
1790548924.0695,0.052172,-0.023142,1.335494,0.046688,-0.019387,1.335494,0.829896,-0.746148,-1.120774,-1.999048,2.278191,-5.601518
1790548924.0836,0.057297,-0.033038,1.320921,0.054114,-0.028943,1.320921,0.776474,-0.217996,-1.206978,-0.312616,2.724351,-8.745224
1790548924.0973,0.063938,-0.038337,1.306207,0.060991,-0.035519,1.306207,0.492365,-0.287202,-1.044283,-1.730752,3.542311,-9.676693
1790548924.1110,0.070731,-0.048818,1.292955,0.067809,-0.044828,1.292955,0.743692,-0.346695,-0.811168,-1.500784,1.274331,-10.025993
1790548924.1249,0.073857,-0.059859,1.286107,0.072043,-0.055349,1.286107,0.817755,-0.108723,-0.252662,-2.612295,1.980751,-12.781588
1790548924.1388,0.066588,-0.055149,1.291759,0.068224,-0.055209,1.291759,-0.238549,0.526273,0.429685,-1.845736,3.728211,-15.731238
1790548924.1529,0.060177,-0.042676,1.289127,0.062591,-0.046436,1.289127,-0.869902,0.614905,0.707724,-5.870174,1.385871,-13.208511
1790548924.1672,0.047422,-0.034688,1.290207,0.051973,-0.038212,1.290207,-0.624646,0.920869,0.792714,-2.152360,-0.250049,-10.064805
1790548924.1812,0.036714,-0.021072,1.319206,0.041292,-0.026214,1.319206,-0.729062,1.161269,0.759932,-1.769080,0.902531,-0.827741
1790548924.1952,0.031541,-0.014618,1.312682,0.034466,-0.018097,1.312682,-0.568795,0.449782,0.950552,-1.500784,-0.175689,-4.281937
1790548924.2094,0.023907,-0.010769,1.320651,0.027075,-0.012967,1.320651,-0.322324,0.420643,0.985763,-0.197632,0.382011,-7.076343
1790548924.2237,0.017642,-0.013729,1.325557,0.020472,-0.013501,1.325557,0.089270,0.368434,1.256516,-3.110559,-0.770569,-18.874945
1790548924.2376,0.014951,-0.020955,1.332858,0.016607,-0.018719,1.332858,0.374593,0.119535,1.433781,-2.612295,-1.068009,-14.023546
1790548924.2516,0.004682,-0.017366,1.359409,0.008259,-0.017772,1.359409,-0.217908,0.557841,1.700892,-0.389272,1.571771,-6.765853
1790548924.2656,-0.004429,-0.022998,1.378513,-0.000623,-0.021430,1.378513,0.221611,0.335653,1.692393,1.335487,-0.807749,-7.309210
1790548924.2795,-0.006072,-0.031538,1.403290,-0.004437,-0.028505,1.403290,0.570070,-0.139077,1.596476,0.952207,0.939711,-7.969000
1790548924.2934,-0.018157,-0.036162,1.424466,-0.014041,-0.033865,1.424466,0.374593,0.747247,1.175169,0.147319,2.724351,-11.112707
1790548924.3074,-0.030333,-0.040943,1.440280,-0.025446,-0.038820,1.440280,0.278676,0.682897,1.034328,2.293686,1.014071,-13.169700
1790548924.3214,-0.036326,-0.049722,1.456376,-0.033062,-0.046451,1.456376,0.588282,0.295586,1.027043,1.182175,1.571771,-12.199420
1790548924.3351,-0.044466,-0.053858,1.481751,-0.041045,-0.051636,1.481751,0.361238,0.402430,0.886203,2.370342,2.724351,-9.948371
1790548924.3486,-0.044661,-0.053065,1.494784,-0.043576,-0.052636,1.494784,-0.013932,-0.048016,0.558385,0.798895,2.464091,-10.724595
1790548924.3626,-0.037100,-0.044785,1.506208,-0.039043,-0.047141,1.506208,-0.566367,-0.646588,0.241493,1.987063,2.017931,-11.035084
1790548924.3765,-0.025539,-0.034671,1.516937,-0.029590,-0.038412,1.516937,-0.726634,-0.980477,0.001093,3.405198,1.385871,-11.733686
1790548924.3905,-0.018987,-0.025139,1.534829,-0.022168,-0.029121,1.534829,-0.697494,-0.758289,-0.003763,5.589893,0.902531,-9.831937
1790548924.4045,-0.012145,-0.012924,1.548950,-0.015152,-0.017783,1.548950,-0.906327,-0.775287,0.075156,4.478381,0.828171,-8.667602
1790548924.4185,0.005052,0.004845,1.560222,-0.001009,-0.001944,1.560222,-1.306994,-1.443066,0.071514,2.638638,0.790991,-7.736133
1790548924.4323,0.022045,0.025317,1.569491,0.015129,0.017139,1.569491,-1.606887,-1.490417,0.086083,2.102047,-0.212869,-5.368651
1790548924.4462,0.018748,0.034832,1.559259,0.017662,0.029524,1.559259,-0.782484,0.375719,-0.410501,-0.887536,0.270471,-10.181238
1790548924.4604,0.006490,0.022052,1.546423,0.009842,0.024294,1.546423,0.882105,0.935439,-1.009073,3.443526,1.906391,-14.916203
1790548924.4750,0.037574,0.022115,1.506158,0.029254,0.022768,1.506158,0.321171,-1.761171,-1.245831,-2.382327,5.735931,-5.562707
1790548924.4894,0.025184,0.017188,1.501609,0.026405,0.018862,1.501609,0.301745,0.786099,-1.170554,3.443526,0.790991,-6.377742
1790548924.5037,0.031316,0.006422,1.475994,0.029843,0.010154,1.475994,0.731551,-0.092940,-1.158412,-2.497311,1.237151,-9.637881
1790548924.5177,0.047092,-0.005368,1.461510,0.041917,-0.000711,1.461510,0.803185,-0.939197,-1.064923,-0.772552,1.162791,-10.181238
1790548924.5320,0.058092,-0.018119,1.441696,0.053239,-0.012897,1.441696,0.865107,-0.560384,-1.435237,-0.465928,1.348691,-8.357112
1790548924.5462,0.062881,-0.025895,1.426797,0.059988,-0.021996,1.426797,0.645347,-0.232566,-1.293182,0.453943,2.910251,-7.580888
1790548924.5599,0.072243,-0.034442,1.407001,0.068567,-0.030708,1.407001,0.638062,-0.462039,-1.132915,-1.845736,2.278191,-9.909560
1790548924.5736,0.079988,-0.047193,1.390712,0.076561,-0.042247,1.390712,0.922171,-0.392833,-0.941081,-1.807408,1.794851,-10.569350
1790548924.5876,0.074421,-0.047992,1.381565,0.075063,-0.046268,1.381565,0.092912,0.501990,-0.352222,-2.727279,3.505131,-17.089630
1790548924.6016,0.068361,-0.033543,1.374160,0.070372,-0.037361,1.374160,-0.998602,0.566340,0.242708,-5.103614,2.649991,-16.313406
1790548924.6156,0.062262,-0.021763,1.367025,0.064695,-0.026442,1.367025,-0.867474,0.580909,0.432114,-4.911974,1.014071,-13.519000
1790548924.6296,0.047064,-0.014036,1.370721,0.052353,-0.017758,1.370721,-0.633145,1.020429,0.615449,-0.120976,-0.064149,-3.234035
1790548924.6434,0.020628,0.002554,1.448851,0.030145,-0.003540,1.448851,-0.844405,1.321536,0.676156,2.063719,1.720491,-0.750119
1790548924.6574,0.015509,0.010117,1.448681,0.019900,0.006020,1.448681,-0.610076,0.357507,0.644589,-1.270816,0.493551,-9.521448
1790548924.6713,0.001418,0.017970,1.459528,0.006962,0.014385,1.459528,-0.526300,0.860162,0.728364,1.143847,3.096151,-12.277042
1790548924.6852,0.003322,0.008528,1.464419,0.004414,0.010285,1.464419,0.533646,-0.217996,1.010045,-2.458983,-0.956469,-20.505015
1790548924.6999,-0.003728,0.015192,1.461537,-0.001286,0.013720,1.461537,-0.255547,0.458281,1.369431,-1.960720,3.616671,-5.291028
1790548924.7145,-0.013389,0.019814,1.490169,-0.009758,0.017986,1.490169,-0.373318,0.307727,1.570979,1.450471,1.162791,-7.503266
1790548924.7287,-0.012455,0.006726,1.513760,-0.011646,0.010104,1.513760,0.629563,-0.404974,1.668110,0.875551,-1.662888,-6.804665
1790548924.7430,-0.025247,-0.005251,1.541759,-0.021166,-0.000645,1.541759,0.941598,0.495919,1.356076,3.060246,3.319231,-7.153965
1790548924.7573,-0.038620,-0.008789,1.555791,-0.033384,-0.006346,1.555791,0.207042,0.780029,1.039185,1.028863,1.906391,-11.927742
1790548924.7713,-0.051425,-0.018342,1.571500,-0.046012,-0.014743,1.571500,0.562785,0.738748,1.025829,1.833751,0.530731,-13.480189
1790548924.7851,-0.060610,-0.029445,1.582842,-0.056231,-0.025035,1.582842,0.740050,0.561483,0.994262,0.492271,1.199971,-8.939280
1790548924.7987,-0.068724,-0.032149,1.587111,-0.064976,-0.030015,1.587111,0.302959,0.521416,0.770859,0.607255,3.542311,-8.589979
1790548924.8125,-0.060811,-0.030342,1.584448,-0.062060,-0.030243,1.584448,-0.134132,-0.516675,0.457611,-0.925864,1.794851,-9.249770
1790548924.8264,-0.052483,-0.025199,1.598404,-0.055356,-0.026712,1.598404,-0.379389,-0.763146,0.339839,3.136902,1.980751,-11.656063
1790548924.8406,-0.045324,-0.016027,1.613140,-0.048334,-0.019232,1.613140,-0.674426,-0.709724,0.138291,4.899989,1.608951,-13.053266
1790548924.8547,-0.037958,-0.004751,1.629494,-0.041071,-0.009096,1.629494,-0.861403,-0.829924,0.083655,5.244941,0.567911,-8.784035
1790548924.8687,-0.027633,0.011656,1.641369,-0.031664,0.005431,1.641369,-1.202577,-0.995047,0.032661,2.983590,0.865351,-6.222497
1790548924.8826,-0.010266,0.028209,1.654716,-0.016686,0.021375,1.654716,-1.298495,-1.452779,-0.009834,1.948735,0.047391,-5.523895
1790548924.8971,0.016010,0.050660,1.659644,0.006201,0.041875,1.659644,-1.534038,-1.880157,-0.058400,0.453943,1.534591,-6.106063
1790548924.9112,-0.000454,0.040770,1.651045,0.001543,0.041102,1.651045,0.568856,1.323964,-0.596265,-0.005993,-0.956469,-21.281238
1790548924.9252,0.015390,0.030022,1.608144,0.011236,0.033346,1.608144,0.931884,-0.747362,-0.925297,-5.678534,6.776970,-14.916203
1790548924.9395,0.010133,0.025253,1.598865,0.010464,0.027681,1.598865,0.247108,0.487420,-1.154770,2.255358,0.233291,-13.286133
1790548924.9536,0.005375,0.017020,1.577719,0.006901,0.020218,1.577719,0.559143,0.623404,-1.291968,-0.657568,0.902531,-9.482637
1790548924.9678,0.019700,0.007744,1.558790,0.015860,0.011486,1.558790,0.606494,-0.734007,-1.044283,-1.309144,0.419191,-7.037532
1790548924.9825,0.029535,-0.000642,1.534150,0.025433,0.002996,1.534150,0.623492,-0.396475,-1.203336,-0.964192,1.497411,-5.989630
1790548924.9968,0.041968,-0.007540,1.502639,0.037008,-0.004379,1.502639,0.623492,-0.561598,-1.262829,-1.462456,2.649991,-6.067252
1790548925.0110,0.053176,-0.015890,1.477733,0.048326,-0.012437,1.477733,0.661131,-0.531245,-1.274970,-1.692424,3.170511,-9.909560
1790548925.0248,0.059559,-0.026689,1.458547,0.056189,-0.022413,1.458547,0.814113,-0.268990,-1.134130,-1.155832,2.389731,-10.103616
1790548925.0385,0.061170,-0.029815,1.442033,0.059675,-0.027594,1.442033,0.409803,0.038188,-0.667899,-1.117504,3.467951,-6.882287
1790548925.0525,0.056525,-0.025920,1.438821,0.057470,-0.026422,1.438821,-0.262831,0.368434,0.015663,-1.615768,2.835891,-18.137532
1790548925.0665,0.053293,-0.015921,1.426806,0.054546,-0.019071,1.426806,-0.719349,0.414572,0.406617,-6.751717,1.757671,-15.847672
1790548925.0806,0.047798,-0.009893,1.424078,0.049822,-0.012647,1.424078,-0.447381,0.471637,0.719865,-3.685479,0.865351,-11.306763
1790548925.0947,0.025817,0.003244,1.455634,0.033019,-0.001523,1.455634,-0.593078,1.365245,0.783001,0.223975,1.311511,-1.448720
1790548925.1087,0.017035,0.010367,1.452978,0.021830,0.006800,1.452978,-0.653785,0.657400,0.824282,-1.500784,-0.473129,-6.532986
1790548925.1226,0.007635,0.018566,1.452404,0.011893,0.015036,1.452404,-0.658642,0.686540,0.853421,-1.500784,0.530731,-7.153965
1790548925.1366,-0.006110,0.019845,1.457830,-0.000709,0.018402,1.457830,-0.268902,0.905085,1.059825,-1.769080,-1.291089,-14.411658
1790548925.1509,0.001913,0.016398,1.464178,0.001126,0.016999,1.464178,0.043132,-0.538530,1.061039,-4.950302,-1.811608,-14.101168
1790548925.1649,-0.006841,0.016630,1.485228,-0.004451,0.016741,1.485228,-0.158415,0.335653,1.510272,0.760567,-0.064149,-8.279490
1790548925.1790,-0.019345,0.012958,1.521587,-0.014877,0.014093,1.521587,0.103840,0.435212,1.517557,3.405198,-0.287229,-8.861658
1790548925.1934,-0.022677,-0.002021,1.550259,-0.020337,0.002813,1.550259,0.856608,-0.113580,1.749458,1.297159,-0.324409,-8.395923
1790548925.2074,-0.024578,-0.009942,1.562609,-0.023306,-0.006116,1.562609,0.633205,0.185099,1.143601,-3.110559,3.356411,-9.055714
1790548925.2216,-0.039663,-0.015747,1.575100,-0.034756,-0.012857,1.575100,0.324813,0.913584,0.977264,1.028863,0.753811,-10.414105
1790548925.2362,-0.052886,-0.030856,1.589493,-0.047447,-0.025457,1.589493,0.935527,0.746033,0.969979,1.948735,0.642271,-13.286133
1790548925.2499,-0.067846,-0.037590,1.610706,-0.061726,-0.033950,1.610706,0.549430,0.877160,0.979692,2.102047,2.724351,-7.930189
1790548925.2636,-0.071473,-0.040868,1.619204,-0.068549,-0.038793,1.619204,0.289603,0.251877,0.751433,-0.197632,2.798711,-8.978091
1790548925.2776,-0.066689,-0.040692,1.628839,-0.067247,-0.040122,1.628839,0.037062,-0.387976,0.575383,0.530599,2.798711,-9.482637
1790548925.2917,-0.059054,-0.034033,1.632252,-0.061512,-0.035859,1.632252,-0.515373,-0.559170,0.263348,0.798895,1.348691,-14.295224
1790548925.3059,-0.054083,-0.025646,1.646134,-0.056312,-0.028710,1.646134,-0.743632,-0.530031,0.150433,4.631693,-1.551348,-13.557812
1790548925.3199,-0.045191,-0.010373,1.662884,-0.048527,-0.015874,1.662884,-1.192864,-0.878489,0.022948,4.440053,-0.250049,-9.288581
1790548925.3338,-0.036417,0.006895,1.678197,-0.040050,0.000064,1.678197,-1.311850,-0.900344,0.027804,3.520182,0.382011,-6.843476
1790548925.3479,-0.014541,0.025604,1.692422,-0.022194,0.017942,1.692422,-1.452691,-1.798809,0.005950,1.757095,-0.026969,-4.281937
1790548925.3618,0.007240,0.050516,1.703726,-0.001590,0.040744,1.703726,-1.695519,-1.926294,0.256063,2.485326,1.832031,-4.281937
1790548925.3762,-0.011771,0.039588,1.696127,-0.008717,0.039935,1.696127,0.614993,1.476946,-0.446925,-0.542584,-1.848788,-21.281238
1790548925.3916,0.010399,0.029044,1.664864,0.004664,0.032311,1.664864,0.886961,-1.120104,-0.715250,-7.058341,10.197530,-16.779140
1790548925.4061,0.013313,0.023207,1.651377,0.010718,0.025938,1.651377,0.327242,-0.021305,-1.248259,1.067191,0.382011,-13.519000
1790548925.4209,0.013521,0.011055,1.632837,0.012680,0.015520,1.632837,0.693913,0.248234,-1.355103,-0.465928,-0.882109,-11.345574
1790548925.4358,0.023394,-0.000320,1.622991,0.020180,0.004432,1.622991,0.663559,-0.528817,-0.919226,0.032335,-0.138509,-5.174595
1790548925.4498,0.029067,-0.004579,1.604378,0.026401,-0.001876,1.604378,0.449870,-0.230138,-1.003002,-0.350944,2.649991,-6.416553
1790548925.4638,0.031035,-0.008313,1.579318,0.029645,-0.006382,1.579318,0.378236,0.151103,-1.253115,-1.347472,2.501271,-6.959909
1790548925.4779,0.036710,-0.014012,1.560883,0.034591,-0.011723,1.560883,0.434086,-0.188857,-1.113489,-1.040848,1.943571,-9.288581
1790548925.4920,0.044025,-0.017933,1.541632,0.041195,-0.016070,1.541632,0.390377,-0.273847,-0.914370,-1.424128,2.241011,-6.067252
1790548925.5060,0.039463,-0.023271,1.539052,0.039983,-0.021110,1.539052,0.438943,0.338081,-0.172529,0.032335,2.352551,-9.909560
1790548925.5202,0.034574,-0.017522,1.535009,0.036197,-0.018599,1.535009,-0.392745,0.477707,0.458825,-5.601878,2.501271,-16.623896
1790548925.5342,0.031901,-0.007111,1.534293,0.033190,-0.010557,1.534293,-0.755773,0.333224,0.732007,-6.445094,1.794851,-14.955014
1790548925.5483,0.020182,-0.001081,1.534928,0.024084,-0.003924,1.534928,-0.493518,0.911156,0.721080,-2.957247,0.419191,-10.142427
1790548925.5622,0.008429,0.004017,1.538325,0.013126,0.001635,1.538325,-0.532371,0.867447,0.796356,-0.619240,-0.324409,-2.962357
1790548925.5762,0.007237,0.006893,1.547035,0.009004,0.005315,1.547035,-0.282258,0.196026,0.956623,-1.385800,0.158931,-3.078790
1790548925.5902,0.000774,0.005766,1.555631,0.003243,0.005631,1.555631,-0.060070,0.352651,0.978478,-0.274288,-0.250049,-5.912007
1790548925.6042,-0.005395,0.006635,1.566522,-0.002804,0.006334,1.566522,-0.181484,0.344152,1.148458,-1.922392,0.196111,-18.370399
1790548925.6181,-0.006433,0.000510,1.580458,-0.005344,0.002257,1.580458,0.241038,-0.012806,1.311153,-2.880591,-1.923148,-17.089630
1790548925.6321,-0.011235,-0.000385,1.599047,-0.009468,0.000407,1.599047,-0.029716,0.162030,1.549124,-0.465928,0.679451,-8.589979
1790548925.6459,-0.018629,-0.008615,1.616127,-0.015881,-0.005908,1.616127,0.406161,0.324725,1.560052,0.070663,-0.547489,-8.046623
1790548925.6598,-0.019357,-0.015980,1.637014,-0.018314,-0.012958,1.637014,0.468082,-0.197356,1.433781,0.798895,0.865351,-6.727042
1790548925.6737,-0.025359,-0.021292,1.651402,-0.023246,-0.018792,1.651402,0.407375,0.372077,0.878918,-0.427600,2.278191,-9.676693
1790548925.6876,-0.038744,-0.027182,1.661320,-0.034095,-0.024665,1.661320,0.344240,0.798241,0.790286,2.140375,0.679451,-12.238231
1790548925.7015,-0.050571,-0.036116,1.671338,-0.045628,-0.032681,1.671338,0.578569,0.715679,0.779358,1.795423,1.125611,-12.432287
1790548925.7151,-0.059083,-0.041863,1.680920,-0.055047,-0.039108,1.680920,0.420731,0.566340,0.653088,0.683911,1.757671,-9.909560
1790548925.7289,-0.058960,-0.039055,1.688371,-0.057786,-0.039071,1.688371,-0.146274,-0.005521,0.287631,0.223975,2.501271,-10.142427
1790548925.7431,-0.052532,-0.032601,1.692300,-0.054108,-0.034542,1.692300,-0.449809,-0.521532,0.048445,1.948735,1.497411,-10.802217
1790548925.7570,-0.039868,-0.024740,1.692661,-0.044140,-0.027681,1.692661,-0.587007,-0.936768,-0.098466,1.412143,1.274331,-12.975644
1790548925.7709,-0.035565,-0.017546,1.707866,-0.038137,-0.020587,1.707866,-0.551797,-0.578596,-0.097252,5.628221,0.567911,-9.754315
1790548925.7850,-0.025736,-0.003896,1.719573,-0.029457,-0.008903,1.719573,-0.958535,-0.941625,-0.117893,4.593365,1.534591,-8.939280
1790548925.7989,-0.009101,0.014666,1.730533,-0.015208,0.007596,1.730533,-1.374986,-1.450350,-0.111822,2.906934,0.567911,-5.834385
1790548925.8129,0.010084,0.034489,1.739864,0.002496,0.026421,1.739864,-1.569248,-1.600904,-0.159173,2.140375,-0.398769,-5.058161
1790548925.8269,0.029054,0.052214,1.738751,0.021086,0.044476,1.738751,-1.327634,-1.394500,-0.530701,0.990535,0.567911,-5.368651
1790548925.8409,0.015347,0.033853,1.725476,0.017068,0.037040,1.725476,1.396901,1.009501,-0.811168,3.558510,4.434631,-13.014455
1790548925.8547,0.031979,0.027554,1.703574,0.027506,0.030400,1.703574,0.699983,-0.831138,-1.313823,-3.838791,8.338530,-12.238231
1790548925.8686,0.029476,0.021170,1.688442,0.028885,0.023939,1.688442,0.510577,0.264018,-1.315037,2.638638,3.021791,-10.297672
1790548925.8829,0.028461,0.013718,1.666837,0.028588,0.016784,1.666837,0.493579,0.356293,-1.425524,-0.504256,0.976891,-7.153965
1790548925.8970,0.036571,0.006016,1.652141,0.034176,0.009247,1.652141,0.530003,-0.404974,-1.152342,0.032335,1.534591,-10.181238
1790548925.9109,0.042608,0.001843,1.634576,0.040079,0.004064,1.634576,0.366094,-0.254420,-1.237332,-0.005993,2.166651,-7.037532
1790548925.9248,0.051236,-0.005702,1.614162,0.047889,-0.002772,1.614162,0.594353,-0.346695,-1.267685,-1.769080,2.873071,-9.948371
1790548925.9385,0.057907,-0.012721,1.592294,0.054902,-0.009736,1.592294,0.594353,-0.147576,-1.216691,-3.033903,3.207691,-9.094525
1790548925.9522,0.064593,-0.020005,1.574802,0.061685,-0.016924,1.574802,0.597995,-0.204641,-0.971434,-2.727279,2.724351,-8.745224
1790548925.9662,0.058403,-0.026560,1.569673,0.059388,-0.023669,1.569673,0.492365,0.494705,-0.283016,-0.849208,2.873071,-15.071448
1790548925.9803,0.053323,-0.021483,1.569131,0.055143,-0.022139,1.569131,-0.368462,0.430356,0.311914,-4.183743,1.943571,-19.457112
1790548925.9949,0.051168,-0.013194,1.571414,0.052360,-0.015878,1.571414,-0.557868,0.287087,0.610593,-7.058341,2.129471,-16.119350
1790548926.0092,0.034067,-0.003324,1.575275,0.039555,-0.007090,1.575275,-0.703565,1.232904,0.762360,-1.232488,0.605091,-5.291028
1790548926.0231,0.017765,0.006337,1.591085,0.024302,0.002309,1.591085,-0.646500,0.942724,0.756290,0.568927,0.642271,-2.729490
1790548926.0371,0.014150,0.010511,1.598150,0.017196,0.008050,1.598150,-0.391530,0.217881,0.841280,-1.002520,0.121751,-6.959909
1790548926.0512,0.006413,0.011434,1.612004,0.009648,0.010419,1.612004,-0.169342,0.339295,0.928698,1.335487,0.084571,-11.035084
1790548926.0652,0.009347,0.006103,1.627658,0.009437,0.007398,1.627658,0.352739,-0.350338,1.216450,-1.385800,2.315371,-16.080539
1790548926.0791,0.000521,0.003682,1.645806,0.003196,0.004796,1.645806,0.100197,0.424285,1.476276,-0.082648,0.753811,-9.831937
1790548926.0929,-0.012513,0.005357,1.672627,-0.007800,0.005189,1.672627,-0.134132,0.578481,1.699678,1.833751,1.832031,-8.667602
1790548926.1069,-0.018557,-0.004359,1.697678,-0.015330,-0.001495,1.697678,0.543359,0.126820,1.772527,0.990535,0.047391,-10.103616
1790548926.1208,-0.025040,-0.014745,1.717181,-0.022127,-0.010770,1.717181,0.652632,0.266447,1.490846,0.262303,0.865351,-9.482637
1790548926.1348,-0.032365,-0.019148,1.727953,-0.029294,-0.016635,1.727953,0.266535,0.449782,0.923841,-0.159304,1.014071,-8.046623
1790548926.1486,-0.041556,-0.027230,1.739658,-0.037877,-0.024051,1.739658,0.482652,0.523845,0.880132,1.258831,0.419191,-11.112707
1790548926.1626,-0.055265,-0.037842,1.753402,-0.050049,-0.033704,1.753402,0.737622,0.810382,0.908057,2.178703,1.906391,-11.112707
1790548926.1763,-0.064665,-0.044416,1.761327,-0.060280,-0.041202,1.761327,0.486294,0.659829,0.691940,0.108991,2.203831,-10.763406
1790548926.1900,-0.063377,-0.044475,1.765304,-0.062448,-0.043493,1.765304,0.043132,-0.061372,0.338625,-0.274288,2.241011,-10.025993
1790548926.2041,-0.057847,-0.038939,1.766780,-0.059227,-0.040306,1.766780,-0.449809,-0.417115,0.046017,1.258831,0.419191,-11.927742
1790548926.2181,-0.046158,-0.035086,1.767188,-0.050079,-0.036652,1.767188,-0.366033,-0.877275,-0.198026,1.987063,-0.547489,-12.005364
1790548926.2321,-0.039944,-0.028686,1.776626,-0.042984,-0.031076,1.776626,-0.532371,-0.685441,-0.286658,5.781533,-0.473129,-9.948371
1790548926.2464,-0.029322,-0.014747,1.779881,-0.033420,-0.019646,1.779881,-1.022884,-0.900344,-0.302442,3.788478,0.344831,-9.676693
1790548926.2605,-0.016308,0.002853,1.784056,-0.021442,-0.003897,1.784056,-1.308208,-1.111605,-0.302442,3.251886,0.307651,-7.464455
1790548926.2746,0.003354,0.023565,1.788593,-0.004085,0.015327,1.788593,-1.576533,-1.577835,-0.381361,2.408670,-0.064149,-5.834385
1790548926.2885,0.018368,0.040115,1.784472,0.011632,0.032678,1.784472,-1.274212,-0.928269,-0.655758,-0.657568,0.382011,-10.103616
1790548926.3025,-0.003146,0.028970,1.765575,0.001287,0.030083,1.765575,0.732765,1.837546,-1.204550,-0.619240,0.716631,-21.281238
1790548926.3163,0.015282,0.024960,1.746643,0.011084,0.026496,1.746643,0.402518,-0.934340,-1.259186,-6.253454,6.814150,-19.301868
1790548926.3302,0.016090,0.020494,1.728847,0.014588,0.022295,1.728847,0.186401,0.155960,-1.488659,1.105519,-0.807749,-12.509909
1790548926.3442,0.011100,0.014442,1.706840,0.012147,0.016798,1.706840,0.489937,0.597907,-1.426738,0.185647,1.608951,-6.610609
1790548926.3582,0.025242,0.009374,1.690496,0.021314,0.011601,1.690496,0.409803,-0.658730,-1.143843,-2.267343,1.757671,-7.348021
1790548926.3722,0.026217,0.005854,1.672170,0.024746,0.007578,1.672170,0.372165,0.134105,-1.163269,-0.197632,2.241011,-5.873196
1790548926.3864,0.031434,0.001042,1.654692,0.029428,0.003003,1.654692,0.423159,-0.091725,-1.079493,-1.884064,2.947431,-9.249770
1790548926.4001,0.036889,-0.002864,1.640607,0.034651,-0.001104,1.640607,0.384306,-0.171859,-0.908299,-1.577440,3.133331,-9.172147
1790548926.4138,0.041679,-0.010251,1.629612,0.039571,-0.007507,1.629612,0.574927,-0.181572,-0.739533,-1.117504,2.055111,-9.133336
1790548926.4278,0.043832,-0.012686,1.624755,0.042554,-0.011132,1.624755,0.344240,-0.049230,-0.276945,-1.079176,3.505131,-7.503266
1790548926.4418,0.033843,-0.015223,1.626244,0.036456,-0.013996,1.626244,0.198543,0.726606,0.303415,-1.500784,2.724351,-16.817952
1790548926.4557,0.028885,-0.011078,1.628809,0.031156,-0.011953,1.628809,-0.315040,0.488635,0.674942,-6.675061,1.720491,-16.623896
