t,imu_roll,imu_pitch,imu_yaw,lpf_roll,lpf_pitch,lpf_yaw,gyro_x,gyro_y,gyro_z,acc_x,acc_y,acc_z
1790542461.7737,-0.019327,-0.047422,0.007818,-0.013529,-0.033195,0.007818,0.026119,0.011346,0.004881,0.262303,1.199971,-10.103616
1790542461.7892,-0.007948,-0.055406,0.005372,-0.009623,-0.048743,0.005372,-0.024875,-0.014151,0.001238,0.032335,1.014071,-10.064805
1790542461.8029,-0.007759,-0.052466,0.006256,-0.008318,-0.051349,0.006256,-0.016376,-0.017793,0.006095,0.147319,1.162791,-9.831937
1790542461.8167,-0.002133,-0.051886,0.005896,-0.003988,-0.051725,0.005896,0.001836,0.002847,-0.002404,-0.082648,1.162791,-10.103616
1790542461.8307,-0.006329,-0.049973,0.007329,-0.005627,-0.050498,0.007329,0.009121,-0.005652,-0.003618,0.300631,1.199971,-9.715504
1790542461.8447,-0.008640,-0.048655,0.007620,-0.007736,-0.049208,0.007620,-0.023661,0.079338,-0.008475,0.223975,1.237151,-10.181238
1790542461.8590,-0.010489,-0.047551,0.007608,-0.009663,-0.048048,0.007608,-0.073441,0.087837,-0.002404,0.223975,1.237151,-10.491728
1790542461.8733,-0.009675,-0.046828,0.007167,-0.009671,-0.047194,0.007167,-0.130506,0.074482,0.027950,0.032335,1.125611,-10.220049
1790542461.8877,-0.006529,-0.043552,0.008389,-0.007472,-0.044645,0.008389,-0.097724,0.030772,0.092299,-0.159304,1.311511,-9.560259
1790542461.9017,-0.004300,-0.041084,0.011366,-0.005252,-0.042152,0.011366,-0.073441,-0.027506,0.195501,-0.082648,1.348691,-9.793126
1790542461.9157,-0.005970,-0.033187,0.021828,-0.005754,-0.035877,0.021828,-0.181500,-0.091856,0.339984,0.338959,1.720491,-9.172147
1790542461.9298,-0.013901,-0.026324,0.039624,-0.011457,-0.029190,0.039624,-0.153574,-0.120995,0.454113,1.105519,1.794851,-9.249770
1790542461.9437,-0.029317,-0.028434,0.064599,-0.023959,-0.028661,0.064599,0.051616,0.175255,0.632592,1.642111,1.125611,-9.094525
1790542461.9576,-0.024664,-0.026790,0.062038,-0.024452,-0.027351,0.062038,0.028547,-0.065145,0.636235,-0.312616,1.646131,-9.715504
1790542461.9716,-0.017023,-0.032301,0.064750,-0.019252,-0.030816,0.064750,0.061329,-0.203557,0.543960,-0.619240,0.753811,-10.685784
1790542461.9855,-0.017208,-0.041095,0.072417,-0.017821,-0.038011,0.072417,0.134177,-0.026292,0.418903,0.223975,0.233291,-10.724595
1790542461.9995,-0.014943,-0.046511,0.079511,-0.015807,-0.043961,0.079511,0.236165,-0.055432,0.474754,-0.159304,0.939711,-10.763406
1790542462.0135,-0.017659,-0.049090,0.086013,-0.017103,-0.047552,0.086013,0.149961,0.091480,0.489324,0.377287,1.162791,-10.530539
1790542462.0271,-0.018982,-0.046350,0.091012,-0.018419,-0.046710,0.091012,-0.033374,0.181326,0.383693,-0.044320,1.348691,-8.279490
1790542462.0408,-0.017619,-0.041064,0.094729,-0.017859,-0.042758,0.094729,-0.115936,0.052627,0.281705,-0.197632,1.646131,-8.318301
1790542462.0548,-0.015081,-0.036959,0.097269,-0.015915,-0.038699,0.097269,-0.137791,-0.080929,0.183360,-0.120976,1.683311,-9.676693
1790542462.0688,-0.014783,-0.033606,0.102253,-0.015123,-0.035134,0.102253,-0.125649,-0.136779,0.114154,0.530599,1.720491,-10.336483
1790542462.0828,-0.014008,-0.029095,0.109513,-0.014343,-0.030907,0.109513,-0.088011,-0.266692,0.055875,0.875551,2.203831,-10.452916
1790542462.0967,-0.010715,-0.021406,0.116807,-0.011803,-0.024256,0.116807,-0.244635,-0.480381,0.004881,0.837223,2.166651,-8.784035
1790542462.1107,-0.000157,-0.010672,0.112847,-0.003651,-0.014747,0.112847,-0.451039,-0.718353,0.047376,-0.082648,2.538451,-9.560259
1790542462.1251,-0.012376,-0.022442,0.121629,-0.009758,-0.020134,0.121629,0.570054,0.663340,-0.199095,1.527127,0.865351,-15.964105
1790542462.1392,-0.008499,-0.027991,0.069217,-0.008877,-0.025634,0.069217,0.895444,0.419298,-0.363004,-2.458983,3.728211,-11.229140
1790542462.1532,0.002696,-0.022180,0.033253,-0.000776,-0.023216,0.033253,0.055258,-0.077286,-0.698107,-2.037376,2.873071,-8.551168
1790542462.1672,0.009153,-0.027318,0.003359,0.006174,-0.026087,0.003359,0.323583,-0.128280,-1.007714,-0.734224,1.274331,-10.258860
1790542462.1811,0.015101,-0.028602,0.005234,0.012423,-0.027847,0.005234,0.332082,-0.309187,-1.160696,-0.005993,2.352551,-10.064805
1790542462.1951,0.000116,-0.027986,0.045672,0.003808,-0.027944,0.045672,-0.089225,0.622060,-1.135199,2.485326,1.162791,-10.181238
1790542462.2090,0.006479,-0.027251,-0.010056,0.005678,-0.027459,-0.010056,-0.062514,0.149758,-1.233544,-1.692424,1.348691,-9.754315
1790542462.2230,0.007404,-0.030099,-0.051531,0.006886,-0.029307,-0.051531,0.050401,0.316096,-1.442377,-0.810880,0.790991,-10.996273
1790542462.2370,0.001657,-0.029670,-0.056683,0.003225,-0.029561,-0.056683,0.069828,0.469078,-1.476372,0.645583,1.757671,-9.909560
1790542462.2506,-0.004895,-0.021078,-0.050838,-0.002459,-0.023623,-0.050838,-0.350265,0.522500,-1.458160,0.645583,2.203831,-8.240679
1790542462.2642,-0.009405,-0.017688,-0.060638,-0.007321,-0.019468,-0.060638,-0.254348,0.408371,-1.322176,0.683911,1.348691,-9.987182
1790542462.2783,-0.006075,-0.021134,-0.095193,-0.006449,-0.020634,-0.095193,0.075898,0.061126,-1.132770,-0.465928,0.567911,-10.258860
1790542462.2923,-0.001851,-0.021356,-0.100497,-0.003230,-0.021140,-0.100497,0.105038,-0.216913,-0.904512,0.223975,1.460231,-7.930189
1790542462.3062,-0.006014,-0.020182,-0.079298,-0.005179,-0.020469,-0.079298,0.050401,0.068411,-0.694465,1.373815,1.646131,-7.813756
1790542462.3205,-0.004325,-0.016678,-0.095835,-0.004581,-0.017816,-0.095835,-0.129292,0.081766,-0.779455,-0.389272,2.426911,-11.617252
1790542462.3349,-0.014956,-0.013440,-0.097286,-0.011844,-0.014753,-0.097286,-0.238564,0.725262,-0.654398,0.990535,1.608951,-11.811308
1790542462.3490,-0.007438,-0.016030,-0.118285,-0.008760,-0.015647,-0.118285,-0.038231,-0.382036,-0.320509,-0.619240,0.382011,-15.459560
1790542462.3630,-0.004386,-0.022574,-0.102859,-0.005698,-0.020496,-0.102859,0.368507,-0.456099,0.287776,1.258831,0.939711,-10.724595
1790542462.3774,-0.014075,-0.030707,-0.079985,-0.011562,-0.027644,-0.079985,0.570054,0.387730,0.855994,0.990535,1.199971,-8.240679
1790542462.3920,-0.012632,-0.043943,-0.125988,-0.012311,-0.039053,-0.125988,0.610121,0.313668,1.018689,-2.382327,-0.324409,-7.580888
1790542462.4064,-0.010918,-0.052443,-0.130206,-0.011336,-0.048426,-0.130206,0.377006,0.038057,1.061184,-1.270816,-0.026969,-8.240679
1790542462.4208,-0.002642,-0.058421,-0.131221,-0.005250,-0.055423,-0.131221,0.193670,-0.168347,0.795287,-3.685479,-0.287229,-11.656063
1790542462.4349,-0.012116,-0.063328,-0.134407,-0.010056,-0.060957,-0.134407,0.123250,0.544355,0.900918,0.530599,-0.324409,-11.966553
1790542462.4493,-0.017873,-0.070224,-0.126000,-0.015528,-0.067444,-0.126000,0.383076,0.277243,1.011405,0.453943,0.530731,-11.035084
1790542462.4633,-0.032721,-0.075882,-0.101196,-0.027563,-0.073351,-0.101196,0.463210,0.811466,1.011405,1.067191,1.088431,-7.503266
1790542462.4774,-0.041678,-0.079190,-0.080295,-0.037444,-0.077438,-0.080295,0.315084,0.741046,0.848710,-0.542584,1.274331,-8.046623
1790542462.4911,-0.045602,-0.081627,-0.065348,-0.043155,-0.080370,-0.065348,0.230094,0.421726,0.679944,-0.734224,1.348691,-9.831937
1790542462.5047,-0.046499,-0.084616,-0.053286,-0.045496,-0.083342,-0.053286,0.258020,0.126690,0.579170,-0.235960,1.571771,-12.665154
1790542462.5187,-0.043710,-0.088811,-0.036450,-0.044246,-0.087170,-0.036450,0.326012,-0.349254,0.516035,1.680439,1.460231,-13.324944
1790542462.5326,-0.041067,-0.088729,-0.025600,-0.042021,-0.088261,-0.025600,-0.068584,-0.414818,0.398263,2.102047,0.493551,-11.267951
1790542462.5465,-0.039449,-0.086587,-0.002576,-0.040220,-0.087089,-0.002576,-0.317484,-0.650361,0.428616,3.826806,-0.324409,-8.861658
1790542462.5604,-0.039867,-0.080357,0.013817,-0.039973,-0.082376,0.013817,-0.601593,-0.525305,0.422546,4.210086,-0.212869,-9.133336
1790542462.5744,-0.035403,-0.070347,0.021596,-0.036774,-0.073956,0.021596,-0.936696,-0.779060,0.250138,3.060246,-0.547489,-7.930189
1790542462.5883,-0.032898,-0.059875,0.023242,-0.034061,-0.064099,0.023242,-0.901486,-0.644291,0.061946,3.788478,-0.101329,-9.327392
1790542462.6022,-0.027818,-0.047773,0.021305,-0.029691,-0.052671,0.021305,-0.942767,-0.724424,-0.082537,2.868606,0.530731,-8.861658
1790542462.6162,-0.024184,-0.034603,0.017017,-0.025836,-0.040023,0.017017,-0.993761,-0.623650,-0.188168,2.983590,0.679451,-8.589979
1790542462.6308,-0.031668,-0.040207,0.028529,-0.029918,-0.040152,0.028529,0.209454,0.562567,-0.636186,1.220503,-0.435949,-16.623896
1790542462.6449,-0.035073,-0.052932,0.006198,-0.033527,-0.049098,0.006198,1.029000,0.660912,-1.210475,-1.999048,1.869211,-10.802217
1790542462.6589,-0.019581,-0.053351,-0.162432,-0.023764,-0.052075,-0.162432,0.919727,-0.148921,-0.973718,-4.643678,4.992331,-2.108511
1790542462.6728,-0.024805,-0.060295,-0.131168,-0.024493,-0.057829,-0.131168,0.520274,0.123047,-0.478348,2.063719,0.902531,-7.348021
1790542462.6868,-0.009587,-0.075309,-0.133472,-0.014059,-0.070065,-0.133472,1.066638,-0.755992,-0.654398,-2.803935,0.902531,-12.936833
1790542462.7008,0.014233,-0.081643,-0.079305,0.005746,-0.078170,-0.079305,0.837166,-1.111735,-0.830449,-4.222071,3.393591,-7.153965
1790542462.7143,0.016521,-0.087649,-0.060723,0.013288,-0.084805,-0.060723,0.684184,-0.422103,-0.917867,2.293686,2.649991,-8.745224
1790542462.7280,0.022024,-0.095529,-0.064087,0.019404,-0.092311,-0.064087,0.550628,-0.446385,-0.882657,0.568927,0.456371,-8.163056
1790542462.7419,0.032991,-0.103332,-0.077486,0.028914,-0.100026,-0.077486,0.726679,-0.742636,-0.711463,-0.235960,2.352551,-10.569350
1790542462.7559,0.009374,-0.106141,-0.080285,0.015236,-0.104307,-0.080285,0.143890,1.661365,-0.608261,1.220503,0.382011,-21.281238
1790542462.7698,0.007032,-0.092236,-0.116190,0.009493,-0.095857,-0.116190,-0.946409,0.473934,-0.604618,-4.413711,2.278191,-19.379490
1790542462.7838,0.019818,-0.084647,-0.175977,0.016720,-0.088010,-0.175977,-1.014401,-0.127066,-0.559695,-5.716862,-3.038548,-5.756762
1790542462.7978,0.018182,-0.073633,-0.190530,0.017744,-0.077946,-0.190530,-1.095749,0.456936,-0.551196,-1.385800,-0.956469,-4.786483
1790542462.8117,-0.000585,-0.051581,-0.158077,0.004914,-0.059491,-0.158077,-1.375001,1.145355,-0.585192,1.105519,1.311511,-4.204315
1790542462.8256,-0.007961,-0.038536,-0.179321,-0.004099,-0.044822,-0.179321,-0.999831,0.818751,-0.648328,-1.769080,0.605091,-9.987182
1790542462.8395,-0.007072,-0.037322,-0.195936,-0.006180,-0.039572,-0.195936,-0.181500,0.295455,-0.444352,-4.337055,0.567911,-15.886483
1790542462.8534,-0.002547,-0.045310,-0.211571,-0.003637,-0.043589,-0.211571,0.396432,-0.236339,-0.075253,-1.155832,-0.696209,-17.555364
1790542462.8675,0.002267,-0.046223,-0.211631,0.000496,-0.045433,-0.211631,-0.009091,-0.383250,0.407976,-0.044320,0.567911,-10.414105
1790542462.8822,-0.001518,-0.055786,-0.197419,-0.000914,-0.052680,-0.197419,0.641689,0.019845,0.501465,1.795423,0.902531,-9.172147
1790542462.8962,-0.004090,-0.071476,-0.197122,-0.003137,-0.065837,-0.197122,0.920941,0.368304,0.405548,-1.730752,-0.770569,-8.046623
1790542462.9104,-0.012446,-0.078205,-0.175868,-0.009653,-0.074494,-0.175868,0.599194,0.623274,0.440758,-0.542584,2.241011,-10.841028
1790542462.9243,-0.031913,-0.083309,-0.159670,-0.025235,-0.080665,-0.159670,0.414644,1.238844,0.647162,1.718767,1.608951,-11.500819
1790542462.9379,-0.044064,-0.086701,-0.134500,-0.038415,-0.084890,-0.134500,0.386719,0.904955,0.699370,-0.120976,1.497411,-6.377742
1790542462.9529,-0.051289,-0.086249,-0.100829,-0.047427,-0.085842,-0.100829,0.154818,0.489718,0.738223,-0.159304,2.947431,-9.366203
1790542462.9669,-0.054293,-0.090003,-0.091540,-0.052233,-0.088754,-0.091540,0.266519,0.249318,0.701798,-0.274288,1.125611,-9.715504
1790542462.9809,-0.055986,-0.093043,-0.080724,-0.054860,-0.091756,-0.080724,0.233737,0.160686,0.686015,-0.274288,1.237151,-9.443825
1790542462.9950,-0.044456,-0.093877,-0.063223,-0.047577,-0.093241,-0.063223,0.131749,-0.776632,0.692085,-0.542584,2.166651,-11.500819
1790542463.0090,-0.036390,-0.089748,-0.039409,-0.039746,-0.090796,-0.039409,-0.268918,-0.749921,0.686015,1.987063,1.571771,-12.044175
1790542463.0230,-0.026636,-0.082255,-0.038255,-0.030569,-0.084818,-0.038255,-0.738791,-0.962396,0.703013,2.791950,-1.105189,-10.491728
1790542463.0369,-0.019334,-0.073052,-0.033352,-0.022705,-0.076582,-0.033352,-0.833494,-0.814270,0.610738,2.868606,-0.770569,-10.064805
1790542463.0509,-0.012262,-0.059523,-0.030885,-0.015395,-0.064641,-0.030885,-1.132173,-0.840982,0.244067,2.868606,-0.547489,-7.852567
1790542463.0649,-0.004350,-0.044452,-0.025785,-0.007664,-0.050508,-0.025785,-1.166169,-0.899260,0.089871,3.060246,0.158931,-8.124245
1790542463.0787,0.004988,-0.031159,-0.021746,0.001193,-0.036964,-0.021746,-1.004688,-0.981822,-0.019402,2.561982,0.605091,-7.386832
1790542463.0926,-0.004565,-0.035167,-0.023268,-0.002838,-0.035706,-0.023268,0.247092,0.554068,-0.203952,2.332014,0.976891,-11.927742
1790542463.1066,-0.012452,-0.046449,-0.047218,-0.009568,-0.043226,-0.047218,0.948867,0.894027,-0.828021,-4.030431,4.546171,-16.934385
1790542463.1208,-0.001828,-0.052813,-0.068103,-0.004150,-0.049937,-0.068103,0.554270,-0.469454,-1.157053,-2.075704,2.724351,-12.587532
1790542463.1352,-0.008095,-0.056085,-0.067067,-0.006911,-0.054241,-0.067067,0.413430,0.250532,-0.700536,2.446998,2.389731,-7.076343
1790542463.1491,-0.002983,-0.069057,-0.084541,-0.004162,-0.064612,-0.084541,0.893016,-0.144064,-0.622831,-1.999048,0.493551,-11.850119
1790542463.1630,0.015730,-0.082233,-0.104672,0.009763,-0.076946,-0.104672,1.030214,-1.063170,-0.775813,-2.190688,1.534591,-8.434735
1790542463.1767,0.028401,-0.088784,-0.113333,0.022810,-0.085233,-0.113333,0.504491,-0.899260,-0.947007,0.223975,1.014071,-8.551168
1790542463.1903,0.035269,-0.096171,-0.114830,0.031531,-0.092890,-0.114830,0.491135,-0.634577,-0.955506,1.565455,0.307651,-8.085434
1790542463.2043,0.043976,-0.100676,-0.120349,0.040242,-0.098340,-0.120349,0.288373,-0.707426,-0.974932,1.143847,0.530731,-8.512357
1790542463.2183,0.030253,-0.103505,-0.126094,0.033250,-0.101956,-0.126094,0.095325,0.920739,-0.746673,1.527127,-0.510309,-15.149070
1790542463.2325,0.010677,-0.092377,-0.142808,0.017448,-0.095250,-0.142808,-0.839565,1.529024,-0.744245,-1.884064,0.270471,-15.731238
1790542463.2466,0.009751,-0.074568,-0.172934,0.012060,-0.080773,-0.172934,-1.349504,0.452080,-0.671396,-5.180270,-0.064149,-12.432287
1790542463.2606,0.004844,-0.063262,-0.191180,0.007009,-0.068515,-0.191180,-1.183167,0.500645,-0.656827,-0.542584,-1.960328,-5.135783
1790542463.2747,-0.017721,-0.043856,-0.193925,-0.010302,-0.051254,-0.193925,-1.288797,1.376042,-0.569408,1.373815,0.753811,-3.272846
1790542463.2888,-0.031068,-0.018814,-0.201339,-0.024838,-0.028546,-0.201339,-1.287583,1.335975,-0.785526,-1.730752,3.653851,-3.893825
1790542463.3026,-0.009528,-0.031361,-0.220793,-0.014121,-0.030517,-0.220793,0.721822,-1.332709,-0.699322,-3.225543,-2.257768,-21.281238
1790542463.3166,-0.008709,-0.037379,-0.194721,-0.010333,-0.035320,-0.194721,0.629547,-0.374751,0.190645,4.708349,4.694891,-11.539630
1790542463.3305,-0.011930,-0.034146,-0.177986,-0.011451,-0.034498,-0.177986,-0.007877,-0.037220,0.633806,1.987063,3.319231,-7.309210
1790542463.3443,-0.001267,-0.046402,-0.169465,-0.004322,-0.042831,-0.169465,0.749747,-0.837339,0.747936,-0.274288,-0.287229,-7.852567
1790542463.3582,-0.001672,-0.059889,-0.176096,-0.002467,-0.054772,-0.176096,0.851735,0.157043,0.467469,-2.152360,-0.398769,-10.258860
1790542463.3724,-0.020593,-0.068509,-0.169853,-0.015155,-0.064388,-0.169853,0.557913,1.254628,0.497823,0.453943,0.270471,-6.377742
1790542463.3868,-0.040804,-0.076447,-0.164148,-0.033109,-0.072829,-0.164148,0.560341,1.368757,0.543960,0.338959,1.311511,-10.724595
1790542463.4006,-0.056283,-0.080801,-0.160501,-0.049331,-0.078409,-0.160501,0.377006,1.180565,0.677516,-0.695896,1.832031,-9.016902
1790542463.4143,-0.064802,-0.080596,-0.157178,-0.060160,-0.079940,-0.157178,0.060115,0.713120,0.652019,-1.079176,2.464091,-10.685784
1790542463.4282,-0.062908,-0.078776,-0.153120,-0.062084,-0.079125,-0.153120,-0.137791,-0.091856,0.609524,-0.504256,1.385871,-10.375294
1790542463.4423,-0.054578,-0.077526,-0.147538,-0.056830,-0.078006,-0.147538,-0.078298,-0.564157,0.547602,-0.427600,1.720491,-11.267951
1790542463.4561,-0.044755,-0.074713,-0.135236,-0.048377,-0.075701,-0.135236,-0.278631,-0.819127,0.673873,1.105519,0.456371,-9.831937
1790542463.4701,-0.040752,-0.073450,-0.114222,-0.043040,-0.074125,-0.114222,-0.284702,-0.555658,0.732152,2.945262,-1.142369,-9.405014
1790542463.4841,-0.036289,-0.071344,-0.093848,-0.038314,-0.072178,-0.093848,-0.355122,-0.643076,0.678730,3.021918,-1.105189,-7.658511
1790542463.4981,-0.028904,-0.064579,-0.079341,-0.031727,-0.066859,-0.079341,-0.559098,-0.808200,0.522105,2.523654,0.196111,-7.309210
1790542463.5120,-0.022393,-0.055495,-0.070546,-0.025194,-0.058904,-0.070546,-0.769144,-0.671002,0.201572,2.676966,-0.287229,-10.258860
1790542463.5265,-0.015415,-0.042835,-0.066502,-0.018349,-0.047656,-0.066502,-0.974334,-0.661289,-0.055826,3.366870,-0.250049,-12.121798
1790542463.5418,-0.013728,-0.030711,-0.070417,-0.015114,-0.035795,-0.070417,-0.854134,-0.298260,-0.258588,3.941790,0.344831,-11.229140
1790542463.5566,-0.024714,-0.036172,-0.078562,-0.021834,-0.036059,-0.078562,0.344224,0.768971,-0.679895,1.987063,1.014071,-15.149070
1790542463.5708,-0.012082,-0.046339,-0.136639,-0.015007,-0.043255,-0.136639,0.910014,-0.323757,-1.255399,-4.298727,2.426911,-6.455364
1790542463.5856,-0.014141,-0.044792,-0.144831,-0.014401,-0.044331,-0.144831,0.377006,0.033201,-0.803738,1.527127,3.839751,-3.272846
1790542463.5998,-0.016086,-0.057007,-0.139988,-0.015581,-0.053204,-0.139988,0.839594,0.063554,-0.412784,1.565455,0.605091,-8.551168
1790542463.6137,0.003919,-0.067435,-0.166515,-0.001931,-0.063165,-0.166515,0.834737,-1.176085,-0.798881,-2.765607,2.166651,-11.190329
1790542463.6278,0.012812,-0.074648,-0.179147,0.008389,-0.071203,-0.179147,0.625905,-0.617579,-0.957934,0.875551,2.352551,-9.443825
1790542463.6417,0.019892,-0.079097,-0.191077,0.016441,-0.076729,-0.191077,0.418287,-0.505878,-1.030782,0.837223,1.906391,-8.046623
1790542463.6554,0.028175,-0.085146,-0.185099,0.024655,-0.082621,-0.185099,0.415858,-0.706212,-0.942150,1.297159,0.493551,-6.338930
1790542463.6694,0.032045,-0.096957,-0.188661,0.029828,-0.092656,-0.188661,0.810454,-0.288547,-0.798881,0.568927,0.456371,-8.784035
1790542463.6833,0.006446,-0.090562,-0.185900,0.013461,-0.091190,-0.185900,-0.566383,1.821632,-0.675039,1.565455,-0.807749,-17.438931
1790542463.6973,0.005166,-0.074083,-0.229594,0.007655,-0.079215,-0.229594,-1.256015,0.494575,-0.683538,-6.445094,-0.621849,-12.859210
1790542463.7113,0.004956,-0.061819,-0.237542,0.005765,-0.067038,-0.237542,-1.107890,0.333094,-0.631330,-3.302199,-2.109048,-8.822846
1790542463.7251,-0.003574,-0.049803,-0.233324,-0.000772,-0.054974,-0.233324,-1.293654,1.000872,-0.536627,-2.267343,-2.666748,-4.087881
1790542463.7391,-0.008971,-0.027803,-0.250906,-0.006511,-0.035954,-0.250906,-1.412640,0.833320,-0.676253,-2.995575,2.017931,-5.213406
1790542463.7531,-0.021097,-0.015813,-0.269501,-0.016721,-0.021855,-0.269501,-1.016829,1.078577,-0.600976,-1.002520,-0.733389,-7.580888
1790542463.7670,-0.001967,-0.022111,-0.272784,-0.006393,-0.022034,-0.272784,0.468066,-1.295071,-0.464992,-0.389272,2.947431,-18.448022
1790542463.7809,-0.002089,-0.027448,-0.263707,-0.003380,-0.025824,-0.263707,0.428000,-0.152563,0.407976,1.680439,2.203831,-10.918651
1790542463.7948,-0.002800,-0.032657,-0.250672,-0.002974,-0.030607,-0.250672,0.373363,-0.089428,0.894847,0.338959,1.311511,-9.094525
1790542463.8089,-0.000446,-0.048039,-0.239927,-0.001205,-0.042809,-0.239927,0.945224,-0.392963,0.906988,1.067191,-0.510309,-6.532986
1790542463.8228,-0.003888,-0.059429,-0.228954,-0.003083,-0.054443,-0.228954,0.846879,-0.048147,0.624093,1.680439,0.753811,-4.864105
1790542463.8368,-0.025008,-0.068024,-0.220038,-0.018431,-0.063950,-0.220038,0.655044,1.289838,0.715154,2.370342,1.571771,-9.094525
1790542463.8507,-0.041233,-0.074770,-0.210851,-0.034392,-0.071524,-0.210851,0.528773,1.140498,0.869350,-0.120976,1.869211,-9.754315
1790542463.8643,-0.053925,-0.075985,-0.201430,-0.048065,-0.074646,-0.201430,0.175458,0.976589,0.943413,-0.887536,2.203831,-7.891378
1790542463.8781,-0.060191,-0.077332,-0.190275,-0.056553,-0.076526,-0.190275,0.100181,0.453294,0.974980,-0.619240,2.129471,-12.005364
1790542463.8931,-0.061849,-0.078450,-0.181529,-0.060260,-0.077873,-0.181529,0.037046,0.137617,0.768576,-0.695896,1.051251,-9.676693
1790542463.9073,-0.050178,-0.079115,-0.171751,-0.053203,-0.078743,-0.171751,0.021262,-0.823984,0.720011,-0.389272,1.423051,-11.733686
1790542463.9214,-0.045382,-0.074317,-0.155729,-0.047729,-0.075645,-0.155729,-0.375762,-0.508307,0.772219,2.025391,1.088431,-10.452916
1790542463.9353,-0.039939,-0.071896,-0.140048,-0.042276,-0.073021,-0.140048,-0.329625,-0.567800,0.823213,1.948735,-0.733389,-10.258860
1790542463.9493,-0.032286,-0.064394,-0.123340,-0.035283,-0.066982,-0.123340,-0.639231,-0.815485,0.666588,2.868606,-0.026969,-8.589979
1790542463.9633,-0.021467,-0.052206,-0.111725,-0.025612,-0.056639,-0.111725,-0.942767,-0.998820,0.433473,2.485326,0.270471,-8.628791
1790542463.9773,-0.013696,-0.038795,-0.104684,-0.017271,-0.044148,-0.104684,-1.033827,-0.821555,0.138436,3.328542,0.158931,-8.395923
1790542463.9912,-0.005456,-0.024776,-0.101440,-0.009001,-0.030587,-0.101440,-1.066609,-0.820341,-0.026687,2.983590,0.382011,-8.318301
1790542464.0051,-0.011441,-0.024874,-0.101532,-0.010709,-0.026588,-0.101532,-0.057657,0.376803,-0.303511,2.676966,0.679451,-16.274595
1790542464.0191,-0.011114,-0.036139,-0.117295,-0.010993,-0.033274,-0.117295,0.835951,0.271173,-0.953077,-3.685479,2.389731,-16.158161
1790542464.0331,-0.002033,-0.046656,-0.135805,-0.004721,-0.042641,-0.135805,0.782529,-0.323757,-1.214118,-2.842263,1.497411,-10.918651
1790542464.0470,-0.008173,-0.052868,-0.155776,-0.007138,-0.049800,-0.155776,0.531202,0.226249,-0.605833,3.865134,1.869211,-8.007811
1790542464.0609,-0.000785,-0.068987,-0.157091,-0.002691,-0.063231,-0.157091,1.084851,-0.352896,-0.605833,-2.152360,-0.250049,-13.208511
1790542464.0749,0.018560,-0.083792,-0.175341,0.012185,-0.077623,-0.175341,1.146772,-1.177299,-0.920295,-2.420655,2.352551,-11.306763
1790542464.0885,0.032172,-0.091220,-0.194391,0.026176,-0.087141,-0.194391,0.602836,-0.838553,-1.090275,-1.194160,1.608951,-8.706413
1790542464.1021,0.037971,-0.097464,-0.205225,0.034433,-0.094367,-0.205225,0.475351,-0.516806,-0.931223,1.527127,1.014071,-8.085434
1790542464.1157,0.048315,-0.108645,-0.206432,0.044151,-0.104361,-0.206432,0.644117,-0.783917,-0.982217,0.722239,-1.179549,-8.434735
1790542464.1297,0.044134,-0.117364,-0.206912,0.044139,-0.113463,-0.206912,0.469280,0.255389,-0.682324,1.028863,-1.700068,-12.393476
1790542464.1444,0.024190,-0.109543,-0.218395,0.030175,-0.110719,-0.218395,-0.587023,1.451319,-0.877800,-1.462456,0.233291,-17.438931
1790542464.1584,0.026068,-0.092136,-0.232737,0.027300,-0.097711,-0.232737,-1.326436,0.211680,-0.880229,-6.521750,-0.621849,-13.169700
1790542464.1725,0.025292,-0.076266,-0.242156,0.025894,-0.082699,-0.242156,-1.422353,0.354948,-0.851089,-2.037376,-1.960328,-5.019350
1790542464.1865,0.014557,-0.056250,-0.251490,0.017958,-0.064185,-0.251490,-1.649397,0.928023,-0.735746,-0.849208,-1.365448,-6.183686
1790542464.2005,0.002635,-0.034400,-0.258038,0.007232,-0.043335,-0.258038,-1.583834,1.107716,-0.882657,-0.964192,0.419191,-4.553616
1790542464.2145,-0.011939,-0.020140,-0.267874,-0.006188,-0.027099,-0.267874,-1.141886,1.309264,-0.763671,-1.270816,-0.361589,-6.261308
1790542464.2284,-0.007727,-0.026699,-0.267102,-0.007265,-0.026819,-0.267102,0.563984,-0.048147,-0.615546,-2.420655,2.612811,-9.870749
1790542464.2426,-0.003360,-0.052369,-0.270462,-0.004531,-0.044704,-0.270462,1.719847,-0.298260,0.010952,-0.120976,-0.175689,-10.724595
1790542464.2568,-0.006824,-0.055910,-0.275286,-0.006136,-0.052548,-0.275286,0.411002,0.087837,0.458970,1.680439,3.505131,-9.094525
1790542464.2706,-0.006019,-0.065280,-0.267521,-0.006054,-0.061461,-0.267521,0.808026,-0.198700,0.792859,0.913879,2.873071,-8.900469
1790542464.2846,0.003610,-0.081176,-0.270469,0.000711,-0.075261,-0.270469,1.127345,-0.273977,0.502679,-2.995575,0.270471,-3.117602
1790542464.2986,-0.015685,-0.089638,-0.276880,-0.010766,-0.085325,-0.276880,0.622262,1.112573,0.526962,2.983590,0.902531,-7.736133
1790542464.3126,-0.030411,-0.098110,-0.267084,-0.024517,-0.094274,-0.267084,0.647759,1.067650,0.479610,-0.274288,1.608951,-11.190329
1790542464.3262,-0.047913,-0.103187,-0.254077,-0.040894,-0.100513,-0.254077,0.424357,1.317763,0.615594,-0.389272,1.646131,-9.637881
1790542464.3398,-0.060328,-0.105052,-0.239905,-0.054498,-0.103690,-0.239905,0.174244,0.931666,0.695728,-0.312616,2.166651,-12.587532
1790542464.3538,-0.051218,-0.101502,-0.223218,-0.052202,-0.102158,-0.223218,-0.174215,-0.604224,0.632592,-0.964192,3.170511,-12.703965
1790542464.3678,-0.040511,-0.097545,-0.213967,-0.044018,-0.098929,-0.213967,-0.310199,-0.823984,0.584027,0.683911,0.716631,-9.249770
1790542464.3820,-0.036239,-0.097095,-0.218204,-0.038573,-0.097645,-0.218204,-0.215496,-0.479167,0.778289,2.063719,-1.402628,-8.589979
1790542464.3966,-0.033841,-0.095990,-0.220535,-0.035261,-0.096486,-0.220535,-0.248277,-0.430602,0.824427,3.251886,-1.365448,-8.201867
1790542464.4113,-0.029647,-0.089422,-0.213389,-0.031331,-0.091542,-0.213389,-0.531173,-0.559301,0.896061,3.405198,-0.064149,-8.784035
1790542464.4253,-0.020841,-0.077726,-0.208290,-0.023988,-0.081871,-0.208290,-0.911199,-0.787559,0.548817,1.872079,-0.026969,-9.327392
1790542464.4396,-0.013344,-0.061274,-0.209549,-0.016537,-0.067453,-0.209549,-1.198951,-0.684357,0.116582,2.255358,0.233291,-8.822846
1790542464.4537,-0.004614,-0.044521,-0.211645,-0.008191,-0.051401,-0.211645,-1.245088,-0.821555,-0.029115,2.868606,0.270471,-8.628791
1790542464.4677,0.002937,-0.030032,-0.217337,-0.000401,-0.036443,-0.217337,-1.010759,-0.701355,-0.065539,1.680439,1.088431,-6.338930
1790542464.4819,-0.023958,-0.040352,-0.225340,-0.016891,-0.039179,-0.225340,0.713323,1.882339,-0.253731,2.140375,1.460231,-16.546273
1790542464.4959,-0.023677,-0.053677,-0.223166,-0.021641,-0.049328,-0.223166,1.044784,0.333094,-1.104845,-5.985158,3.765391,-18.486833
1790542464.5097,-0.014462,-0.054793,-0.233080,-0.016616,-0.053153,-0.233080,0.346652,-0.423317,-0.955506,-1.730752,4.174371,-7.774944
1790542464.5237,-0.018141,-0.067152,-0.238905,-0.017683,-0.062952,-0.238905,0.839594,0.136403,-0.437067,3.060246,0.084571,-10.142427
1790542464.5376,-0.006007,-0.083186,-0.235361,-0.009510,-0.077116,-0.235361,1.164984,-0.549587,-0.631330,-4.567022,0.939711,-10.646972
1790542464.5512,0.015288,-0.095611,-0.243553,0.007849,-0.090062,-0.243553,1.049640,-1.367919,-0.768528,-2.382327,2.910251,-10.181238
1790542464.5649,0.024992,-0.104048,-0.253812,0.019849,-0.099852,-0.253812,0.698753,-0.632149,-0.790382,-0.580912,1.794851,-9.055714
1790542464.5788,0.038157,-0.111995,-0.265804,0.032664,-0.108352,-0.265804,0.568840,-0.837339,-0.909368,-0.964192,0.679451,-8.124245
1790542464.5928,0.042907,-0.122260,-0.275407,0.039834,-0.118088,-0.275407,0.714537,-0.371109,-0.710249,0.568927,0.419191,-9.055714
1790542464.6066,0.019240,-0.117381,-0.288858,0.025418,-0.117593,-0.288858,-0.366049,1.601872,-0.899655,4.286742,1.237151,-19.379490
1790542464.6206,0.010138,-0.099734,-0.300761,0.014722,-0.105092,-0.300761,-1.336149,0.857603,-0.832877,-4.145415,-0.659029,-16.391028
1790542464.6346,0.008375,-0.084997,-0.312553,0.010279,-0.091025,-0.312553,-1.245088,0.425369,-0.796453,-4.068759,-2.443668,-9.870749
1790542464.6492,-0.004598,-0.061840,-0.324001,-0.000135,-0.070595,-0.324001,-1.611759,0.949878,-0.643471,0.070663,0.270471,-4.631238
1790542464.6633,-0.017309,-0.040374,-0.329700,-0.012157,-0.049440,-0.329700,-1.396856,1.134428,-0.757600,-0.849208,1.199971,-4.010259
1790542464.6773,-0.025455,-0.030410,-0.346424,-0.021466,-0.036119,-0.346424,-0.793427,0.932880,-0.808594,-3.187215,-0.398769,-8.784035
1790542464.6914,-0.015466,-0.045063,-0.349774,-0.017266,-0.042380,-0.349774,0.993790,-0.640648,-0.180883,-1.002520,0.716631,-17.089630
1790542464.7054,-0.010580,-0.045739,-0.334557,-0.012586,-0.044731,-0.334557,0.168173,-0.473097,0.519677,1.335487,3.765391,-11.267951
1790542464.7193,-0.009371,-0.055032,-0.329082,-0.010335,-0.051941,-0.329082,0.628333,-0.395391,0.909417,3.136902,0.642271,-9.055714
1790542464.7332,0.000050,-0.067865,-0.314900,-0.003066,-0.063088,-0.314900,0.975578,-0.678287,0.670231,-1.079176,1.869211,-9.909560
1790542464.7471,-0.008811,-0.078087,-0.303978,-0.007087,-0.073587,-0.303978,0.811669,0.446009,0.693299,2.217030,2.241011,-9.870749
1790542464.7611,-0.025142,-0.086336,-0.294135,-0.019726,-0.082511,-0.294135,0.623477,1.021512,0.715154,2.140375,1.943571,-12.277042
1790542464.7752,-0.045931,-0.095477,-0.280130,-0.038069,-0.091587,-0.280130,0.698753,1.361472,0.973766,1.105519,1.608951,-7.891378
1790542464.7887,-0.057575,-0.096371,-0.267211,-0.051724,-0.094936,-0.267211,0.170602,0.878244,1.015047,-0.542584,2.649991,-8.163056
1790542464.8023,-0.061680,-0.098051,-0.259551,-0.058693,-0.097116,-0.259551,0.074684,0.395015,1.015047,-1.539112,0.828171,-8.551168
1790542464.8164,-0.062538,-0.100286,-0.251216,-0.061385,-0.099335,-0.251216,0.102610,0.116977,0.866922,-0.964192,0.642271,-8.861658
1790542464.8303,-0.059730,-0.102948,-0.235590,-0.060226,-0.101864,-0.235590,0.217953,-0.244838,0.800144,0.530599,1.869211,-9.831937
1790542464.8442,-0.049461,-0.097026,-0.228105,-0.052690,-0.098478,-0.228105,-0.483821,-0.724424,0.722439,-0.504256,0.716631,-14.334035
1790542464.8584,-0.044892,-0.086679,-0.215303,-0.047231,-0.090218,-0.215303,-0.839565,-0.575084,0.619237,4.555037,-0.547489,-11.306763
1790542464.8724,-0.035530,-0.072848,-0.203008,-0.039040,-0.078059,-0.203008,-1.086036,-0.947826,0.577956,3.290214,-0.175689,-7.697322
1790542464.8866,-0.020957,-0.056230,-0.192455,-0.026382,-0.062779,-0.192455,-1.167383,-1.438339,0.471111,3.060246,0.567911,-3.971448
1790542464.9013,-0.006224,-0.039205,-0.187006,-0.012271,-0.046277,-0.187006,-1.082393,-1.134804,0.352125,0.645583,1.199971,-4.243126
1790542464.9153,-0.005007,-0.030327,-0.177387,-0.007186,-0.035112,-0.177387,-0.704795,-0.253337,0.179717,1.680439,0.158931,-6.998721
1790542464.9295,-0.016606,-0.042328,-0.185043,-0.013780,-0.040163,-0.185043,0.811669,0.965662,-0.274372,-2.880591,1.088431,-19.651168
1790542464.9435,-0.007822,-0.046419,-0.218649,-0.009609,-0.044542,-0.218649,0.465638,-0.261836,-1.097560,-5.640206,5.401311,-13.790679
1790542464.9574,-0.006008,-0.050399,-0.234688,-0.007088,-0.048642,-0.234688,0.334511,-0.011723,-1.192263,0.492271,1.869211,-11.229140
1790542464.9715,-0.010965,-0.056302,-0.245014,-0.009802,-0.054004,-0.245014,0.612549,0.384088,-0.791596,0.683911,2.426911,-5.756762
1790542464.9854,-0.000211,-0.069037,-0.264004,-0.003088,-0.064527,-0.264004,0.868733,-0.504664,-0.630115,-2.612295,0.047391,-7.930189
1790542464.9994,0.015321,-0.086682,-0.274009,0.009798,-0.080035,-0.274009,1.229333,-1.041315,-0.790382,-0.120976,0.233291,-8.279490
1790542465.0129,0.028544,-0.090871,-0.269427,0.022920,-0.087620,-0.269427,0.565198,-1.037673,-1.017427,1.373815,3.765391,-6.727042
1790542465.0266,0.033445,-0.094932,-0.271161,0.030287,-0.092739,-0.271161,0.302943,-0.436672,-0.996786,2.217030,1.311511,-10.996273
1790542465.0406,0.039799,-0.101582,-0.277013,0.036945,-0.098929,-0.277013,0.398860,-0.448814,-0.800095,0.492271,-0.250049,-12.354665
1790542465.0545,0.018045,-0.098036,-0.286721,0.023715,-0.098304,-0.286721,-0.323554,1.572733,-0.948221,1.412143,-0.101329,-20.233336
1790542465.0685,0.010225,-0.087382,-0.300874,0.014272,-0.090659,-0.300874,-0.839565,0.665769,-0.845019,-1.270816,-0.621849,-18.292777
1790542465.0825,0.010551,-0.074130,-0.354505,0.011667,-0.079089,-0.354505,-1.152813,0.397443,-0.911796,-3.800463,-1.774428,-5.756762
1790542465.0964,0.009068,-0.060819,-0.358444,0.009848,-0.066300,-0.358444,-1.220805,0.511573,-0.848661,-3.302199,-2.257768,-5.096972
1790542465.1104,0.000466,-0.043778,-0.371511,0.003280,-0.050535,-0.371511,-1.270585,0.726476,-0.675039,-0.235960,0.233291,-5.834385
1790542465.1242,-0.009731,-0.029542,-0.384323,-0.005828,-0.035840,-0.384323,-1.092106,1.003300,-0.690823,-2.229015,0.121751,-8.551168
1790542465.1383,-0.011596,-0.016332,-0.391195,-0.009866,-0.022184,-0.391195,-0.905128,0.380445,-0.713891,-2.458983,1.943571,-11.112707
1790542465.1526,0.003035,-0.025346,-0.403093,-0.000835,-0.024397,-0.403093,0.471709,-0.927186,-0.186954,-2.765607,-2.518028,-20.931938
1790542465.1665,0.000372,-0.029285,-0.389032,0.000010,-0.027819,-0.389032,0.344224,-0.061502,0.471111,2.830278,2.055111,-8.589979
1790542465.1805,0.003983,-0.040797,-0.371949,0.002791,-0.036904,-0.371949,0.889374,-0.437886,0.788002,1.105519,2.092291,-8.589979
1790542465.1944,0.004958,-0.053723,-0.364913,0.004308,-0.048677,-0.364913,0.903943,-0.076072,0.584027,-0.695896,0.493551,-7.037532
1790542465.2084,-0.001800,-0.062839,-0.361084,0.000033,-0.058591,-0.361084,0.646545,0.404728,0.338770,0.875551,1.088431,-11.035084
1790542465.2223,-0.016412,-0.073365,-0.356141,-0.011478,-0.068933,-0.356141,0.765531,0.964448,0.389764,1.412143,1.534591,-13.324944
1790542465.2363,-0.033217,-0.079661,-0.344317,-0.026696,-0.076443,-0.344317,0.509347,1.127143,0.616808,0.875551,2.203831,-10.646972
1790542465.2500,-0.046042,-0.080876,-0.329059,-0.040238,-0.079546,-0.329059,0.177886,0.977803,0.722439,-0.887536,2.278191,-8.240679
1790542465.2636,-0.049042,-0.084374,-0.319818,-0.046400,-0.082926,-0.319818,0.239808,0.232320,0.705441,-0.465928,1.014071,-9.016902
1790542465.2775,-0.057025,-0.089206,-0.311836,-0.053838,-0.087322,-0.311836,0.304157,0.516429,0.639877,0.683911,0.530731,-8.434735
1790542465.2914,-0.050506,-0.094983,-0.298641,-0.051506,-0.092685,-0.298641,0.478994,-0.425745,0.568243,-0.964192,2.724351,-11.733686
1790542465.3054,-0.042406,-0.094206,-0.284526,-0.045136,-0.093750,-0.284526,-0.046730,-0.694070,0.585241,2.178703,1.832031,-13.324944
1790542465.3194,-0.034073,-0.086117,-0.274802,-0.037392,-0.088407,-0.274802,-0.658658,-0.813056,0.592526,3.443526,-0.101329,-10.414105
1790542465.3333,-0.028349,-0.078142,-0.271677,-0.031062,-0.081221,-0.271677,-0.732720,-0.703784,0.548817,3.788478,-1.291089,-7.969000
1790542465.3473,-0.014927,-0.063862,-0.264270,-0.019767,-0.069070,-0.264270,-1.043541,-1.122663,0.338770,1.833751,0.642271,-7.852567
1790542465.3612,-0.005498,-0.048469,-0.259866,-0.009779,-0.054649,-0.259866,-1.171025,-0.854337,0.178503,2.025391,0.196111,-7.852567
1790542465.3750,0.004772,-0.033586,-0.257719,0.000407,-0.039905,-0.257719,-1.095749,-0.881048,0.017022,1.757095,0.828171,-8.201867
1790542465.3892,-0.000447,-0.028013,-0.258208,-0.000191,-0.031580,-0.258208,-0.410973,0.205609,-0.002404,3.290214,1.199971,-11.423196
1790542465.4037,-0.016814,-0.036704,-0.269550,-0.011827,-0.035167,-0.269550,0.628333,1.127143,-0.568194,2.217030,2.203831,-13.441378
1790542465.4178,-0.015778,-0.043451,-0.288873,-0.014593,-0.040966,-0.288873,0.546986,0.169185,-1.087847,-1.692424,2.092291,-10.957462
1790542465.4319,-0.009203,-0.049429,-0.302391,-0.010820,-0.046890,-0.302391,0.548200,-0.392963,-0.676253,0.147319,2.501271,-8.357112
1790542465.4464,-0.005887,-0.070700,-0.310277,-0.007367,-0.063557,-0.310277,1.432095,-0.079714,-0.490489,-1.769080,0.307651,-11.617252
1790542465.4606,0.014194,-0.085950,-0.327752,0.007726,-0.079232,-0.327752,1.219620,-1.150588,-0.791596,-2.918919,2.761531,-7.969000
1790542465.4746,0.028199,-0.092617,-0.334458,0.022057,-0.088601,-0.334458,0.725464,-0.986679,-0.953077,0.492271,4.137191,-7.503266
1790542465.4884,0.037339,-0.102402,-0.340897,0.032754,-0.098261,-0.340897,0.636832,-0.677072,-0.917867,0.760567,-0.138509,-8.706413
1790542465.5024,0.049221,-0.109307,-0.342040,0.044281,-0.105993,-0.342040,0.459567,-0.964824,-0.848661,1.488799,0.344831,-6.455364
1790542465.5163,0.039557,-0.113248,-0.354131,0.040974,-0.111072,-0.354131,0.369721,0.649985,-0.804952,1.335487,2.910251,-11.733686
1790542465.5302,0.019560,-0.102448,-0.371107,0.025984,-0.105035,-0.371107,-0.841993,1.569090,-0.762457,-2.688951,-0.324409,-17.361308
1790542465.5445,0.020563,-0.083224,-0.400025,0.022189,-0.089767,-0.400025,-1.463634,0.242033,-0.794025,-5.333582,-1.179549,-11.384385
1790542465.5587,0.020859,-0.065115,-0.411274,0.021258,-0.072511,-0.411274,-1.574121,0.376803,-0.757600,-3.072231,-2.332128,-4.087881
1790542465.5728,0.003892,-0.040107,-0.419332,0.009102,-0.049828,-0.419332,-1.824234,1.165995,-0.597334,0.798895,0.233291,-4.126693
1790542465.5870,-0.010951,-0.015605,-0.432347,-0.004935,-0.025872,-0.432347,-1.619044,1.298337,-0.863231,-1.117504,1.720491,-5.523895
1790542465.6011,-0.023787,-0.005348,-0.445149,-0.018131,-0.011505,-0.445149,-0.696296,1.168424,-0.565766,-2.190688,1.683311,-9.249770
1790542465.6156,-0.005339,-0.034795,-0.457124,-0.009177,-0.027808,-0.457124,1.881328,-1.083810,-0.324152,-4.375383,-2.294948,-17.244875
1790542465.6305,-0.007722,-0.041095,-0.433891,-0.008158,-0.037109,-0.433891,0.593123,0.030772,0.208857,1.718767,3.728211,-8.240679
1790542465.6453,-0.005706,-0.050088,-0.422892,-0.006441,-0.046195,-0.422892,0.610121,-0.233911,0.633806,0.568927,1.571771,-11.888930
1790542465.6596,0.005728,-0.063451,-0.408927,0.002077,-0.058274,-0.408927,0.935511,-0.921115,0.771005,0.568927,1.125611,-9.831937
1790542465.6749,-0.007552,-0.075568,-0.388810,-0.004663,-0.070380,-0.388810,0.850521,0.614775,0.788002,3.175230,1.794851,-8.784035
1790542465.6890,-0.023202,-0.084433,-0.375516,-0.017641,-0.080217,-0.375516,0.676899,0.994801,0.791645,1.220503,1.869211,-10.181238
1790542465.7028,-0.043462,-0.089628,-0.361995,-0.035715,-0.086805,-0.361995,0.465638,1.362686,0.911845,1.028863,2.575631,-9.249770
1790542465.7167,-0.057090,-0.089911,-0.356589,-0.050678,-0.088979,-0.356589,0.026119,1.009371,0.905774,-0.849208,1.720491,-10.530539
1790542465.7309,-0.063884,-0.090542,-0.351937,-0.059922,-0.090073,-0.351937,0.030975,0.516429,0.834140,-1.002520,1.608951,-11.190329
1790542465.7450,-0.051087,-0.089616,-0.342197,-0.053738,-0.089753,-0.342197,-0.097724,-0.918687,0.829283,-0.350944,1.683311,-14.178791
1790542465.7590,-0.042988,-0.082822,-0.332694,-0.046213,-0.084902,-0.332694,-0.574882,-0.641862,0.749150,0.568927,0.084571,-10.569350
1790542465.7732,-0.036822,-0.078454,-0.319853,-0.039640,-0.080388,-0.319853,-0.525102,-0.596939,0.926415,1.795423,-2.034688,-9.676693
1790542465.7873,-0.035389,-0.073235,-0.292136,-0.036664,-0.075381,-0.292136,-0.503247,-0.511949,0.955554,4.095102,-0.547489,-6.067252
1790542465.8013,-0.021623,-0.064054,-0.273506,-0.026135,-0.067452,-0.273506,-0.754575,-1.185798,0.988336,1.143847,0.010211,-5.873196
1790542465.8154,-0.007374,-0.052875,-0.257732,-0.013003,-0.057248,-0.257732,-0.793427,-1.191869,0.939770,0.837223,1.014071,-6.494175
1790542465.8297,-0.001865,-0.036536,-0.243835,-0.005206,-0.042750,-0.243835,-1.218377,-0.666145,0.665374,3.290214,0.047391,-9.288581
1790542465.8436,-0.011247,-0.031269,-0.235672,-0.009435,-0.034713,-0.235672,-0.410973,0.494575,0.499037,3.290214,1.385871,-15.420749
1790542465.8575,-0.018128,-0.044432,-0.232980,-0.015520,-0.041516,-0.232980,0.817739,0.498217,-0.213665,1.297159,-1.774428,-18.874945
1790542465.8715,-0.015138,-0.048702,-0.254265,-0.015252,-0.046546,-0.254265,0.423143,-0.070001,-0.922724,-0.350944,2.575631,-9.405014
1790542465.8857,-0.017116,-0.057498,-0.265614,-0.016557,-0.054212,-0.265614,0.662329,0.180112,-0.689608,0.683911,1.199971,-7.930189
1790542465.9001,-0.011181,-0.071922,-0.278849,-0.012794,-0.066609,-0.278849,1.090921,-0.334684,-0.455279,-0.350944,2.129471,-9.327392
1790542465.9146,0.002850,-0.091238,-0.291785,-0.001843,-0.083850,-0.291785,1.381101,-0.864050,-0.662897,-0.964192,1.460231,-10.879840
1790542465.9283,0.019609,-0.100084,-0.319637,0.013174,-0.095214,-0.319637,0.894230,-1.170014,-0.926366,0.147319,3.653851,-7.037532
1790542465.9419,0.029451,-0.106026,-0.329986,0.024568,-0.102782,-0.329986,0.556699,-0.783917,-0.954291,1.373815,2.315371,-8.085434
1790542465.9556,0.037941,-0.109708,-0.345247,0.033929,-0.107630,-0.345247,0.351509,-0.610295,-0.936079,0.300631,1.943571,-8.628791
1790542465.9695,0.024892,-0.117056,-0.331490,0.027603,-0.114228,-0.331490,0.362436,0.815108,-0.858374,3.750150,-2.629568,-15.149070
1790542465.9834,0.008943,-0.109275,-0.343008,0.014541,-0.110761,-0.343008,-0.606449,1.221846,-0.836520,-0.619240,-0.026969,-14.334035
1790542465.9974,0.009885,-0.098944,-0.369182,0.011282,-0.102489,-0.369182,-0.855349,0.203181,-1.010142,-4.222071,-1.625708,-11.772497
1790542466.0113,0.008499,-0.083465,-0.388787,0.009334,-0.089172,-0.388787,-1.300939,0.402300,-0.904512,-2.765607,-1.774428,-6.494175
1790542466.0253,0.005846,-0.062378,-0.410609,0.006893,-0.070416,-0.410609,-1.651826,0.636629,-0.928794,-3.762135,-1.030829,-5.174595
1790542466.0393,-0.002099,-0.039563,-0.424399,0.000599,-0.048819,-0.424399,-1.762313,0.714334,-0.811023,-0.427600,-0.584669,-6.106063
1790542466.0531,-0.009110,-0.020390,-0.435190,-0.006198,-0.028919,-0.435190,-1.472133,0.737403,-0.658041,-1.462456,-0.101329,-7.115154
1790542466.0671,-0.019517,-0.007678,-0.449107,-0.015521,-0.014050,-0.449107,-0.992547,0.913454,-0.722390,-0.772552,-0.101329,-14.334035
1790542466.0811,-0.001583,-0.020121,-0.457002,-0.005765,-0.018299,-0.457002,0.736392,-1.213723,-0.494132,-0.082648,-2.443668,-21.281238
1790542466.0957,0.002767,-0.033509,-0.459058,0.000208,-0.028946,-0.459058,0.856592,-0.355325,0.048590,0.760567,0.233291,-9.327392
1790542466.1099,0.001472,-0.033740,-0.438581,0.001092,-0.032302,-0.438581,0.199741,0.042914,0.593740,-0.274288,2.984611,-6.338930
1790542466.1240,0.014934,-0.041612,-0.429357,0.010782,-0.038819,-0.429357,0.486278,-0.701355,0.061946,-2.573967,-0.064149,-5.213406
1790542466.1379,0.004895,-0.050844,-0.428060,0.006661,-0.047237,-0.428060,0.695111,0.511573,0.348483,3.635166,2.055111,-12.277042
1790542466.1520,-0.006729,-0.060518,-0.422663,-0.002712,-0.056534,-0.422663,0.704824,0.852747,0.308416,-1.079176,1.869211,-13.635434
1790542466.1659,-0.017699,-0.062331,-0.410120,-0.013203,-0.060592,-0.410120,0.305371,0.755615,0.312059,0.262303,3.096151,-7.464455
1790542466.1796,-0.024763,-0.058295,-0.398881,-0.021295,-0.058984,-0.398881,-0.147504,0.522500,0.411618,-0.389272,2.984611,-8.007811
1790542466.1937,-0.028812,-0.057736,-0.392351,-0.026557,-0.058110,-0.392351,-0.071013,0.201966,0.516035,0.607255,0.567911,-6.843476
1790542466.2076,-0.032078,-0.056957,-0.387092,-0.030421,-0.057303,-0.387092,-0.089225,0.209251,0.495394,-0.044320,0.753811,-9.094525
1790542466.2216,-0.032242,-0.053634,-0.375551,-0.031696,-0.054734,-0.375551,-0.205783,-0.062717,0.620451,0.453943,1.832031,-8.978091
1790542466.2356,-0.025177,-0.048447,-0.361381,-0.027132,-0.050333,-0.361381,-0.223995,-0.598153,0.497823,1.067191,4.732071,-11.539630
1790542466.2496,-0.011419,-0.044238,-0.350823,-0.016133,-0.046067,-0.350823,-0.323554,-1.097166,0.547602,1.105519,1.385871,-12.548721
1790542466.2635,-0.004167,-0.038104,-0.342175,-0.007756,-0.040493,-0.342175,-0.466823,-0.796058,0.486895,3.980118,1.051251,-10.763406
1790542466.2776,0.009140,-0.031044,-0.335537,0.004071,-0.033879,-0.335537,-0.556670,-1.071669,0.301132,1.220503,0.456371,-9.793126
1790542466.2915,-0.002359,-0.028982,-0.343156,-0.000430,-0.030451,-0.343156,-0.206997,0.550425,-0.020616,5.513237,0.270471,-10.336483
1790542466.3054,-0.002345,-0.030615,-0.356239,-0.001771,-0.030566,-0.356239,0.192456,0.171613,-0.509915,-1.730752,2.687171,-10.608161
1790542466.3193,-0.001622,-0.033754,-0.372341,-0.001667,-0.032798,-0.372341,0.288373,0.126690,-0.959148,-0.772552,2.278191,-10.181238
1790542466.3334,-0.003627,-0.037190,-0.391693,-0.003039,-0.035872,-0.391693,0.319941,0.348878,-1.152197,-0.849208,2.464091,-10.491728
1790542466.3474,-0.001582,-0.039812,-0.402817,-0.002019,-0.038630,-0.402817,0.238593,-0.029935,-0.726033,-0.274288,1.683311,-8.395923
1790542466.3612,0.003187,-0.047756,-0.415096,0.001625,-0.045018,-0.415096,0.531202,-0.218127,-0.764885,-0.695896,0.530731,-13.130889
1790542466.3750,0.011893,-0.054387,-0.432374,0.008813,-0.051576,-0.432374,0.500848,-0.468240,-1.257827,-0.465928,1.608951,-11.073895
1790542466.3886,0.021913,-0.060504,-0.450295,0.017983,-0.057826,-0.450295,0.471709,-0.601796,-1.484871,0.108991,1.385871,-8.667602
1790542466.4024,0.023621,-0.062506,-0.456943,0.021929,-0.061102,-0.456943,0.221596,-0.224197,-1.267540,2.332014,1.683311,-6.028441
1790542466.4167,0.031603,-0.070134,-0.472383,0.028701,-0.067424,-0.472383,0.481422,-0.453670,-1.187407,-0.082648,0.456371,-9.793126
1790542466.4307,0.041600,-0.077639,-0.487200,0.037730,-0.074575,-0.487200,0.641689,-0.690428,-1.125485,0.875551,3.058971,-9.405014
1790542466.4447,0.025951,-0.082285,-0.494249,0.029485,-0.079972,-0.494249,0.197313,1.054294,-1.061136,3.405198,-1.253909,-14.489280
1790542466.4587,0.013633,-0.066481,-0.522330,0.018388,-0.070528,-0.522330,-1.154027,1.141712,-0.944578,-3.608823,1.088431,-12.703965
1790542466.4727,0.014326,-0.050135,-0.550469,0.015545,-0.056253,-0.550469,-1.317937,0.268744,-0.880229,-3.800463,-1.365448,-9.560259
1790542466.4866,0.008910,-0.036758,-0.570821,0.010900,-0.042606,-0.570821,-1.217163,0.710692,-0.858374,-2.343999,-2.071868,-5.950818
1790542466.5005,-0.006370,-0.020253,-0.585074,-0.001189,-0.026959,-0.585074,-1.358003,1.147783,-0.702964,0.683911,-0.807749,-5.873196
1790542466.5143,-0.008318,-0.011889,-0.594011,-0.006179,-0.016410,-0.594011,-0.674441,0.341593,-0.631330,-1.730752,0.196111,-11.151518
1790542466.5283,-0.005106,-0.030082,-0.598750,-0.005428,-0.025980,-0.598750,1.183196,-0.195058,-0.157814,-0.235960,-1.253909,-18.370399
1790542466.5421,-0.016620,-0.034293,-0.587328,-0.013262,-0.031799,-0.587328,0.370935,0.694908,0.741865,0.990535,2.538451,-9.676693
1790542466.5561,-0.012553,-0.043090,-0.570580,-0.012766,-0.039702,-0.570580,0.559127,-0.384464,1.152245,-0.810880,0.530731,-11.384385
1790542466.5700,0.004162,-0.053534,-0.552922,-0.000916,-0.049384,-0.552922,0.682969,-1.202796,0.959197,-1.079176,0.121751,-5.679140
1790542466.5840,0.003693,-0.063668,-0.538085,0.002310,-0.059383,-0.538085,0.623477,0.174041,0.676301,-1.884064,-0.398769,-5.174595
1790542466.5978,-0.011251,-0.071459,-0.532753,-0.007183,-0.067836,-0.532753,0.509347,0.999658,0.755221,0.377287,0.233291,-11.267951
1790542466.6118,-0.022777,-0.079015,-0.517845,-0.018099,-0.075661,-0.517845,0.555485,0.758044,0.914273,0.147319,1.646131,-11.617252
1790542466.6254,-0.042105,-0.078841,-0.493024,-0.034904,-0.077887,-0.493024,0.136606,1.240058,1.056328,1.987063,3.728211,-9.133336
1790542466.6390,-0.047182,-0.079487,-0.475254,-0.043498,-0.079007,-0.475254,0.052830,0.399872,0.979837,-1.347472,1.869211,-10.841028
1790542466.6528,-0.048908,-0.081907,-0.458810,-0.047285,-0.081037,-0.458810,0.180315,0.062340,0.905774,0.377287,1.794851,-10.530539
1790542466.6672,-0.042172,-0.081562,-0.450109,-0.043706,-0.081404,-0.450109,-0.102580,-0.567800,0.778289,1.258831,0.307651,-12.315854
1790542466.6813,-0.036890,-0.078894,-0.448597,-0.038935,-0.079647,-0.448597,-0.293201,-0.626078,0.723653,3.711822,-0.324409,-9.870749
1790542466.6952,-0.033612,-0.074450,-0.446536,-0.035209,-0.076009,-0.446536,-0.453468,-0.549587,0.779504,3.673494,-0.696209,-7.658511
1790542466.7092,-0.028794,-0.068507,-0.438868,-0.030718,-0.070758,-0.438868,-0.482607,-0.674644,0.738223,3.251886,0.270471,-6.338930
1790542466.7232,-0.018173,-0.060397,-0.432555,-0.021937,-0.063505,-0.432555,-0.639231,-0.956325,0.513606,1.987063,0.270471,-7.619700
1790542466.7372,-0.011779,-0.049426,-0.429653,-0.014826,-0.053650,-0.429653,-0.843207,-0.677072,0.244067,3.596838,0.233291,-10.336483
1790542466.7512,-0.000757,-0.031917,-0.432056,-0.004978,-0.038437,-0.432056,-1.240232,-0.964824,-0.024259,3.098574,1.423051,-9.870749
1790542466.7652,-0.009195,-0.027691,-0.427248,-0.007930,-0.030915,-0.427248,-0.461966,0.492146,-0.356933,4.171758,-1.997508,-13.751868
1790542466.7791,-0.016512,-0.038698,-0.428337,-0.013937,-0.036363,-0.428337,0.777673,0.834534,-0.949435,-4.183743,1.088431,-15.575993
1790542466.7930,-0.006597,-0.053868,-0.453669,-0.008799,-0.048617,-0.453669,1.217192,-0.612723,-1.263898,0.875551,2.910251,-10.103616
1790542466.8069,-0.010149,-0.059086,-0.483412,-0.009744,-0.055945,-0.483412,0.619834,0.073267,-0.547554,2.255358,2.538451,-4.398371
1790542466.8209,-0.007199,-0.075048,-0.485628,-0.007963,-0.069317,-0.485628,1.098206,-0.148921,-0.513558,-0.044320,0.121751,-9.133336
1790542466.8350,0.011198,-0.089276,-0.502640,0.005450,-0.083289,-0.502640,1.133416,-1.174871,-0.843804,-1.194160,2.835891,-10.142427
1790542466.8486,0.020484,-0.097085,-0.522350,0.015973,-0.092946,-0.522350,0.695111,-0.697713,-1.056279,0.990535,2.129471,-7.658511
1790542466.8622,0.031471,-0.101932,-0.537029,0.026822,-0.099236,-0.537029,0.430428,-0.868907,-1.046566,1.757095,2.017931,-9.133336
1790542466.8758,0.042324,-0.109157,-0.542106,0.037673,-0.106180,-0.542106,0.514204,-0.899260,-0.962790,1.565455,0.567911,-7.115154
1790542466.8899,0.027975,-0.115181,-0.520995,0.030885,-0.112481,-0.520995,0.159674,0.982660,-1.143698,2.676966,-5.418068,-16.623896
1790542466.9040,0.012749,-0.100751,-0.530721,0.018190,-0.104270,-0.530721,-1.050825,1.190278,-0.753958,-2.458983,0.790991,-21.281238
1790542466.9184,0.017946,-0.083514,-0.531879,0.018019,-0.089741,-0.531879,-1.368931,-0.026292,-0.847447,-4.873646,-2.220588,-8.939280
1790542466.9324,0.023758,-0.069611,-0.537221,0.022036,-0.075650,-0.537221,-1.212306,-0.093070,-0.707821,-3.877119,-2.294948,-7.580888
1790542466.9464,0.010180,-0.049904,-0.543542,0.013737,-0.057628,-0.543542,-1.529197,1.122286,-0.762457,-0.772552,-0.510309,-6.998721
1790542466.9602,0.003733,-0.033900,-0.553541,0.006734,-0.041018,-0.553541,-1.314294,0.806609,-0.716320,-3.838791,-1.328269,-8.861658
1790542466.9742,-0.005253,-0.021072,-0.559629,-0.001657,-0.027056,-0.559629,-0.988904,0.941379,-0.665326,-1.999048,0.047391,-6.106063
1790542466.9881,0.007529,-0.021322,-0.560288,0.004773,-0.023042,-0.560288,-0.035803,-0.734137,-0.491703,-3.992103,0.976891,-20.116903
1790542467.0021,0.006141,-0.023931,-0.589414,0.005731,-0.023664,-0.589414,0.249521,-0.153777,0.180931,3.750150,2.426911,-9.599070
1790542467.0160,0.009187,-0.031232,-0.584415,0.008150,-0.028961,-0.584415,0.526345,-0.386892,0.699370,0.913879,1.125611,-8.434735
1790542467.0300,0.006288,-0.041244,-0.603656,0.006847,-0.037559,-0.603656,0.963436,-0.173203,0.836568,2.102047,2.352551,-3.583336
1790542467.0438,0.002369,-0.047553,-0.603617,0.003712,-0.044555,-0.603617,0.579767,0.157043,0.465041,1.182175,3.096151,-9.288581
1790542467.0578,-0.007544,-0.054434,-0.600763,-0.004167,-0.051471,-0.600763,0.520274,0.562567,0.480825,1.948735,1.832031,-11.151518
1790542467.0716,-0.021164,-0.060796,-0.599051,-0.016065,-0.057998,-0.599051,0.594337,0.886743,0.635021,0.760567,2.835891,-8.046623
1790542467.0852,-0.034388,-0.060386,-0.594116,-0.028891,-0.059670,-0.594116,0.111109,0.879458,0.805000,0.607255,2.984611,-7.697322
1790542467.0988,-0.035012,-0.062289,-0.583973,-0.033176,-0.061503,-0.583973,0.177886,0.056269,0.849924,-0.964192,1.832031,-8.163056
1790542467.1126,-0.037916,-0.063366,-0.574458,-0.036494,-0.062807,-0.574458,0.063757,0.135189,0.777075,0.338959,1.162791,-8.745224
1790542467.1266,-0.041413,-0.065447,-0.564645,-0.039938,-0.064655,-0.564645,0.135391,0.166756,0.800144,0.530599,1.311511,-9.521448
1790542467.1406,-0.039871,-0.065727,-0.556563,-0.039891,-0.065405,-0.556563,0.012763,-0.171989,0.652019,0.415615,1.385871,-9.909560
1790542467.1545,-0.026131,-0.067020,-0.541384,-0.030259,-0.066536,-0.541384,0.022476,-1.082596,0.828069,0.645583,0.642271,-14.644525
1790542467.1689,-0.014869,-0.055459,-0.526694,-0.019486,-0.058782,-0.526694,-0.800712,-0.974537,0.622879,2.446998,1.608951,-10.452916
1790542467.1830,-0.009407,-0.043807,-0.496586,-0.012431,-0.048300,-0.496586,-0.958551,-0.633363,0.602239,3.021918,-0.696209,-9.560259
1790542467.1969,-0.003455,-0.032745,-0.467431,-0.006148,-0.037412,-0.467431,-0.933054,-0.766919,0.288990,3.290214,-0.584669,-5.640329
1790542467.2109,0.001289,-0.021570,-0.482909,-0.000942,-0.026323,-0.482909,-0.631946,-0.452456,0.282919,0.990535,3.170511,-7.348021
1790542467.2248,-0.013730,-0.029454,-0.463692,-0.009894,-0.028514,-0.463692,0.391575,0.994801,-0.258588,3.558510,-2.109048,-14.489280
1790542467.2387,-0.013188,-0.032996,-0.486758,-0.012199,-0.031651,-0.486758,0.351509,0.211680,-1.030782,-2.114032,3.096151,-12.277042
1790542467.2527,-0.008357,-0.035791,-0.504730,-0.009510,-0.034549,-0.504730,0.242236,-0.174418,-1.146126,-0.197632,1.311511,-7.969000
1790542467.2667,-0.013462,-0.044657,-0.538410,-0.012276,-0.041624,-0.538410,0.874804,0.374375,-0.608261,0.760567,2.538451,-4.864105
1790542467.2806,-0.008513,-0.060859,-0.540426,-0.009642,-0.055089,-0.540426,1.104277,-0.159848,-0.732103,-2.075704,-0.026969,-11.888930
1790542467.2945,0.008363,-0.072822,-0.562484,0.002962,-0.067502,-0.562484,0.954937,-0.979394,-1.072063,-2.343999,2.352551,-10.025993
1790542467.3082,0.016169,-0.073816,-0.586766,0.012207,-0.071922,-0.586766,0.255591,-0.533804,-1.187407,0.875551,3.356411,-8.085434
1790542467.3218,0.020838,-0.076457,-0.595547,0.018249,-0.075097,-0.595547,0.149961,-0.303117,-1.153411,0.798895,0.419191,-9.521448
1790542467.3353,0.030558,-0.081166,-0.604687,0.026865,-0.079345,-0.604687,0.282303,-0.632149,-1.096346,-0.120976,0.121751,-8.512357
1790542467.3494,0.038419,-0.087389,-0.617773,0.034953,-0.084976,-0.617773,0.420715,-0.518020,-1.078134,0.300631,0.679451,-7.658511
1790542467.3632,0.023772,-0.093427,-0.607763,0.027126,-0.090892,-0.607763,0.258020,1.036082,-0.843804,1.718767,-2.257768,-13.441378
1790542467.3772,0.005980,-0.079172,-0.633162,0.012324,-0.082688,-0.633162,-0.928197,1.427036,-0.794025,-1.922392,3.021791,-12.626343
1790542467.3921,0.004370,-0.062177,-0.645004,0.006756,-0.068331,-0.645004,-1.181953,0.448437,-0.780669,-5.256926,0.158931,-10.064805
1790542467.4063,-0.000387,-0.049049,-0.639245,0.001756,-0.054834,-0.639245,-1.134601,0.671839,-0.650756,-3.378855,-1.997508,-6.765853
1790542467.4203,-0.005685,-0.033099,-0.645770,-0.003453,-0.039620,-0.645770,-1.257230,0.651199,-0.530556,-2.573967,-0.733389,-7.425644
1790542467.4350,-0.008527,-0.021462,-0.652427,-0.007004,-0.026909,-0.652427,-0.906342,0.505502,-0.397000,-3.723807,-0.696209,-7.969000
1790542467.4491,-0.002970,-0.015656,-0.655452,-0.004180,-0.019032,-0.655452,-0.413401,-0.136779,-0.325366,-5.026958,1.906391,-13.674245
1790542467.4632,0.003067,-0.021264,-0.652060,0.000893,-0.020594,-0.652060,0.225238,-0.505878,0.551245,-0.197632,-2.183408,-15.614805
1790542467.4772,0.008477,-0.030073,-0.636092,0.006202,-0.027230,-0.636092,0.567626,-0.401462,0.953126,-2.267343,0.382011,-11.073895
1790542467.4912,0.015294,-0.038474,-0.609989,0.012566,-0.035101,-0.609989,0.822596,-0.501022,0.991978,-0.925864,2.203831,-4.010259
1790542467.5052,0.016674,-0.043175,-0.603749,0.015442,-0.040753,-0.603749,0.455925,0.130332,0.444400,-2.765607,1.720491,-4.825294
1790542467.5192,0.004926,-0.050535,-0.600353,0.008081,-0.047601,-0.600353,0.505705,0.747116,0.484467,0.990535,0.976891,-13.014455
1790542467.5331,-0.008419,-0.059487,-0.591682,-0.003469,-0.055921,-0.591682,0.656258,0.884314,0.632592,0.338959,1.423051,-10.530539
1790542467.5468,-0.025694,-0.061630,-0.571756,-0.019026,-0.059917,-0.571756,0.298086,1.091933,0.942199,1.412143,3.207691,-8.395923
1790542467.5606,-0.030116,-0.065637,-0.559362,-0.026789,-0.063921,-0.559362,0.299301,0.316096,0.967696,-0.925864,1.385871,-8.240679
1790542467.5746,-0.032068,-0.069262,-0.547234,-0.030484,-0.067660,-0.547234,0.219167,0.062340,0.911845,0.108991,0.493551,-5.523895
1790542467.5886,-0.040661,-0.074419,-0.532514,-0.037608,-0.072391,-0.532514,0.344224,0.433868,0.956768,1.872079,1.014071,-8.978091
1790542467.6028,-0.030347,-0.073272,-0.517986,-0.032525,-0.073008,-0.517986,-0.067370,-0.769347,0.842639,-0.350944,2.538451,-14.101168
1790542467.6168,-0.018178,-0.064865,-0.503394,-0.022482,-0.067308,-0.503394,-0.596736,-1.021889,0.722439,3.098574,2.761531,-19.030189
1790542467.6308,-0.014636,-0.051288,-0.511330,-0.016990,-0.056094,-0.511330,-1.133387,-0.606652,0.602239,5.513237,-1.625708,-9.637881
1790542467.6448,-0.010678,-0.035818,-0.509166,-0.012571,-0.041901,-0.509166,-1.201379,-0.633363,0.348483,3.366870,-0.250049,-5.562707
1790542467.6586,0.007077,-0.022492,-0.507495,0.001183,-0.028315,-0.507495,-1.041112,-1.189440,0.063160,-0.964192,0.084571,-5.096972
1790542467.6727,0.016998,-0.013796,-0.501239,0.012253,-0.018151,-0.501239,-0.663514,-0.747493,0.369123,-0.350944,0.567911,-7.542077
1790542467.6875,0.009530,-0.014382,-0.498492,0.010347,-0.015513,-0.498492,0.064971,0.414441,0.256208,1.373815,2.798711,-14.334035
1790542467.7034,-0.001214,-0.021510,-0.507386,0.002254,-0.019711,-0.507386,0.493563,0.664555,-0.449208,2.485326,3.282051,-14.334035
1790542467.7182,-0.004992,-0.027732,-0.523168,-0.002818,-0.025326,-0.523168,0.438927,0.422940,-1.005285,-0.350944,1.869211,-12.432287
1790542467.7329,-0.006201,-0.036938,-0.534118,-0.005186,-0.033454,-0.534118,0.602836,0.118191,-0.762457,1.412143,0.790991,-11.035084
1790542467.7480,0.000631,-0.049733,-0.541020,-0.001114,-0.044850,-0.541020,0.833523,-0.309187,-0.483204,-1.002520,0.530731,-6.649420
1790542467.7622,0.011561,-0.068276,-0.547689,0.007758,-0.061248,-0.547689,1.266972,-0.697713,-0.548768,-0.350944,0.344831,-10.569350
1790542467.7758,0.032470,-0.074963,-0.557379,0.025056,-0.070848,-0.557379,0.638046,-1.359420,-0.787954,-1.730752,3.058971,-8.357112
1790542467.7895,0.038073,-0.077208,-0.566793,0.034168,-0.075300,-0.566793,0.139034,-0.520448,-0.831663,2.676966,0.828171,-9.948371
1790542467.8036,0.045459,-0.081286,-0.577822,0.042072,-0.079490,-0.577822,0.220381,-0.501022,-0.877800,0.492271,0.196111,-9.987182
1790542467.8175,0.054332,-0.081885,-0.591694,0.050654,-0.081167,-0.591694,0.176672,-0.556872,-0.812237,-0.772552,3.839751,-10.258860
1790542467.8316,0.038994,-0.086943,-0.601355,0.042492,-0.085210,-0.601355,0.202169,1.066436,-0.837734,1.642111,-1.551348,-12.432287
1790542467.8456,0.030791,-0.075144,-0.613865,0.034301,-0.078164,-0.613865,-0.869918,0.767757,-0.699322,-3.263871,1.125611,-14.334035
1790542467.8596,0.026624,-0.061032,-0.626126,0.028927,-0.066171,-0.626126,-1.194094,0.534641,-0.681109,-3.110559,-1.960328,-9.909560
1790542467.8736,0.023614,-0.049152,-0.634273,0.025208,-0.054258,-0.634273,-1.109104,0.477577,-0.350863,-2.727279,-2.294948,-6.300119
1790542467.8875,0.017669,-0.030613,-0.633961,0.019931,-0.037706,-0.633961,-1.368931,0.670625,-0.281657,-1.960720,0.382011,-5.368651
1790542467.9016,0.005451,-0.014969,-0.637099,0.009795,-0.021790,-0.637099,-1.093320,0.968090,-0.276800,-0.619240,1.311511,-7.231588
1790542467.9157,0.014190,-0.021281,-0.641213,0.012872,-0.021434,-0.641213,0.345438,-0.429387,-0.210022,-5.410238,-0.621849,-18.448022
1790542467.9303,0.021856,-0.033375,-0.636339,0.019160,-0.029793,-0.636339,0.761889,-0.593297,0.588883,-0.925864,0.121751,-18.991378
1790542467.9446,0.018813,-0.041679,-0.625299,0.018917,-0.038113,-0.625299,0.594337,-0.011723,1.078182,1.182175,1.088431,-8.706413
1790542467.9585,0.025771,-0.048665,-0.599125,0.023715,-0.045500,-0.599125,0.631976,-0.445171,0.761291,-1.769080,2.017931,-6.377742
1790542467.9724,0.020909,-0.056094,-0.596605,0.021751,-0.052916,-0.596605,0.534844,0.157043,0.613166,2.255358,1.162791,-11.772497
1790542467.9864,0.006508,-0.067799,-0.592218,0.011081,-0.063334,-0.592218,0.821382,0.894027,0.684800,1.527127,0.865351,-13.169700
1790542468.0000,-0.012629,-0.079148,-0.579564,-0.005516,-0.074404,-0.579564,0.880875,1.337189,0.851138,0.223975,1.571771,-9.366203
1790542468.0136,-0.026286,-0.080114,-0.560028,-0.020055,-0.078401,-0.560028,0.194884,0.963234,0.894847,-0.159304,2.873071,-8.822846
1790542468.0276,-0.025513,-0.083213,-0.545321,-0.023875,-0.081770,-0.545321,0.196099,-0.078500,0.974980,-0.580912,0.865351,-9.249770
1790542468.0415,-0.034270,-0.085619,-0.529672,-0.031151,-0.084464,-0.529672,0.215525,0.518858,0.899704,0.760567,1.385871,-6.882287
1790542468.0555,-0.036513,-0.090565,-0.518979,-0.034905,-0.088735,-0.518979,0.307800,0.057484,0.843853,1.373815,0.716631,-12.742777
1790542468.0693,-0.018835,-0.088489,-0.507653,-0.023656,-0.088563,-0.507653,-0.206997,-1.341208,0.824427,0.338959,0.567911,-15.575993
1790542468.0832,-0.015003,-0.077579,-0.508145,-0.017599,-0.080874,-0.508145,-0.857777,-0.548373,0.605881,5.973173,-0.175689,-14.528091
1790542468.0972,-0.010510,-0.064763,-0.516549,-0.012637,-0.069596,-0.516549,-1.067823,-0.646719,0.263493,4.171758,-1.291089,-7.076343
1790542468.1111,0.001771,-0.047436,-0.516485,-0.002551,-0.054084,-0.516485,-1.288797,-1.010961,0.082586,1.028863,0.270471,-5.368651
1790542468.1249,0.019816,-0.033187,-0.515032,0.013106,-0.039456,-0.515032,-1.087250,-1.488119,0.122653,1.143847,0.158931,-4.631238
1790542468.1389,0.036499,-0.028802,-0.511468,0.029481,-0.031998,-0.511468,-0.310199,-1.329067,0.261065,1.105519,1.088431,-8.784035
1790542468.1528,0.017632,-0.040772,-0.515762,0.021187,-0.038140,-0.515762,0.783743,1.130785,-0.142030,8.081212,-0.175689,-17.788231
1790542468.1667,0.014906,-0.043963,-0.529364,0.016790,-0.042216,-0.529364,0.332082,0.359805,-0.800095,-1.845736,4.806431,-15.381938
1790542468.1810,0.017455,-0.048209,-0.548094,0.017256,-0.046411,-0.548094,0.296872,-0.074858,-1.217760,0.722239,1.720491,-12.742777
1790542468.1950,0.009442,-0.061049,-0.556646,0.011786,-0.056658,-0.556646,0.787386,0.686409,-1.086633,0.108991,-0.696209,-7.580888
1790542468.2090,0.015906,-0.072990,-0.566778,0.014670,-0.068090,-0.566778,0.985291,-0.250909,-0.780669,-1.347472,1.794851,-5.329839
1790542468.2230,0.029496,-0.085519,-0.575188,0.025048,-0.080290,-0.575188,0.912442,-0.853123,-0.727247,-1.232488,1.237151,-10.025993
1790542468.2366,0.041938,-0.093810,-0.590840,0.036871,-0.089754,-0.590840,0.672042,-0.862836,-0.998001,-0.005993,1.757671,-8.046623
1790542468.2503,0.048918,-0.097821,-0.609336,0.045304,-0.095401,-0.609336,0.364864,-0.537446,-1.143698,1.220503,2.464091,-9.676693
1790542468.2643,0.055037,-0.099493,-0.625707,0.052117,-0.098265,-0.625707,0.131749,-0.452456,-1.081776,0.837223,1.460231,-8.822846
1790542468.2783,0.040289,-0.103024,-0.625295,0.043838,-0.101597,-0.625295,0.043117,0.918310,-1.144912,4.248414,-2.592388,-12.432287
1790542468.2922,0.031295,-0.090731,-0.639346,0.035058,-0.093990,-0.639346,-0.929411,0.851532,-1.099988,-4.030431,0.902531,-16.817952
1790542468.3062,0.028728,-0.079292,-0.639808,0.030627,-0.083701,-0.639808,-1.053254,0.416870,-0.983431,-2.918919,-2.964188,-10.064805
1790542468.3201,0.022481,-0.063634,-0.646081,0.024925,-0.069654,-0.646081,-1.292440,0.728904,-0.886299,-2.229015,-1.068009,-6.261308
1790542468.3340,0.021957,-0.047248,-0.655767,0.022847,-0.053970,-0.655767,-1.371359,0.404728,-0.777027,-3.263871,-1.291089,-6.067252
1790542468.3480,0.018008,-0.031912,-0.666020,0.019460,-0.038529,-0.666020,-1.293654,0.575922,-0.710249,-3.340527,-1.885968,-9.094525
1790542468.3618,0.023152,-0.023090,-0.671290,0.022044,-0.027722,-0.671290,-0.730292,-0.097927,-0.826806,-3.417183,-0.064149,-12.044175
1790542468.3757,0.022916,-0.039767,-0.702342,0.022655,-0.036154,-0.702342,0.865091,0.057484,-0.106820,-0.772552,-3.930868,-8.201867
1790542468.3896,0.014417,-0.048969,-0.696500,0.016888,-0.045124,-0.696500,0.740034,0.529785,0.499037,0.453943,3.207691,-13.247322
1790542468.4039,0.012268,-0.065087,-0.712534,0.013654,-0.059098,-0.712534,1.067853,-0.174418,0.803786,2.025391,-0.138509,-5.135783
1790542468.4185,0.019201,-0.074347,-0.639188,0.017537,-0.069772,-0.639188,0.764317,-0.123424,0.290204,-2.803935,1.199971,-3.505713
1790542468.4334,0.003090,-0.078940,-0.648682,0.007424,-0.076190,-0.648682,0.285945,0.969304,0.274420,1.642111,0.530731,-10.685784
1790542468.4475,-0.013096,-0.090048,-0.646386,-0.006940,-0.085890,-0.646386,0.780101,1.083434,0.445614,0.913879,1.088431,-14.372847
1790542468.4613,-0.030259,-0.095395,-0.632929,-0.023263,-0.092544,-0.632929,0.612549,1.244915,0.729724,-0.350944,3.839751,-7.503266
1790542468.4751,-0.037722,-0.094995,-0.615916,-0.033384,-0.094259,-0.615916,0.117179,0.577136,0.757649,-0.849208,3.170511,-8.512357
1790542468.4892,-0.043859,-0.097959,-0.604580,-0.040717,-0.096849,-0.604580,0.285945,0.327023,0.862065,1.258831,2.352551,-8.861658
1790542468.5034,-0.047041,-0.100509,-0.595273,-0.045144,-0.099411,-0.595273,0.226452,0.131546,0.679944,1.220503,1.832031,-8.861658
1790542468.5175,-0.044896,-0.102860,-0.585903,-0.044970,-0.101825,-0.585903,0.264090,-0.242410,0.682372,1.143847,2.501271,-8.512357
1790542468.5314,-0.040174,-0.104233,-0.577730,-0.041613,-0.103511,-0.577730,0.203383,-0.407533,0.554887,1.105519,2.947431,-10.142427
1790542468.5455,-0.027023,-0.105569,-0.569899,-0.031400,-0.104951,-0.569899,0.146319,-0.990321,0.433473,1.067191,2.389731,-13.363756
1790542468.5597,-0.014320,-0.099196,-0.571597,-0.019444,-0.100922,-0.571597,-0.460752,-1.075311,0.279277,4.516709,0.865351,-14.605714
1790542468.5737,-0.006941,-0.088173,-0.585837,-0.010692,-0.091998,-0.585837,-0.886916,-0.788773,0.086228,4.516709,-0.993649,-9.443825
1790542468.5877,0.002583,-0.071247,-0.594713,-0.001400,-0.077472,-0.594713,-1.266943,-0.936899,-0.076467,3.481854,-0.064149,-7.386832
1790542468.6017,0.013578,-0.053914,-0.598019,0.009085,-0.060982,-0.598019,-1.371359,-1.002462,-0.185739,2.102047,-0.696209,-5.096972
1790542468.6156,0.024982,-0.035921,-0.604015,0.020213,-0.043439,-0.604015,-1.217163,-0.844624,-0.144459,0.262303,1.608951,-6.261308
1790542468.6297,0.009881,-0.049478,-0.603591,0.012981,-0.047666,-0.603591,0.795885,1.013013,-0.369075,3.520182,-2.889828,-18.021098
1790542468.6436,-0.001973,-0.057403,-0.620209,0.002513,-0.054482,-0.620209,0.629547,1.026369,-0.957934,-1.232488,2.687171,-13.557812
1790542468.6574,0.008878,-0.059050,-0.640801,0.006969,-0.057680,-0.640801,0.160888,-0.817913,-1.065992,2.446998,1.720491,-10.220049
1790542468.6716,-0.005162,-0.070812,-0.652199,-0.001523,-0.066872,-0.652199,0.772816,1.042153,-0.949435,0.837223,-0.026969,-9.482637
1790542468.6864,0.002388,-0.086535,-0.665640,0.001215,-0.080636,-0.665640,1.112776,-0.202343,-1.136413,-3.992103,1.497411,-10.103616
1790542468.7001,0.014074,-0.101185,-0.687287,0.010216,-0.095020,-0.687287,1.196552,-0.694070,-1.192263,-0.849208,1.683311,-6.106063
1790542468.7139,0.028313,-0.110091,-0.709112,0.022884,-0.105569,-0.709112,0.750961,-1.003677,-1.186193,0.300631,1.906391,-7.542077
1790542468.7280,0.039738,-0.114097,-0.729802,0.034682,-0.111539,-0.729802,0.374577,-0.856765,-1.144912,1.373815,2.389731,-9.327392
1790542468.7422,0.053196,-0.114991,-0.753994,0.047642,-0.113956,-0.753994,0.247092,-0.888333,-1.013784,-0.542584,4.397451,-9.676693
1790542468.7564,0.033739,-0.111382,-0.763310,0.037910,-0.112154,-0.763310,-0.440112,1.491385,-1.251756,-2.037376,-3.001368,-16.856763
1790542468.7710,0.027829,-0.091271,-0.775580,0.030853,-0.097536,-0.775580,-1.529197,0.660912,-1.262683,-4.605350,-1.960328,-13.674245
1790542468.7850,0.021844,-0.070522,-0.781688,0.024547,-0.078626,-0.781688,-1.768383,0.675482,-1.286966,-1.692424,-2.518028,-6.532986
1790542468.7990,0.016330,-0.049354,-0.794609,0.018795,-0.058135,-0.794609,-1.718604,0.800539,-1.201976,-3.225543,-1.514168,-6.106063
1790542468.8132,0.012759,-0.030678,-0.813475,0.014570,-0.038915,-0.813475,-1.592333,0.578351,-1.192263,-1.539112,-1.737248,-4.747672
1790542468.8273,0.015650,-0.032638,-0.827714,0.015326,-0.034521,-0.827714,0.003050,-0.003224,-1.044138,-1.462456,-1.105189,-13.014455
1790542468.8412,0.023047,-0.054638,-0.840823,0.020731,-0.048603,-0.840823,1.415097,-0.402676,-0.823164,-1.309144,-2.778288,-19.379490
1790542468.8552,0.022580,-0.066743,-0.820406,0.022025,-0.061301,-0.820406,1.019287,0.246890,0.144507,-3.723807,3.207691,-8.628791
1790542468.8694,0.032825,-0.072131,-0.808410,0.029585,-0.068882,-0.808410,0.481422,-0.436672,0.189430,-4.911974,2.203831,-7.658511
1790542468.8835,0.033316,-0.077672,-0.805544,0.032196,-0.075035,-0.805544,0.367293,0.027130,0.163933,-1.654096,0.382011,-10.724595
1790542468.8975,0.018769,-0.088051,-0.821792,0.022797,-0.084146,-0.821792,0.667186,0.897670,0.126295,2.332014,-0.435949,-11.617252
1790542468.9115,0.005887,-0.101129,-0.817025,0.010960,-0.096034,-0.817025,0.936725,0.925595,0.301132,-0.350944,0.605091,-9.443825
1790542468.9252,-0.006894,-0.103939,-0.802217,-0.001538,-0.101567,-0.802217,0.333297,0.928023,0.512392,-0.197632,2.055111,-7.425644
1790542468.9396,-0.014110,-0.100465,-0.784680,-0.010339,-0.100796,-0.784680,-0.159645,0.528571,0.693299,-0.849208,1.943571,-8.784035
1790542468.9538,-0.018894,-0.100431,-0.769719,-0.016328,-0.100541,-0.769719,0.029761,0.282100,0.842639,0.300631,1.385871,-9.327392
1790542468.9678,-0.021299,-0.101340,-0.753293,-0.019808,-0.101100,-0.753293,0.199741,0.082981,0.812285,1.105519,3.839751,-11.539630
1790542468.9820,-0.007407,-0.103363,-0.739102,-0.011127,-0.102684,-0.739102,0.106252,-1.029174,0.999263,-0.120976,0.382011,-9.793126
1790542468.9959,0.005482,-0.096997,-0.734652,0.000499,-0.098703,-0.734652,-0.463181,-1.138446,0.855994,2.485326,0.642271,-9.172147
1790542469.0100,0.007605,-0.087170,-0.754350,0.005473,-0.090630,-0.754350,-0.810425,-0.490095,0.703013,5.168285,-1.253909,-9.715504
1790542469.0240,0.015276,-0.070246,-0.759453,0.012335,-0.076361,-0.759453,-1.243874,-0.840982,0.286562,4.248414,0.270471,-9.055714
1790542469.0382,0.022597,-0.052281,-0.763965,0.019518,-0.059505,-0.763965,-1.332506,-0.786345,0.025521,4.171758,-0.064149,-9.016902
1790542469.0521,0.032819,-0.040437,-0.764800,0.028829,-0.046157,-0.764800,-0.933054,-0.975751,0.017022,3.213558,-0.250049,-8.357112
1790542469.0663,0.040681,-0.031800,-0.766774,0.037125,-0.036107,-0.766774,-0.604021,-0.882262,0.117796,3.596838,0.828171,-6.571797
1790542469.0806,0.031251,-0.036931,-0.770899,0.033013,-0.036684,-0.770899,0.322369,0.551639,-0.115319,3.405198,1.311511,-17.632987
1790542469.0948,0.032984,-0.048683,-0.777028,0.032993,-0.045083,-0.777028,0.842022,0.112120,-0.814665,-4.490366,3.058971,-17.322497
1790542469.1088,0.032754,-0.056418,-0.795171,0.032826,-0.053017,-0.795171,0.669614,0.109692,-0.778241,-0.465928,4.100011,-11.850119
1790542469.1227,0.031364,-0.065201,-0.810774,0.031802,-0.061546,-0.810774,0.687826,0.091480,-0.715105,0.913879,1.832031,-8.046623
1790542469.1370,0.049724,-0.077257,-0.814437,0.044347,-0.072544,-0.814437,0.850521,-1.076525,-0.711463,-2.458983,1.014071,-7.852567
1790542469.1506,0.056965,-0.087354,-0.828168,0.053180,-0.082911,-0.828168,0.793456,-0.498594,-0.736960,-0.044320,1.720491,-7.852567
1790542469.1644,0.069259,-0.097517,-0.837839,0.064436,-0.093135,-0.837839,0.682969,-0.855551,-0.804952,-0.235960,0.419191,-8.512357
1790542469.1787,0.088408,-0.103828,-0.850378,0.081216,-0.100621,-0.850378,0.411002,-1.324210,-0.859588,-0.197632,0.902531,-8.861658
1790542469.1930,0.093331,-0.111527,-0.858990,0.089697,-0.108255,-0.858990,0.522703,-0.502236,-0.848661,2.217030,1.199971,-8.163056
1790542469.2075,0.074215,-0.117717,-0.863388,0.078860,-0.114879,-0.863388,0.243450,1.303193,-0.965219,0.798895,-2.034688,-16.585084
1790542469.2215,0.048088,-0.099299,-0.878993,0.057320,-0.103973,-0.878993,-1.291226,1.996468,-0.729675,-3.302199,2.798711,-16.313406
1790542469.2357,0.053539,-0.083453,-0.862549,0.054673,-0.089609,-0.862549,-1.251159,0.087837,-0.830449,-7.364965,-1.068009,-7.153965
1790542469.2497,0.044071,-0.066410,-0.870160,0.047251,-0.073370,-0.870160,-1.399284,1.009371,-0.659255,-2.650623,-0.882109,-4.941727
1790542469.2637,0.042304,-0.053619,-0.877060,0.043788,-0.059544,-0.877060,-1.122460,0.454508,-0.468635,-3.877119,-1.774428,-6.804665
1790542469.2776,0.022304,-0.042845,-0.886374,0.028749,-0.047855,-0.886374,-0.755789,1.447676,-0.386073,0.415615,1.274331,-7.192776
1790542469.2915,0.022665,-0.044761,-0.888401,0.024490,-0.045689,-0.888401,0.259234,0.193467,-0.409142,-3.877119,4.248731,-12.082986
1790542469.3056,0.037951,-0.059123,-0.884700,0.033913,-0.055093,-0.884700,1.013216,-1.193083,0.304774,1.488799,1.460231,-16.507462
1790542469.3197,0.033092,-0.067799,-0.881312,0.033338,-0.063987,-0.881312,0.622262,0.058698,0.848710,3.711822,0.716631,-11.539630
1790542469.3337,0.035035,-0.079008,-0.868002,0.034526,-0.074502,-0.868002,0.775244,-0.265478,0.993193,0.300631,-0.064149,-10.724595
1790542469.3476,0.033555,-0.094678,-0.855356,0.033846,-0.088625,-0.855356,1.110348,0.130332,0.733366,-1.462456,0.121751,-9.172147
1790542469.3615,0.013546,-0.102320,-0.850653,0.019636,-0.098212,-0.850653,0.617406,1.253414,0.801358,2.140375,1.534591,-9.793126
1790542469.3755,-0.006499,-0.108484,-0.841194,0.001342,-0.105402,-0.841194,0.528773,1.359044,0.886348,0.568927,2.129471,-10.220049
1790542469.3893,-0.019777,-0.114038,-0.828891,-0.013441,-0.111447,-0.828891,0.480208,1.011799,0.892419,-1.040848,1.683311,-8.085434
1790542469.4031,-0.024924,-0.113089,-0.817165,-0.021479,-0.112596,-0.817165,0.052830,0.382874,0.869350,-0.772552,3.876931,-12.859210
1790542469.4171,-0.014089,-0.113196,-0.804192,-0.016306,-0.113016,-0.804192,-0.079512,-0.793630,0.888776,-0.312616,-0.733389,-14.217602
1790542469.4312,-0.005085,-0.107165,-0.793801,-0.008452,-0.108920,-0.793801,-0.442540,-0.730495,0.718796,1.182175,0.716631,-12.665154
1790542469.4458,-0.005021,-0.107921,-0.780070,-0.006050,-0.108221,-0.780070,-0.126863,-0.288547,0.989550,4.133430,-2.480848,-9.210958
1790542469.4600,0.007157,-0.106546,-0.765502,0.003195,-0.107048,-0.765502,-0.222781,-1.051028,0.965267,2.063719,-1.328269,-8.745224
1790542469.4739,0.021036,-0.098753,-0.756062,0.015683,-0.101241,-0.756062,-0.589451,-1.245291,0.930057,1.833751,-0.026969,-5.873196
1790542469.4880,0.023385,-0.087022,-0.749329,0.021074,-0.091287,-0.749329,-0.900272,-0.494951,0.670231,4.056774,-0.621849,-8.085434
1790542469.5020,0.034206,-0.072183,-0.735951,0.030267,-0.077914,-0.735951,-1.177096,-0.917473,0.433473,1.680439,-1.328269,-11.112707
1790542469.5160,0.039704,-0.055457,-0.739557,0.036873,-0.062194,-0.739557,-1.268157,-0.657646,0.112939,3.980118,-0.324409,-9.793126
1790542469.5299,0.029547,-0.048235,-0.740335,0.031745,-0.052423,-0.740335,-0.634375,0.504288,-0.031543,6.126485,-1.216729,-15.614805
1790542469.5438,0.017192,-0.057869,-0.728870,0.021558,-0.056235,-0.728870,0.580982,1.161139,-0.767314,-4.988630,-0.584669,-16.585084
1790542469.5577,0.023707,-0.074057,-0.801678,0.023062,-0.068710,-0.801678,1.605717,-0.014151,-0.993144,-4.682006,5.624391,-2.263755
1790542469.5719,0.026243,-0.080658,-0.814047,0.025289,-0.077074,-0.814047,0.640475,-0.237553,-0.382430,0.722239,2.055111,-5.096972
1790542469.5860,0.030556,-0.094298,-0.819796,0.028976,-0.089131,-0.819796,0.980434,-0.198700,-0.471063,-1.539112,1.162791,-10.685784
1790542469.6000,0.053853,-0.109247,-0.834696,0.046390,-0.103212,-0.834696,1.198980,-1.570681,-0.835305,-1.270816,3.653851,-10.957462
1790542469.6138,0.068819,-0.119798,-0.847328,0.062090,-0.114822,-0.847328,0.933083,-1.102022,-0.910582,0.262303,2.873071,-6.882287
1790542469.6275,0.072701,-0.120478,-0.848941,0.069518,-0.118781,-0.848941,0.249521,-0.388107,-0.886299,1.258831,3.430771,-6.494175
1790542469.6415,0.084878,-0.122837,-0.860364,0.080270,-0.121620,-0.860364,0.131749,-0.808200,-0.702964,-1.232488,0.567911,-9.599070
1790542469.6555,0.093351,-0.128140,-0.872111,0.089427,-0.126184,-0.872111,0.363650,-0.584798,-0.687180,-0.887536,1.162791,-11.656063
1790542469.6695,0.081738,-0.135722,-0.883350,0.084045,-0.132861,-0.883350,0.571268,0.804181,-0.664111,0.147319,2.575631,-15.498371
1790542469.6834,0.070504,-0.120258,-0.896597,0.074566,-0.124039,-0.896597,-1.120032,1.016656,-0.633758,-4.758662,1.237151,-12.082986
1790542469.6978,0.059436,-0.105844,-0.885413,0.063975,-0.111303,-0.885413,-1.217163,0.918310,-0.514772,-2.612295,-2.480848,-9.172147
1790542469.7118,0.052355,-0.093379,-0.876782,0.055841,-0.098756,-0.876782,-1.095749,0.747116,-0.398214,-2.995575,-1.737248,-6.882287
1790542469.7258,0.044659,-0.080060,-0.882866,0.048014,-0.085669,-0.882866,-0.985262,0.699765,-0.321723,-1.960720,0.344831,-7.774944
1790542469.7398,0.040181,-0.067941,-0.884183,0.042531,-0.073259,-0.884183,-0.941553,0.580779,-0.223378,-3.417183,-0.138509,-7.386832
1790542469.7537,0.030868,-0.050581,-0.884885,0.034367,-0.057385,-0.884885,-1.152813,0.912240,-0.065539,-3.148887,2.055111,-6.882287
1790542469.7677,0.036040,-0.050066,-0.884618,0.035538,-0.052262,-0.884618,-0.131720,-0.218127,0.184574,-4.950302,-0.882109,-14.955014
1790542469.7834,0.052358,-0.067372,-0.869686,0.047312,-0.062839,-0.869686,1.069067,-1.183370,0.889990,0.453943,-0.696209,-17.050819
1790542469.7981,0.033200,-0.083228,-0.834972,0.037433,-0.077111,-0.834972,1.226905,0.907383,1.220237,4.593365,2.426911,-8.124245
1790542469.8127,0.038949,-0.096856,-0.832478,0.038494,-0.090932,-0.832478,1.019287,-0.070001,0.580384,-4.260399,1.162791,-4.825294
1790542469.8270,0.022942,-0.110074,-0.821813,0.027607,-0.104332,-0.821813,0.935511,0.982660,0.577956,1.603783,0.530731,-10.181238
1790542469.8412,0.003158,-0.121144,-0.809797,0.010493,-0.116100,-0.809797,0.865091,1.280125,0.584027,1.795423,2.017931,-11.345574
1790542469.8550,-0.017674,-0.130874,-0.793089,-0.009224,-0.126442,-0.793089,0.842022,1.337189,0.778289,2.140375,2.426911,-8.201867
1790542469.8689,-0.025739,-0.139014,-0.786468,-0.020785,-0.135242,-0.786468,0.696325,0.631773,0.779504,-0.887536,2.501271,-10.025993
1790542469.8830,-0.015961,-0.144831,-0.776811,-0.017408,-0.141954,-0.776811,0.343010,-0.673430,0.857209,-0.542584,-0.696209,-12.703965
1790542469.8973,-0.004270,-0.141649,-0.763110,-0.008211,-0.141741,-0.763110,-0.256776,-0.878620,0.781932,1.182175,-0.175689,-13.635434
1790542469.9113,-0.006780,-0.138651,-0.736864,-0.007209,-0.139578,-0.736864,-0.346623,-0.141636,0.919130,6.854716,-2.443668,-11.772497
1790542469.9252,0.004438,-0.126281,-0.717524,0.000944,-0.130270,-0.717524,-0.948837,-1.041315,0.956768,3.060246,-0.435949,-8.706413
1790542469.9394,0.009839,-0.105193,-0.704355,0.007171,-0.112716,-0.704355,-1.510985,-0.717139,0.828069,4.478381,0.084571,-8.007811
1790542469.9538,0.022398,-0.078720,-0.693156,0.017830,-0.088919,-0.693156,-1.864301,-0.946612,0.503893,0.223975,0.158931,-4.980539
1790542469.9681,0.027032,-0.052107,-0.694703,0.024271,-0.063151,-0.694703,-1.864301,-0.742636,0.463827,2.140375,0.270471,-2.845923
1790542469.9821,0.047285,-0.036393,-0.683395,0.040381,-0.044420,-0.683395,-1.162526,-1.508760,0.258637,-0.120976,0.642271,-13.984735
1790542469.9960,0.036989,-0.039474,-0.671198,0.038006,-0.040958,-0.671198,0.119608,0.514001,0.299917,6.011501,-1.068009,-20.233336
1790542470.0100,0.022900,-0.057363,-0.675272,0.027432,-0.052442,-0.675272,1.234190,1.040939,-0.386073,0.147319,1.274331,-19.806413
1790542470.0240,0.022282,-0.054733,-0.739544,0.023827,-0.054046,-0.739544,0.137820,0.182540,-0.885085,-0.389272,3.616671,-4.902916
1790542470.0379,0.024254,-0.058409,-0.763903,0.024125,-0.057100,-0.763903,0.429214,-0.000795,-0.474705,-1.155832,2.761531,-6.921098
1790542470.0519,0.016461,-0.067786,-0.773358,0.018760,-0.064580,-0.773358,0.684184,0.649985,-0.324152,-0.580912,0.716631,-5.834385
1790542470.0658,0.030084,-0.080618,-0.787717,0.026687,-0.075806,-0.787717,1.024143,-0.742636,-0.358148,-3.762135,2.612811,-9.676693
1790542470.0795,0.036073,-0.085510,-0.797756,0.033257,-0.082599,-0.797756,0.506919,-0.417246,-0.506273,0.032335,3.170511,-9.055714
1790542470.0931,0.038610,-0.086152,-0.794899,0.037005,-0.085086,-0.794899,0.092896,-0.271549,-0.523271,1.488799,1.683311,-8.939280
1790542470.1070,0.046989,-0.083031,-0.801967,0.043994,-0.083647,-0.801967,-0.230065,-0.560515,-0.486847,-0.312616,0.679451,-7.037532
1790542470.1210,0.050142,-0.082832,-0.802446,0.048298,-0.083077,-0.802446,0.006692,-0.275191,-0.457707,0.760567,1.237151,-8.124245
1790542470.1349,0.060702,-0.083285,-0.811300,0.056981,-0.083223,-0.811300,0.038260,-0.719567,-0.553625,-0.580912,1.497411,-11.656063
1790542470.1489,0.062571,-0.080060,-0.819453,0.060894,-0.081009,-0.819453,-0.097724,-0.145278,-0.336293,0.223975,5.178231,-15.071448
1790542470.1627,0.046208,-0.078128,-0.828186,0.050614,-0.078992,-0.828186,-0.189999,1.259484,-0.444352,-1.884064,0.865351,-19.146623
1790542470.1768,0.044566,-0.065060,-0.844689,0.046380,-0.069240,-0.844689,-0.871132,0.318524,-0.152958,-4.375383,2.538451,-12.315854
1790542470.1911,0.038463,-0.054951,-0.845273,0.040838,-0.059237,-0.845273,-0.749718,0.476363,0.102012,-0.849208,0.196111,-6.532986
1790542470.2056,0.029947,-0.048794,-0.843740,0.033215,-0.051927,-0.843740,-0.486249,0.725262,0.333913,-2.190688,-0.026969,-6.804665
1790542470.2196,0.027379,-0.038336,-0.846338,0.029130,-0.042414,-0.846338,-0.724221,0.222607,0.178503,-1.884064,2.575631,-16.352217
1790542470.2336,0.036435,-0.047550,-0.820762,0.034244,-0.046009,-0.820762,0.532416,-0.775418,0.609524,0.530599,-1.402628,-12.626343
1790542470.2476,0.038491,-0.057694,-0.789890,0.037217,-0.054189,-0.789890,0.720608,-0.403890,1.080611,2.025391,0.530731,-11.345574
1790542470.2616,0.030351,-0.063901,-0.753256,0.032410,-0.060987,-0.753256,0.537272,0.235962,1.123106,2.600310,1.608951,-6.959909
1790542470.2754,0.032123,-0.068163,-0.741488,0.032209,-0.066010,-0.741488,0.407359,-0.265478,0.960411,0.377287,1.794851,-8.085434
1790542470.2894,0.024756,-0.074577,-0.714633,0.026992,-0.072007,-0.714633,0.494777,0.265102,1.028403,2.561982,1.274331,-9.987182
1790542470.3031,0.010956,-0.079865,-0.697394,0.015766,-0.077508,-0.697394,0.466852,0.800539,1.158316,1.565455,1.720491,-8.628791
1790542470.3166,0.000034,-0.085587,-0.686002,0.004754,-0.083163,-0.686002,0.429214,0.758044,1.165601,-0.580912,0.902531,-10.375294
1790542470.3305,-0.008441,-0.090350,-0.680215,-0.004483,-0.088194,-0.680215,0.395218,0.573494,1.093966,-0.504256,1.683311,-9.715504
1790542470.3444,-0.014766,-0.096407,-0.673843,-0.011681,-0.093943,-0.673843,0.429214,0.455722,0.863279,-0.887536,0.939711,-11.733686
1790542470.3582,-0.004350,-0.099181,-0.655241,-0.006549,-0.097610,-0.655241,0.169387,-0.865264,0.933700,1.143847,0.605091,-13.130889
1790542470.3723,0.004189,-0.091070,-0.635034,0.000968,-0.093032,-0.635034,-0.639231,-0.707426,0.860851,0.645583,-0.101329,-11.190329
1790542470.3863,0.009901,-0.082246,-0.592194,0.007221,-0.085482,-0.592194,-0.840779,-0.613937,0.942199,1.872079,-2.294948,-9.055714
1790542470.4003,0.022305,-0.067744,-0.566412,0.017780,-0.073065,-0.566412,-1.133387,-1.132376,0.699370,2.446998,-0.547489,-8.628791
1790542470.4142,0.032002,-0.051553,-0.545958,0.027735,-0.058007,-0.545958,-1.252373,-1.002462,0.659303,2.830278,-0.473129,-7.386832
1790542470.4282,0.036355,-0.033320,-0.550390,0.033769,-0.040726,-0.550390,-1.337363,-0.720782,0.445614,4.363398,0.047391,-6.494175
1790542470.4424,0.030918,-0.024287,-0.550392,0.031773,-0.029219,-0.550392,-0.589451,0.243247,0.382479,1.527127,2.278191,-11.423196
1790542470.4568,0.017859,-0.032674,-0.538586,0.022033,-0.031638,-0.538586,0.437713,0.804181,-0.364218,4.899989,-1.291089,-18.292777
1790542470.4707,0.026311,-0.038648,-0.578011,0.025028,-0.036545,-0.578011,0.573697,-0.470668,-1.010142,-0.312616,3.616671,-10.297672
1790542470.4847,0.017112,-0.043603,-0.600938,0.019487,-0.041485,-0.600938,0.449854,0.507930,-0.583978,2.446998,1.683311,-5.912007
1790542470.4988,0.016357,-0.056364,-0.604839,0.017296,-0.051901,-0.604839,0.845665,0.273601,-0.361790,-1.960720,0.084571,-6.183686
1790542470.5128,0.034259,-0.072462,-0.633695,0.029170,-0.066294,-0.633695,1.242689,-1.085024,-0.795239,-2.152360,2.166651,-9.327392
1790542470.5266,0.045504,-0.083655,-0.655514,0.040604,-0.078447,-0.655514,0.893016,-0.830054,-0.887514,1.182175,2.389731,-9.366203
1790542470.5402,0.048295,-0.084931,-0.667293,0.045988,-0.082986,-0.667293,0.162103,-0.338327,-0.911796,2.676966,2.241011,-8.551168
1790542470.5540,0.057926,-0.085452,-0.674170,0.054344,-0.084712,-0.674170,-0.020019,-0.668573,-0.904512,0.070663,0.567911,-9.676693
1790542470.5680,0.064319,-0.087456,-0.690510,0.061327,-0.086633,-0.690510,0.159674,-0.440315,-0.809808,0.223975,1.646131,-10.025993
1790542470.5820,0.068917,-0.087317,-0.707689,0.066640,-0.087112,-0.707689,0.001836,-0.299474,-0.818307,-0.005993,1.534591,-9.327392
1790542470.5961,0.058268,-0.084084,-0.725203,0.060779,-0.084992,-0.725203,-0.236136,0.830892,-0.740602,-1.040848,2.166651,-16.080539
1790542470.6101,0.040576,-0.075588,-0.733201,0.046637,-0.078409,-0.733201,-0.651373,1.348117,-0.480776,-1.845736,0.828171,-16.391028
1790542470.6240,0.036025,-0.062014,-0.748070,0.039209,-0.066932,-0.748070,-1.003474,0.625702,-0.441923,-4.375383,0.605091,-9.094525
1790542470.6386,0.028787,-0.055309,-0.723036,0.031913,-0.058796,-0.723036,-0.658658,0.584421,0.017022,-1.462456,-1.514168,-7.697322
1790542470.6526,0.024583,-0.039150,-0.742970,0.026782,-0.045043,-0.742970,-1.093320,0.643914,0.043733,-3.378855,1.051251,-4.786483
1790542470.6666,0.018435,-0.028493,-0.750358,0.020939,-0.033458,-0.750358,-0.774001,0.641486,-0.035186,-2.612295,0.828171,-7.580888
1790542470.6807,0.025649,-0.034230,-0.752292,0.024236,-0.033999,-0.752292,0.397646,-0.317686,0.142079,-4.682006,1.199971,-11.578441
1790542470.6950,0.040238,-0.050693,-0.734987,0.035437,-0.045685,-0.734987,1.155271,-1.159087,0.817142,0.223975,1.199971,-14.605714
1790542470.7093,0.034053,-0.064112,-0.706393,0.034468,-0.058584,-0.706393,0.962222,0.171613,1.263946,2.485326,1.237151,-13.674245
1790542470.7234,0.029809,-0.073540,-0.696699,0.031207,-0.069053,-0.696699,0.704824,0.267530,1.001692,-0.887536,0.790991,-7.153965
1790542470.7374,0.020182,-0.082633,-0.692018,0.023490,-0.078559,-0.692018,0.699967,0.683981,0.778289,-0.849208,1.088431,-8.046623
1790542470.7514,0.001782,-0.089322,-0.679701,0.008294,-0.086093,-0.679701,0.529988,1.157496,0.713940,1.757095,1.683311,-10.142427
1790542470.7651,-0.013798,-0.094812,-0.671444,-0.007171,-0.092197,-0.671444,0.475351,1.026369,0.853566,0.913879,1.646131,-8.007811
1790542470.7786,-0.024738,-0.099998,-0.667272,-0.019467,-0.097658,-0.667272,0.465638,0.760472,0.940984,0.185647,1.943571,-8.551168
1790542470.7925,-0.031694,-0.105855,-0.658476,-0.028026,-0.103396,-0.658476,0.424357,0.460579,0.932485,0.147319,1.125611,-9.987182
1790542470.8065,-0.019719,-0.113243,-0.635872,-0.022211,-0.110289,-0.635872,0.389147,-0.866479,0.987122,-0.734224,-1.551348,-13.674245
1790542470.8203,-0.009382,-0.112046,-0.621444,-0.013230,-0.111519,-0.621444,-0.091653,-0.843410,0.808643,1.565455,1.125611,-14.760958
1790542470.8344,-0.005948,-0.109861,-0.574364,-0.008132,-0.110359,-0.574364,-0.323554,-0.508307,0.940984,4.171758,-1.997508,-11.306763
1790542470.8484,-0.004390,-0.100889,-0.534219,-0.005513,-0.103730,-0.534219,-0.777643,-0.459741,0.916702,5.743205,-1.439808,-10.220049
1790542470.8623,0.000726,-0.084186,-0.519901,-0.001146,-0.090049,-0.519901,-1.254801,-0.694070,0.518463,3.328542,0.047391,-6.222497
1790542470.8762,0.000570,-0.064514,-0.499561,0.000055,-0.072175,-0.499561,-1.569264,-0.294618,0.326629,3.290214,-0.956469,-6.377742
1790542470.8903,0.010867,-0.043780,-0.485837,0.007623,-0.052298,-0.485837,-1.588690,-0.961182,0.168790,3.443526,-0.584669,-9.637881
1790542470.9042,0.016848,-0.022654,-0.519337,0.014081,-0.031547,-0.519337,-1.362860,-0.737780,0.178503,3.826806,2.389731,-7.037532
1790542470.9181,-0.000617,-0.019658,-0.497497,0.003792,-0.023225,-0.497497,-0.342981,1.039725,0.332699,4.823333,-0.398769,-15.265504
1790542470.9320,0.003992,-0.028937,-0.505546,0.003932,-0.027224,-0.505546,0.602836,0.016203,-0.492917,-7.594933,0.158931,-14.993826
1790542470.9463,0.005130,-0.033305,-0.606732,0.004771,-0.031481,-0.606732,0.716965,0.344021,-0.848661,-5.371910,6.776970,-7.115154
1790542470.9608,-0.003333,-0.036540,-0.633803,-0.000902,-0.035022,-0.633803,0.391575,0.656056,-0.575479,0.223975,2.612811,-6.532986
1790542470.9749,-0.001657,-0.041659,-0.646460,-0.001430,-0.039668,-0.646460,0.374577,0.062340,-0.684752,-1.385800,1.162791,-9.249770
1790542470.9886,0.012605,-0.058375,-0.645140,0.008394,-0.052763,-0.645140,1.162556,-0.993963,-0.613117,0.223975,0.344831,-11.539630
1790542471.0024,0.023191,-0.067989,-0.669162,0.018752,-0.063421,-0.669162,0.808026,-0.606652,-0.808594,-1.270816,2.278191,-8.434735
1790542471.0160,0.031727,-0.065265,-0.691918,0.027834,-0.064712,-0.691918,-0.004235,-0.548373,-0.786740,-0.159304,3.058971,-6.804665
1790542471.0299,0.036231,-0.066993,-0.698987,0.033712,-0.066308,-0.698987,0.124464,-0.310401,-0.751530,0.568927,1.162791,-8.512357
1790542471.0439,0.044832,-0.067851,-0.716170,0.041496,-0.067388,-0.716170,0.095325,-0.524091,-0.829235,-0.542584,1.980751,-10.530539
1790542471.0578,0.055676,-0.068389,-0.736038,0.051422,-0.068089,-0.736038,0.096539,-0.538660,-0.749101,-2.573967,1.757671,-7.464455
1790542471.0718,0.050891,-0.070102,-0.751555,0.051051,-0.069498,-0.751555,0.219167,0.413227,-0.507487,-1.002520,4.211551,-14.372847
1790542471.0857,0.034099,-0.063831,-0.768061,0.039184,-0.065531,-0.768061,-0.402474,1.322620,-0.437067,-2.382327,3.430771,-17.012007
1790542471.0997,0.030347,-0.047641,-0.776364,0.032998,-0.053008,-0.776364,-1.105462,0.459365,-0.086180,-4.337055,2.873071,-13.208511
1790542471.1136,0.020269,-0.037201,-0.770861,0.024088,-0.041943,-0.770861,-0.833494,0.819965,0.161505,-1.347472,-0.064149,-6.649420
1790542471.1275,0.012106,-0.024975,-0.755426,0.015701,-0.030066,-0.755426,-0.922126,0.834534,0.183360,-2.995575,0.382011,-5.756762
1790542471.1416,0.021537,-0.019530,-0.757723,0.019786,-0.022690,-0.757723,-0.376977,-0.618794,0.030378,-1.577440,2.129471,-13.208511
1790542471.1554,0.029692,-0.028193,-0.712400,0.026720,-0.026543,-0.712400,0.629547,-0.940541,0.741865,3.788478,1.571771,-10.879840
1790542471.1693,0.022856,-0.039170,-0.679806,0.024015,-0.035382,-0.679806,0.799527,0.181326,1.136461,3.290214,1.720491,-13.596623
1790542471.1833,0.022575,-0.047833,-0.666823,0.023007,-0.044098,-0.666823,0.630761,-0.050575,1.160744,-1.270816,1.014071,-9.831937
1790542471.1972,0.016650,-0.057272,-0.651908,0.018557,-0.053319,-0.651908,0.706038,0.282100,1.022332,0.377287,1.237151,-9.210958
1790542471.2116,-0.001880,-0.066447,-0.618352,0.004251,-0.062509,-0.618352,0.605264,1.000872,1.211738,2.676966,0.605091,-9.482637
1790542471.2253,-0.017680,-0.074326,-0.596227,-0.011101,-0.070781,-0.596227,0.567626,0.946236,1.348936,1.373815,0.976891,-8.395923
1790542471.2390,-0.031787,-0.080325,-0.587048,-0.025581,-0.077462,-0.587048,0.461996,0.969304,1.262732,-0.274288,1.460231,-8.124245
1790542471.2530,-0.036267,-0.088252,-0.583580,-0.033061,-0.085015,-0.583580,0.633190,0.329451,1.079397,-1.079176,2.612811,-10.491728
1790542471.2669,-0.027761,-0.089140,-0.572591,-0.029351,-0.087902,-0.572591,0.016405,-0.584798,1.070898,-2.075704,0.939711,-14.411658
1790542471.2808,-0.018250,-0.079804,-0.550782,-0.021580,-0.082234,-0.550782,-0.738791,-0.830054,0.906988,1.872079,0.344831,-13.441378
1790542471.2948,-0.016375,-0.074231,-0.496810,-0.017936,-0.076632,-0.496810,-0.588237,-0.490095,1.074540,4.823333,-1.551348,-10.414105
1790542471.3087,-0.003280,-0.064439,-0.455270,-0.007677,-0.068097,-0.455270,-0.833494,-1.326638,0.943413,4.210086,-0.510309,-7.852567
1790542471.3226,0.008432,-0.049030,-0.442955,0.003599,-0.054750,-0.442955,-1.039898,-1.112949,0.955554,1.450471,1.274331,-5.213406
1790542471.3364,0.011473,-0.032863,-0.418145,0.009111,-0.039430,-0.418145,-1.207450,-0.639434,0.696942,4.018446,0.493551,-6.416553
1790542471.3503,0.021970,-0.016570,-0.408336,0.018113,-0.023428,-0.408336,-1.155242,-0.995178,0.426188,3.060246,1.980751,-11.112707
1790542471.3643,0.001280,-0.020467,-0.382133,0.006330,-0.021355,-0.382133,0.052830,1.278910,0.097156,7.429636,-3.968048,-20.931938
1790542471.3783,0.002296,-0.027295,-0.404438,0.003506,-0.025513,-0.404438,0.526345,0.198324,-0.813451,-3.723807,2.501271,-14.372847
1790542471.3923,0.006904,-0.036563,-0.461914,0.005885,-0.033248,-0.461914,0.980434,-0.315258,-1.124271,0.913879,1.980751,-3.039979
1790542471.4062,-0.002186,-0.044484,-0.480726,0.000235,-0.041113,-0.480726,0.774030,0.433868,-0.427354,2.370342,2.055111,-3.932637
1790542471.4201,0.004619,-0.061234,-0.483664,0.003304,-0.055198,-0.483664,1.157699,-0.323757,-0.307154,-1.730752,0.121751,-7.697322
1790542471.4341,0.027131,-0.076843,-0.516112,0.019983,-0.070349,-0.516112,1.259687,-1.418913,-0.875372,-2.267343,3.467951,-11.578441
1790542471.4478,0.041962,-0.087227,-0.539784,0.035368,-0.082164,-0.539784,0.861448,-1.035244,-1.025926,0.338959,2.612811,-9.599070
1790542471.4624,0.045553,-0.089140,-0.553225,0.042497,-0.087047,-0.553225,0.245878,-0.322543,-0.789168,1.718767,2.687171,-7.969000
1790542471.4761,0.058048,-0.095858,-0.556883,0.053383,-0.093214,-0.556883,0.390361,-0.822769,-0.740602,-1.194160,-0.324409,-9.831937
1790542471.4903,0.068776,-0.102425,-0.564709,0.064158,-0.099662,-0.564709,0.432856,-0.726852,-0.627687,-0.427600,0.642271,-9.482637
1790542471.5043,0.055268,-0.110344,-0.576056,0.057935,-0.107139,-0.576056,0.680541,0.913454,-0.172384,0.798895,3.319231,-12.742777
1790542471.5182,0.041092,-0.100023,-0.604929,0.046145,-0.102158,-0.604929,-0.662300,1.246129,-0.558481,-4.988630,3.282051,-15.343126
1790542471.5321,0.037602,-0.085218,-0.616126,0.040165,-0.090300,-0.616126,-1.117603,0.507930,-0.478348,-5.525222,-0.026969,-13.130889
1790542471.5462,0.029949,-0.075969,-0.574289,0.033014,-0.080268,-0.574289,-1.004688,0.826035,-0.386073,-3.263871,-2.815468,-5.174595
1790542471.5602,0.025677,-0.060343,-0.577974,0.027878,-0.066321,-0.577974,-1.230518,0.572280,-0.123818,-2.765607,-0.547489,-5.795574
1790542471.5742,0.017094,-0.046042,-0.581818,0.020329,-0.052125,-0.581818,-1.072680,0.715549,-0.159028,-1.040848,0.270471,-7.231588
1790542471.5882,0.009894,-0.032886,-0.594940,0.013025,-0.038658,-0.594940,-0.948837,0.832106,-0.159028,-3.493839,0.716631,-6.494175
1790542471.6021,-0.001421,-0.018794,-0.602660,0.002913,-0.024753,-0.602660,-1.067823,1.026369,-0.176026,-2.267343,0.344831,-7.658511
1790542471.6160,0.005810,-0.026803,-0.592928,0.004941,-0.026188,-0.592928,0.401289,-0.441529,0.078944,-2.382327,-2.183408,-14.644525
1790542471.6299,0.015246,-0.041684,-0.582490,0.012154,-0.037035,-0.582490,1.055711,-0.732923,0.756435,-1.385800,1.571771,-15.847672
1790542471.6439,0.003644,-0.049174,-0.565720,0.006197,-0.045533,-0.565720,0.625905,0.591706,0.988336,2.217030,2.798711,-10.181238
1790542471.6579,0.005251,-0.057317,-0.564755,0.005535,-0.053782,-0.564755,0.639260,0.095122,0.720011,-2.650623,1.051251,-4.902916
1790542471.6719,-0.006801,-0.070165,-0.551945,-0.003101,-0.065250,-0.551945,0.961008,0.692480,0.613166,1.680439,1.571771,-8.589979
1790542471.6857,-0.022445,-0.078670,-0.535829,-0.016641,-0.074644,-0.535829,0.712109,0.914668,0.712726,3.021918,2.724351,-9.715504
1790542471.6994,-0.040509,-0.085829,-0.528162,-0.033349,-0.082474,-0.528162,0.605264,1.202420,0.757649,1.297159,2.501271,-9.405014
1790542471.7137,-0.053065,-0.092305,-0.524456,-0.047150,-0.089356,-0.524456,0.544557,0.855175,0.847495,0.070663,2.984611,-9.948371
1790542471.7276,-0.044488,-0.097123,-0.511966,-0.045287,-0.094793,-0.511966,0.249521,-0.623650,0.962839,-0.772552,-0.026969,-14.722147
1790542471.7416,-0.028078,-0.090732,-0.498001,-0.033241,-0.091951,-0.498001,-0.465609,-1.267145,0.865708,1.220503,1.794851,-14.023546
1790542471.7555,-0.027116,-0.087491,-0.450291,-0.028953,-0.088829,-0.450291,-0.436470,-0.419674,0.944627,5.398253,-2.146228,-10.297672
1790542471.7695,-0.024525,-0.081539,-0.409554,-0.025853,-0.083726,-0.409554,-0.679298,-0.553230,0.802572,4.631693,-2.443668,-7.658511
1790542471.7835,-0.010147,-0.065378,-0.395492,-0.014859,-0.070883,-0.395492,-1.161312,-1.222222,0.695728,1.910407,0.976891,-8.085434
1790542471.7974,-0.004499,-0.039763,-0.388918,-0.007607,-0.049099,-0.388918,-1.802379,-0.768133,0.424974,4.133430,1.348691,-6.571797
1790542471.8115,0.002520,-0.018041,-0.370248,-0.000518,-0.027359,-0.370248,-1.670038,-0.849481,0.288990,5.129957,-0.473129,-8.900469
1790542471.8253,0.010305,-0.005032,-0.362735,0.007058,-0.011730,-0.362735,-0.990118,-0.873763,0.153006,4.670021,0.790991,-9.366203
1790542471.8392,-0.003454,-0.010220,-0.353106,-0.000300,-0.010673,-0.353106,0.249521,0.886743,-0.121390,3.328542,-0.361589,-14.605714
1790542471.8535,0.002352,-0.021642,-0.386672,0.001556,-0.018351,-0.386672,0.863877,-0.026292,-1.041710,-5.525222,2.798711,-13.674245
1790542471.8687,-0.004594,-0.031640,-0.426865,-0.002749,-0.027653,-0.426865,0.868733,0.390158,-0.889942,2.408670,2.761531,-5.329839
1790542471.8836,-0.005570,-0.043962,-0.439276,-0.004724,-0.039069,-0.439276,0.862663,0.158257,-0.543911,-0.197632,1.311511,-8.046623
1790542471.8981,0.013216,-0.051789,-0.453498,0.007834,-0.047973,-0.453498,0.562769,-1.120234,-0.650756,-2.573967,1.794851,-13.363756
1790542471.9130,0.018787,-0.067404,-0.468027,0.015501,-0.061575,-0.468027,1.031428,-0.229054,-0.923938,-1.117504,0.902531,-11.423196
1790542471.9272,0.033234,-0.067365,-0.504305,0.027914,-0.065628,-0.504305,0.197313,-0.831268,-0.848661,-1.424128,3.170511,-7.115154
1790542471.9411,0.044250,-0.074090,-0.500640,0.039349,-0.071552,-0.500640,0.368507,-0.791202,-0.678681,0.415615,-0.287229,-7.153965
1790542471.9557,0.054246,-0.082072,-0.511913,0.049777,-0.078916,-0.511913,0.548200,-0.650361,-0.740602,-0.044320,0.976891,-7.658511
1790542471.9701,0.045302,-0.082307,-0.540112,0.046644,-0.081290,-0.540112,0.215525,0.694908,-0.472277,-0.734224,4.620531,-10.142427
1790542471.9840,0.015395,-0.068128,-0.553807,0.024770,-0.072076,-0.553807,-1.037470,2.276935,-0.511130,-2.267343,1.385871,-16.895574
1790542471.9982,0.015851,-0.049346,-0.558666,0.018527,-0.056165,-0.558666,-1.434494,0.407156,-0.479562,-7.096669,-0.919289,-8.240679
1790542472.0122,0.007790,-0.040349,-0.539021,0.011011,-0.045094,-0.539021,-0.973120,0.889171,-0.332651,-2.382327,-2.183408,-4.010259
1790542472.0262,-0.004257,-0.025453,-0.550406,0.000323,-0.031345,-0.550406,-1.110318,1.140498,-0.216093,-1.769080,0.233291,-4.359560
1790542472.0400,-0.019497,-0.010443,-0.564885,-0.013551,-0.016714,-0.564885,-0.998617,1.270412,-0.325366,-1.040848,1.943571,-6.921098
1790542472.0539,-0.009803,-0.021404,-0.563747,-0.010927,-0.019997,-0.563747,0.712109,-0.634577,-0.116533,-1.500784,0.382011,-21.281238
1790542472.0678,0.002885,-0.029210,-0.554561,-0.001259,-0.026446,-0.554561,0.659901,-1.076525,0.482039,1.910407,3.876931,-12.005364
1790542472.0817,0.000341,-0.032574,-0.533208,-0.000139,-0.030735,-0.533208,0.270161,-0.117353,0.989550,2.868606,1.943571,-9.870749
1790542472.0956,0.001033,-0.047221,-0.503478,0.000681,-0.042275,-0.503478,0.931869,-0.337113,1.157102,2.217030,-0.659029,-9.637881
1790542472.1095,-0.011729,-0.061978,-0.488629,-0.008006,-0.056067,-0.488629,1.122489,0.635415,0.977409,2.446998,1.757671,-7.386832
1790542472.1234,-0.028518,-0.070947,-0.481046,-0.022364,-0.066483,-0.481046,0.699967,1.095575,0.955554,0.760567,2.092291,-9.521448
1790542472.1373,-0.046563,-0.079192,-0.475315,-0.039303,-0.075379,-0.475315,0.655044,1.223060,1.047829,0.338959,2.129471,-8.473546
1790542472.1509,-0.062184,-0.082575,-0.471484,-0.055320,-0.080416,-0.471484,0.295658,1.136856,1.106108,-0.389272,2.203831,-8.784035
1790542472.1645,-0.061996,-0.084598,-0.465316,-0.059994,-0.083344,-0.465316,0.143890,0.000419,1.064827,-1.002520,2.166651,-11.694875
1790542472.1786,-0.048430,-0.086749,-0.443228,-0.051899,-0.085728,-0.443228,-0.001807,-1.070454,1.028403,1.028863,-0.733389,-12.703965
1790542472.1926,-0.043358,-0.082502,-0.422016,-0.045920,-0.083470,-0.422016,-0.378191,-0.554444,0.919130,2.791950,0.530731,-11.306763
1790542472.2068,-0.039535,-0.082794,-0.389550,-0.041451,-0.082997,-0.389550,-0.170572,-0.518020,1.036902,3.903462,-1.737248,-12.393476
1790542472.2208,-0.032008,-0.078307,-0.360977,-0.034841,-0.079714,-0.360977,-0.468037,-0.815485,1.001692,3.328542,-0.696209,-8.900469
1790542472.2348,-0.025524,-0.073962,-0.333570,-0.028319,-0.075688,-0.333570,-0.503247,-0.684357,0.869350,2.025391,-1.216729,-7.580888
1790542472.2487,-0.019138,-0.062542,-0.316047,-0.021893,-0.066485,-0.316047,-0.948837,-0.571442,0.559744,0.722239,-0.398769,-6.338930
1790542472.2626,-0.012257,-0.045022,-0.299996,-0.015148,-0.051461,-0.299996,-1.395642,-0.740208,0.519677,3.558510,-0.844929,-10.608161
1790542472.2766,-0.001896,-0.023517,-0.295289,-0.005871,-0.031900,-0.295289,-1.570478,-0.932042,0.208857,2.906934,1.088431,-10.685784
1790542472.2905,-0.018447,-0.013111,-0.305382,-0.014674,-0.018748,-0.305382,-0.678084,1.028797,0.070445,3.251886,2.649991,-10.452916
1790542472.3045,-0.022417,-0.023439,-0.314282,-0.020094,-0.022032,-0.314282,0.665972,0.596563,-0.796453,-4.950302,-0.324409,-16.623896
1790542472.3184,-0.003164,-0.039651,-0.370711,-0.008243,-0.034365,-0.370711,1.483089,-0.996392,-0.965219,-3.992103,4.955151,-7.192776
1790542472.3323,-0.022544,-0.047439,-0.380830,-0.018254,-0.043517,-0.380830,0.752176,0.981446,-0.335079,6.471437,3.021791,-4.320748
1790542472.3463,-0.007182,-0.060810,-0.390232,-0.010504,-0.055622,-0.390232,0.951295,-0.871335,-0.563338,-3.647151,0.902531,-13.092077
1790542472.3602,0.007674,-0.077700,-0.401659,0.002221,-0.071076,-0.401659,1.260901,-0.993963,-0.619188,-0.427600,1.869211,-12.665154
1790542472.3737,0.017166,-0.090394,-0.416142,0.012682,-0.084599,-0.416142,0.968293,-0.652790,-0.985859,0.300631,1.088431,-8.706413
1790542472.3873,0.023556,-0.088640,-0.439715,0.020294,-0.087427,-0.439715,0.069828,-0.485238,-0.775813,0.760567,2.575631,-6.183686
1790542472.4019,0.033149,-0.095230,-0.444750,0.029292,-0.092889,-0.444750,0.373363,-0.624864,-0.871730,0.185647,-0.212869,-9.676693
1790542472.4160,0.044582,-0.100084,-0.460372,0.039995,-0.097926,-0.460372,0.356365,-0.760848,-0.950649,-0.197632,1.423051,-11.229140
1790542472.4298,0.031810,-0.098882,-0.471607,0.034266,-0.098595,-0.471607,-0.077083,0.881886,-0.871730,2.561982,2.464091,-18.331588
1790542472.4438,0.011786,-0.079497,-0.493149,0.018530,-0.085226,-0.493149,-1.314294,1.583660,-0.648328,-2.688951,3.244871,-16.041728
1790542472.4580,0.009419,-0.059000,-0.505403,0.012153,-0.066868,-0.505403,-1.402927,0.715549,-0.552410,-7.096669,1.162791,-4.864105
1790542472.4724,0.001715,-0.045188,-0.512979,0.004847,-0.051692,-0.512979,-1.032613,0.908597,-0.365432,-3.225543,-0.175689,-4.902916
1790542472.4864,-0.017894,-0.029709,-0.529031,-0.011072,-0.036304,-0.529031,-0.798284,1.480458,-0.485633,0.070663,3.653851,-4.941727
1790542472.5006,-0.026290,-0.019542,-0.546978,-0.021725,-0.024571,-0.546978,-0.567597,0.798110,-0.341150,-2.229015,3.988471,-10.181238
1790542472.5146,-0.019018,-0.023911,-0.550402,-0.019830,-0.024109,-0.550402,0.199741,-0.328614,-0.279228,-4.222071,-1.105189,-18.137532
1790542472.5287,-0.008048,-0.027445,-0.536599,-0.011583,-0.026444,-0.536599,0.262876,-0.938113,0.559744,1.833751,2.612811,-14.217602
1790542472.5426,-0.007697,-0.037493,-0.493342,-0.008862,-0.034178,-0.493342,0.682969,-0.456099,1.075754,5.283269,1.237151,-10.414105
1790542472.5566,-0.016151,-0.053361,-0.470242,-0.013964,-0.047606,-0.470242,1.209907,0.290599,1.000477,2.753622,2.129471,-7.386832
1790542472.5706,-0.024714,-0.069766,-0.455024,-0.021489,-0.063118,-0.455024,1.178339,0.444795,0.909417,1.757095,1.608951,-11.112707
1790542472.5845,-0.042478,-0.084023,-0.443299,-0.036182,-0.077752,-0.443299,1.013216,1.185422,1.058756,0.607255,1.348691,-10.802217
1790542472.5981,-0.066558,-0.095606,-0.433289,-0.057445,-0.090250,-0.433289,0.834737,1.720858,1.272445,0.108991,1.199971,-7.969000
1790542472.6118,-0.074035,-0.099807,-0.431045,-0.069058,-0.096940,-0.431045,0.378220,0.581993,1.379290,-0.887536,2.798711,-8.007811
1790542472.6254,-0.077062,-0.106255,-0.420532,-0.074660,-0.103461,-0.420532,0.543343,0.147330,1.359863,0.913879,3.839751,-10.608161
1790542472.6395,-0.073282,-0.108791,-0.394435,-0.073696,-0.107192,-0.394435,-0.020019,-0.362610,1.376861,1.220503,-1.030829,-12.975644
1790542472.6535,-0.071194,-0.111446,-0.365579,-0.071944,-0.110170,-0.365579,-0.081940,-0.204771,1.205667,0.530599,-2.778288,-12.160609
1790542472.6675,-0.069111,-0.116668,-0.328691,-0.069961,-0.114719,-0.328691,0.101395,-0.327399,1.330724,2.676966,-2.406488,-10.879840
1790542472.6815,-0.060468,-0.115824,-0.291139,-0.063316,-0.115492,-0.291139,-0.273774,-0.905331,1.257875,3.711822,-1.142369,-8.007811
1790542472.6953,-0.050265,-0.106912,-0.274394,-0.054180,-0.109486,-0.274394,-0.699938,-0.831268,1.195954,0.952207,0.828171,-8.978091
1790542472.7093,-0.048753,-0.095505,-0.242839,-0.050381,-0.099699,-0.242839,-1.030185,-0.343183,1.051471,2.906934,-1.514168,-8.589979
1790542472.7236,-0.036425,-0.071824,-0.224405,-0.040612,-0.080187,-0.224405,-1.734387,-1.053456,0.829283,1.910407,0.344831,-7.658511
1790542472.7375,-0.029390,-0.043911,-0.207792,-0.032757,-0.054794,-0.207792,-2.096202,-0.847052,0.672659,3.481854,0.158931,-6.649420
1790542472.7515,-0.022007,-0.015845,-0.185962,-0.025232,-0.027530,-0.185962,-2.183620,-0.803343,0.531819,2.485326,-0.621849,-6.765853
1790542472.7653,-0.047550,-0.019514,-0.165115,-0.040854,-0.021918,-0.165115,-0.027304,1.756068,0.369123,3.136902,-6.273208,-20.116903
1790542472.7792,-0.033264,-0.042484,-0.239500,-0.035541,-0.036314,-0.239500,2.053736,-0.720782,-0.305940,-5.218598,8.487250,-9.637881
1790542472.7932,-0.047090,-0.045012,-0.248433,-0.043625,-0.042403,-0.248433,0.330868,0.742260,-0.083752,7.084684,4.657711,-11.850119
1790542472.8072,-0.051815,-0.054130,-0.254647,-0.049358,-0.050612,-0.254647,0.648974,0.530999,-0.162671,-2.114032,0.716631,-9.249770
1790542472.8210,-0.031934,-0.074797,-0.250332,-0.037161,-0.067542,-0.250332,1.341035,-1.125091,-0.472277,-4.643678,-2.071868,-10.142427
1790542472.8346,-0.019405,-0.098936,-0.257986,-0.024732,-0.089518,-0.257986,1.762342,-0.804557,-0.728461,-0.657568,0.084571,-8.667602
1790542472.8482,-0.005917,-0.106754,-0.290950,-0.011562,-0.101583,-0.290950,0.930654,-1.008533,-0.643471,0.875551,4.323091,-6.377742
1790542472.8620,0.006259,-0.107441,-0.307957,0.000913,-0.105683,-0.307957,0.196099,-0.882262,-0.678681,0.760567,3.021791,-10.608161
1790542472.8764,0.024479,-0.113638,-0.328373,0.017409,-0.111252,-0.328373,0.477779,-1.089881,-0.881443,-2.229015,1.311511,-9.715504
1790542472.8910,0.023024,-0.119447,-0.344232,0.021340,-0.116988,-0.344232,0.538487,0.098764,-0.586406,0.453943,3.096151,-10.258860
1790542472.9058,-0.001299,-0.106432,-0.359985,0.005492,-0.109599,-0.359985,-0.841993,1.746355,-0.565766,-1.692424,1.943571,-15.964105
1790542472.9200,-0.001590,-0.083142,-0.368181,0.000535,-0.091079,-0.368181,-1.682179,0.347664,-0.492917,-6.138470,-0.175689,-11.229140
1790542472.9335,-0.002229,-0.065811,-0.361614,-0.001400,-0.073392,-0.361614,-1.483060,0.378017,-0.406713,-4.068759,-1.997508,-7.425644
