t,imu_roll,imu_pitch,imu_yaw,lpf_roll,lpf_pitch,lpf_yaw,gyro_x,gyro_y,gyro_z,acc_x,acc_y,acc_z
1790544699.6004,-0.021587,-0.026682,0.005833,-0.015111,-0.018677,0.005833,-0.001662,0.006731,0.003551,-0.044320,1.311511,-9.754315
1790544699.6156,-0.032465,-0.029301,0.002796,-0.027259,-0.026114,0.002796,-0.011375,-0.012696,-0.002519,0.185647,1.348691,-10.336483
1790544699.6294,-0.028946,-0.035357,0.005280,-0.028440,-0.032584,0.005280,0.011694,-0.004197,-0.004948,-0.044320,1.162791,-10.103616
1790544699.6432,-0.038499,-0.035004,0.000597,-0.035482,-0.034278,0.000597,0.026264,0.011587,0.003551,0.415615,1.311511,-10.103616
1790544699.6572,-0.037627,-0.036092,0.001557,-0.036983,-0.035548,0.001557,0.021407,0.014015,0.007194,0.070663,1.237151,-10.025993
1790544699.6712,-0.039547,-0.032642,-0.000692,-0.038778,-0.033514,-0.000692,-0.018660,0.000660,0.007194,0.223975,1.423051,-9.715504
1790544699.6852,-0.038686,-0.032753,0.000036,-0.038713,-0.032981,0.000036,-0.042942,0.003088,0.003551,0.070663,1.274331,-10.142427
1790544699.6996,-0.040797,-0.029830,-0.001333,-0.040172,-0.030775,-0.001333,-0.036872,0.035870,0.030262,0.262303,1.534591,-10.220049
1790544699.7136,-0.040431,-0.024852,-0.002320,-0.040353,-0.026629,-0.002320,-0.070868,0.060153,0.088541,0.032335,1.720491,-10.064805
1790544699.7276,-0.038461,-0.019960,-0.001812,-0.039029,-0.021961,-0.001812,-0.097579,-0.004197,0.178388,-0.082648,1.757671,-9.987182
1790544699.7416,-0.038227,-0.013304,0.001735,-0.038468,-0.015901,0.001735,-0.178926,-0.085544,0.313158,0.147319,1.832031,-9.482637
1790544699.7555,-0.044294,-0.013943,0.014335,-0.042546,-0.014530,0.014335,-0.159500,-0.058833,0.458855,0.798895,1.125611,-9.521448
1790544699.7695,-0.058409,-0.022432,0.036093,-0.053650,-0.020061,0.036093,0.079686,-0.013910,0.531703,1.948735,0.530731,-10.025993
1790544699.7836,-0.056966,-0.027342,0.052332,-0.055971,-0.025158,0.052332,0.100326,-0.026051,0.548701,0.032335,0.976891,-10.414105
1790544699.7976,-0.048484,-0.035782,0.080633,-0.050730,-0.032594,0.080633,-0.004090,-0.104970,0.468568,-0.964192,0.121751,-11.112707
1790544699.8120,-0.046126,-0.043069,0.093686,-0.047507,-0.039927,0.093686,0.051761,-0.055191,0.286446,-0.120976,0.270471,-11.927742
1790544699.8260,-0.051108,-0.046905,0.087227,-0.050028,-0.044811,0.087227,0.078472,0.041941,0.246380,0.913879,0.753811,-10.491728
1790544699.8400,-0.048906,-0.051453,0.097254,-0.049243,-0.049460,0.097254,0.130680,-0.115898,0.268234,0.070663,0.716631,-10.763406
1790544699.8536,-0.046069,-0.051408,0.108679,-0.047021,-0.050823,0.108679,-0.017445,-0.017552,0.155319,-0.312616,1.162791,-10.685784
1790544699.8673,-0.044970,-0.048549,0.110852,-0.045585,-0.049231,0.110852,-0.096365,-0.046692,0.092184,0.070663,1.348691,-9.366203
1790544699.8814,-0.044154,-0.044376,0.104143,-0.044584,-0.045833,0.104143,-0.070868,-0.177819,0.043618,0.453943,1.683311,-9.210958
1790544699.8955,-0.045027,-0.039832,0.093489,-0.044894,-0.041633,0.093489,-0.131575,-0.170534,0.038761,0.798895,1.683311,-9.366203
1790544699.9094,-0.043773,-0.029576,0.077412,-0.044109,-0.033193,0.077412,-0.294270,-0.344156,0.087327,0.875551,2.575631,-9.443825
1790544699.9233,-0.040960,-0.018319,0.067535,-0.041905,-0.022781,0.067535,-0.471535,-0.474070,0.158962,0.990535,2.612811,-10.258860
1790544699.9374,-0.052506,-0.017954,0.064069,-0.049326,-0.019402,0.064069,0.074829,0.421967,0.001123,2.140375,2.315371,-12.936833
1790544699.9521,-0.048068,-0.017473,0.018202,-0.048445,-0.018052,0.018202,0.751107,0.394042,-0.303627,-2.343999,4.583351,-9.948371
1790544699.9662,-0.043877,0.003066,0.058311,-0.045248,-0.003269,0.058311,0.295803,0.050440,-0.632659,-0.772552,5.550031,-4.825294
1790544699.9803,-0.031649,-0.002565,0.001689,-0.035729,-0.002777,0.001689,0.199886,-0.262809,-0.735861,-1.539112,0.790991,-9.676693
1790544699.9942,-0.028426,-0.000042,0.001026,-0.030617,-0.000863,0.001026,0.105183,-0.155964,-1.036968,0.338959,3.133331,-11.306763
1790544700.0082,-0.029736,0.001691,0.004176,-0.030001,0.000925,0.004176,-0.006518,0.107504,-1.259156,0.760567,2.315371,-10.879840
1790544700.0221,-0.041135,0.004557,0.042323,-0.037794,0.003467,0.042323,-0.126718,0.499672,-1.380571,2.217030,2.092291,-10.181238
1790544700.0361,-0.040506,0.004267,0.018477,-0.039693,0.004027,0.018477,-0.277272,0.258058,-1.225160,-0.197632,0.270471,-8.745224
1790544700.0500,-0.045746,0.003944,0.002160,-0.043930,0.003969,0.002160,-0.090294,0.584662,-1.232445,0.185647,0.976891,-9.094525
1790544700.0639,-0.050306,0.007026,-0.024055,-0.048393,0.006109,-0.024055,-0.198353,0.634442,-1.424280,-0.005993,1.757671,-10.608161
1790544700.0776,-0.057696,0.013262,-0.017339,-0.054905,0.011116,-0.017339,-0.390187,0.441393,-1.327148,1.450471,1.608951,-8.240679
1790544700.0915,-0.063007,0.015765,-0.023021,-0.060576,0.014371,-0.023021,-0.242062,0.480246,-1.216661,0.837223,1.199971,-9.172147
1790544700.1097,-0.061868,0.013488,-0.038614,-0.061481,0.013753,-0.038614,-0.052656,0.122074,-0.896128,0.185647,0.382011,-9.210958
1790544700.1239,-0.057917,0.009960,-0.049546,-0.058986,0.011098,-0.049546,0.101541,-0.102542,-0.699437,0.032335,0.828171,-9.676693
1790544700.1378,-0.061149,0.018964,-0.078393,-0.060500,0.016605,-0.078393,-0.112148,0.198565,-0.624160,1.028863,3.802571,-7.969000
1790544700.1517,-0.049615,0.009926,-0.088404,-0.052881,0.011930,-0.088404,0.503422,-0.652549,-0.551312,-0.312616,1.385871,-15.459560
1790544700.1657,-0.050508,-0.000203,-0.068598,-0.051220,0.003437,-0.068598,0.762034,-0.268880,-0.115435,2.600310,2.315371,-12.393476
1790544700.1797,-0.058499,-0.008399,-0.057792,-0.056315,-0.004848,-0.057792,0.834882,0.069866,0.341083,2.983590,3.133331,-9.948371
1790544700.1939,-0.066529,-0.013001,-0.045127,-0.063465,-0.010555,-0.045127,0.357725,0.362474,0.535346,1.412143,2.315371,-12.665154
1790544700.2084,-0.069125,-0.013111,-0.050876,-0.067427,-0.012345,-0.050876,0.065116,0.168211,1.018574,-0.312616,2.129471,-10.452916
1790544700.2224,-0.068253,-0.021513,-0.044086,-0.068005,-0.018763,-0.044086,0.198672,0.016444,1.282043,-0.772552,-0.473129,-6.882287
1790544700.2363,-0.068188,-0.026176,-0.040701,-0.068133,-0.023952,-0.040701,0.067545,0.105076,1.456879,-0.734224,0.047391,-5.252217
1790544700.2503,-0.060317,-0.030141,-0.047703,-0.062662,-0.028284,-0.047703,0.039619,-0.287092,1.183697,-2.343999,0.084571,-9.987182
1790544700.2642,-0.058463,-0.033117,-0.036508,-0.059722,-0.031667,-0.036508,-0.063583,-0.146251,0.970008,-0.427600,-0.250049,-10.763406
1790544700.2781,-0.064915,-0.040386,-0.018663,-0.063357,-0.037770,-0.018663,0.156177,0.283555,0.965152,0.875551,-1.068009,-11.694875
1790544700.2919,-0.067105,-0.045085,-0.006931,-0.065981,-0.042891,-0.006931,0.363795,0.114789,0.980936,-0.044320,1.608951,-10.258860
1790544700.3055,-0.065017,-0.044843,-0.001112,-0.065306,-0.044257,-0.001112,0.073615,0.052868,0.809742,-1.500784,1.906391,-9.482637
1790544700.3191,-0.059682,-0.042530,0.003784,-0.061369,-0.043048,0.003784,-0.110934,-0.205744,0.657974,-1.232488,1.534591,-8.628791
1790544700.3330,-0.056693,-0.043393,0.009508,-0.058095,-0.043290,0.009508,0.026264,-0.210601,0.579055,-0.197632,1.088431,-10.025993
1790544700.3474,-0.058076,-0.045674,0.017586,-0.058082,-0.044959,0.017586,0.142821,0.007945,0.501350,0.530599,1.162791,-9.987182
1790544700.3616,-0.059477,-0.047207,0.022635,-0.059059,-0.046533,0.022635,0.139179,0.113575,0.388434,-0.082648,1.348691,-9.172147
1790544700.3756,-0.055089,-0.041912,0.040837,-0.056280,-0.043298,0.040837,-0.047799,-0.290734,0.314372,-0.197632,3.616671,-9.482637
1790544700.3898,-0.051281,-0.041104,0.050278,-0.052780,-0.041762,0.050278,-0.120647,-0.429146,0.279162,1.680439,1.162791,-14.605714
1790544700.4039,-0.042461,-0.034501,0.061803,-0.045557,-0.036679,0.061803,-0.452108,-0.799460,0.107968,1.642111,1.757671,-12.393476
1790544700.4180,-0.047987,-0.034911,0.072033,-0.047258,-0.035442,0.072033,-0.240848,-0.006625,-0.116649,4.401726,-1.142369,-12.509909
1790544700.4331,-0.050551,-0.034189,0.067893,-0.049563,-0.034565,0.067893,-0.051441,0.108719,-0.535528,1.412143,1.237151,-10.685784
1790544700.4480,-0.050979,-0.033774,0.059751,-0.050554,-0.034011,0.059751,-0.117005,0.016444,-0.885201,1.182175,0.344831,-9.172147
1790544700.4625,-0.045271,-0.033741,0.050725,-0.046856,-0.033822,0.050725,-0.076938,-0.464357,-1.001758,1.067191,0.307651,-5.912007
1790544700.4820,-0.045731,-0.040066,0.041896,-0.046069,-0.038193,0.041896,0.258165,0.001874,-0.704293,1.258831,0.307651,-8.900469
1790544700.5013,-0.040098,-0.045845,0.026362,-0.041889,-0.043549,0.026362,0.264236,-0.179033,-1.006615,0.262303,0.790991,-13.092077
1790544700.5200,-0.042566,-0.054737,0.005901,-0.042363,-0.051381,0.005901,0.424502,0.139072,-1.208162,1.412143,0.307651,-8.978091
1790544700.5395,-0.032962,-0.062450,-0.014036,-0.035782,-0.059129,-0.014036,0.385650,-0.396365,-1.154740,0.223975,0.530731,-6.998721
1790544700.5590,-0.025102,-0.070584,-0.031396,-0.028306,-0.067148,-0.031396,0.406290,-0.409720,-0.902199,0.913879,0.679451,-8.784035
1790544700.5763,-0.014659,-0.080936,-0.048250,-0.018753,-0.076800,-0.048250,0.628478,-0.492282,-0.829350,-0.580912,1.199971,-10.414105
1790544700.5952,-0.033113,-0.077450,-0.080395,-0.028805,-0.077255,-0.080395,-0.028373,0.907624,-0.592592,1.910407,3.282051,-12.471098
1790544700.6138,-0.041957,-0.062273,-0.093169,-0.038011,-0.066767,-0.093169,-0.862488,0.727931,-0.450538,-2.650623,0.419191,-11.811308
1790544700.6320,-0.047001,-0.051712,-0.100698,-0.044304,-0.056229,-0.100698,-0.777498,0.644155,-0.336408,-3.570495,-1.328269,-9.599070
1790544700.6560,-0.058522,-0.025060,-0.115956,-0.054256,-0.034410,-0.115956,-1.017898,0.760713,-0.147002,-2.305671,1.720491,-6.067252
1790544700.6700,-0.047218,-0.030568,-0.123206,-0.049329,-0.031721,-0.123206,0.078472,-0.560274,-0.177356,-3.072231,-2.555208,-16.817952
1790544700.6841,-0.050657,-0.034799,-0.116285,-0.050258,-0.033875,-0.116285,0.322514,-0.040621,0.661616,3.060246,2.426911,-14.877392
1790544700.6984,-0.057883,-0.041990,-0.103405,-0.055596,-0.039556,-0.103405,0.446357,0.373402,0.996720,0.377287,0.753811,-8.357112
1790544700.7131,-0.049454,-0.045340,-0.085503,-0.051297,-0.043605,-0.085503,0.181674,-0.528706,0.959081,-0.964192,0.753811,-7.464455
1790544700.7274,-0.049986,-0.049967,-0.072428,-0.050379,-0.048058,-0.072428,0.301874,0.243488,0.605766,-2.229015,0.976891,-9.443825
1790544700.7416,-0.068629,-0.057643,-0.071726,-0.063154,-0.054767,-0.071726,0.453642,1.060606,0.642190,2.408670,0.456371,-11.151518
1790544700.7556,-0.080114,-0.070906,-0.063635,-0.075026,-0.066064,-0.063635,0.848238,0.809279,0.701683,0.032335,0.344831,-12.005364
1790544700.7695,-0.090460,-0.077169,-0.045540,-0.085830,-0.073838,-0.045540,0.605409,0.744929,0.767247,0.070663,2.575631,-9.560259
1790544700.7834,-0.099330,-0.083941,-0.032894,-0.095280,-0.080910,-0.032894,0.508278,0.661153,0.730822,-0.005993,1.348691,-9.599070
1790544700.7977,-0.104863,-0.092490,-0.023156,-0.101988,-0.089016,-0.023156,0.575056,0.460820,0.622764,-0.350944,0.865351,-9.521448
1790544700.8117,-0.100908,-0.099006,-0.024524,-0.101232,-0.096009,-0.024524,0.292161,-0.060047,0.501350,-1.884064,-0.659029,-10.608161
1790544700.8257,-0.092574,-0.098872,-0.013303,-0.095171,-0.098013,-0.013303,-0.033229,-0.650120,0.644618,1.028863,1.125611,-13.014455
1790544700.8400,-0.081331,-0.095863,-0.014161,-0.085483,-0.096508,-0.014161,-0.367118,-0.811601,0.511063,0.492271,-0.621849,-12.160609
1790544700.8540,-0.080581,-0.091236,-0.028385,-0.082051,-0.092818,-0.028385,-0.590520,-0.437645,0.481923,3.596838,-1.514168,-8.318301
1790544700.8680,-0.076707,-0.081515,-0.031820,-0.078310,-0.084906,-0.031820,-0.932909,-0.681688,0.276733,3.558510,-1.253909,-7.542077
1790544700.8820,-0.070612,-0.066848,-0.036289,-0.072921,-0.072266,-0.036289,-1.135670,-0.775177,0.152891,3.405198,0.121751,-8.784035
1790544700.8961,-0.062281,-0.049879,-0.038787,-0.065473,-0.056595,-0.038787,-1.251014,-0.942729,0.046046,3.175230,0.456371,-7.619700
1790544700.9102,-0.053695,-0.034289,-0.045730,-0.057229,-0.040981,-0.045730,-1.055537,-0.878379,0.072757,2.025391,1.237151,-6.688231
1790544700.9241,-0.071196,-0.043101,-0.027342,-0.067005,-0.042465,-0.027342,0.418432,1.004755,-0.071725,5.053301,-1.625708,-14.178791
1790544700.9380,-0.073113,-0.045940,-0.027743,-0.071280,-0.044897,-0.027743,0.298232,0.391614,-0.731005,-2.037376,3.021791,-16.468651
1790544700.9520,-0.055410,-0.047151,-0.035419,-0.060171,-0.046475,-0.035419,0.188959,-1.147919,-0.561025,-0.427600,2.835891,-13.635434
1790544700.9663,-0.058613,-0.052312,-0.044724,-0.059081,-0.050561,-0.044724,0.275163,-0.039407,-0.416542,3.558510,-0.064149,-9.133336
1790544700.9804,-0.043948,-0.062398,-0.029342,-0.048488,-0.058847,-0.029342,0.696470,-0.780033,-0.505174,-1.424128,0.530731,-6.921098
1790544700.9941,-0.031449,-0.071496,-0.038033,-0.036561,-0.067701,-0.038033,0.762034,-0.792175,-0.585308,-0.580912,1.571771,-8.357112
1790544701.0077,-0.024760,-0.077045,-0.063077,-0.028300,-0.074242,-0.063077,0.609052,-0.495924,-0.669083,0.492271,2.464091,-8.279490
1790544701.0213,-0.019102,-0.079530,-0.083295,-0.021861,-0.077943,-0.083295,0.328585,-0.392722,-0.715221,0.262303,2.203831,-9.172147
1790544701.0353,-0.009578,-0.084987,-0.095761,-0.013263,-0.082874,-0.095761,0.451213,-0.590627,-0.687295,-0.619240,1.571771,-10.375294
1790544701.0492,-0.020692,-0.091060,-0.105343,-0.018463,-0.088604,-0.105343,0.430573,0.855416,-0.631445,-0.197632,1.051251,-14.411658
1790544701.0630,-0.022069,-0.082901,-0.086016,-0.020988,-0.084612,-0.086016,-0.580807,0.492387,-0.417756,-5.640206,1.274331,-12.975644
1790544701.0770,-0.020706,-0.073129,-0.075523,-0.020791,-0.076573,-0.075523,-0.801781,0.200993,-0.296342,-3.723807,-0.361589,-11.500819
1790544701.0909,-0.022692,-0.066945,-0.065120,-0.022122,-0.069833,-0.065120,-0.725290,0.465676,-0.168857,-2.037376,-1.365448,-5.485084
1790544701.1048,-0.030935,-0.055125,-0.062276,-0.028291,-0.059538,-0.062276,-0.779927,0.723074,-0.156715,-0.772552,1.199971,-6.377742
1790544701.1186,-0.041693,-0.048097,-0.065394,-0.037673,-0.051529,-0.065394,-0.665797,0.958618,-0.168857,-1.194160,-0.510309,-7.503266
1790544701.1326,-0.044437,-0.040060,-0.060908,-0.042408,-0.043501,-0.060908,-0.622088,0.423181,-0.173713,-2.995575,0.790991,-13.674245
1790544701.1466,-0.034882,-0.044732,-0.071809,-0.037140,-0.044362,-0.071809,0.129466,-0.675617,0.088541,-0.389272,-1.700068,-14.799770
1790544701.1605,-0.034098,-0.044475,-0.056113,-0.035011,-0.044441,-0.056113,0.069973,-0.084330,0.574198,-0.350944,2.278191,-10.025993
1790544701.1745,-0.044911,-0.052679,-0.067972,-0.041941,-0.050208,-0.067972,0.409933,0.576163,0.762390,1.220503,-0.733389,-8.589979
1790544701.1885,-0.051857,-0.061743,-0.063443,-0.048882,-0.058283,-0.063443,0.728038,0.396470,0.443071,0.568927,1.274331,-6.106063
1790544701.2026,-0.069583,-0.072837,-0.072417,-0.063372,-0.068471,-0.072417,0.839739,0.997471,0.507420,2.868606,1.683311,-9.366203
1790544701.2177,-0.084165,-0.087287,-0.059487,-0.077927,-0.081642,-0.059487,0.992721,0.927050,0.725966,0.415615,1.757671,-10.802217
1790544701.2313,-0.101045,-0.093837,-0.041703,-0.094109,-0.090178,-0.041703,0.666117,1.182020,0.848594,0.607255,2.649991,-7.386832
1790544701.2450,-0.109382,-0.100741,-0.023968,-0.104800,-0.097572,-0.023968,0.561700,0.638084,0.844952,-0.159304,2.426911,-11.772497
1790544701.2590,-0.106117,-0.108057,-0.011534,-0.105722,-0.104912,-0.011534,0.498565,-0.302876,0.824311,1.373815,1.385871,-12.781588
1790544701.2728,-0.099171,-0.109343,-0.002188,-0.101136,-0.108014,-0.002188,-0.000447,-0.501995,0.662831,0.338959,0.047391,-11.811308
1790544701.2868,-0.095857,-0.112337,0.001509,-0.097441,-0.111040,0.001509,0.010480,-0.304090,0.708968,1.105519,-1.476988,-10.724595
1790544701.3008,-0.095631,-0.111444,-0.002088,-0.096174,-0.111323,-0.002088,-0.228706,-0.302876,0.744178,3.213558,-0.807749,-8.163056
1790544701.3147,-0.095685,-0.103352,-0.001336,-0.095831,-0.105743,-0.001336,-0.741074,-0.339300,0.762390,3.903462,-0.733389,-8.201867
1790544701.3286,-0.091359,-0.087764,0.000635,-0.092701,-0.093158,0.000635,-1.192735,-0.725397,0.548701,4.325070,0.121751,-7.076343
1790544701.3426,-0.089620,-0.068252,0.005204,-0.090544,-0.075724,0.005204,-1.491414,-0.484997,0.451570,3.673494,0.047391,-7.192776
1790544701.3565,-0.076514,-0.051444,0.017695,-0.080723,-0.058728,0.017695,-1.359072,-1.109066,0.251236,2.140375,-0.547489,-9.172147
1790544701.3705,-0.065591,-0.035378,0.006723,-0.070130,-0.042383,0.006723,-1.147812,-1.126064,0.234238,4.018446,1.237151,-8.784035
1790544701.3843,-0.074103,-0.043164,0.041534,-0.072911,-0.042929,0.041534,0.304302,0.487531,0.149248,3.366870,-2.815468,-15.537182
1790544701.3984,-0.077758,-0.052382,0.043978,-0.076304,-0.049546,0.043978,0.729252,0.472961,-0.491819,-2.114032,2.649991,-14.760958
1790544701.4124,-0.063289,-0.052492,0.044819,-0.067194,-0.051608,0.044819,0.161033,-0.716898,-0.667869,-2.650623,2.538451,-8.706413
1790544701.4263,-0.066024,-0.054918,0.028761,-0.066375,-0.053925,0.028761,0.165890,0.044369,-0.151859,1.948735,0.605091,-7.658511
1790544701.4402,-0.052010,-0.063743,0.043964,-0.056319,-0.060797,0.043964,0.623622,-0.787318,-0.350978,-2.420655,0.902531,-11.229140
1790544701.4542,-0.038882,-0.074385,0.029623,-0.044113,-0.070309,0.029623,0.822741,-0.926945,-0.505174,0.530599,1.534591,-9.676693
1790544701.4682,-0.030290,-0.083131,0.003548,-0.034437,-0.079284,0.003548,0.762034,-0.656191,-0.561025,0.875551,1.980751,-8.279490
1790544701.4818,-0.019831,-0.087384,-0.025814,-0.024213,-0.084954,-0.025814,0.499779,-0.792175,-0.641158,0.607255,2.241011,-7.153965
1790544701.4957,-0.009980,-0.094184,-0.044339,-0.014250,-0.091415,-0.044339,0.570199,-0.669547,-0.750431,-0.044320,1.534591,-8.667602
1790544701.5097,-0.021470,-0.101021,-0.058058,-0.019304,-0.098139,-0.058058,0.521634,0.757070,-0.551312,1.948735,1.608951,-14.877392
1790544701.5236,-0.033018,-0.091431,-0.066616,-0.028904,-0.093444,-0.066616,-0.668226,0.905196,-0.519744,-0.964192,1.869211,-19.806413
1790544701.5376,-0.026170,-0.078804,-0.008068,-0.026990,-0.083196,-0.008068,-1.130814,-0.132896,-0.490604,-4.107087,-1.960328,-9.172147
1790544701.5517,-0.032378,-0.070358,0.012307,-0.030761,-0.074209,0.012307,-0.962048,0.594375,-0.202853,-1.117504,-2.778288,-6.338930
1790544701.5661,-0.045428,-0.056931,0.022236,-0.041028,-0.062115,0.022236,-1.002115,1.105529,-0.138503,-1.270816,0.047391,-5.679140
1790544701.5800,-0.060215,-0.044359,0.023198,-0.054459,-0.049686,0.023198,-0.880700,1.189305,-0.231992,-0.465928,0.679451,-5.058161
1790544701.5940,-0.068649,-0.037218,0.020889,-0.064392,-0.040958,0.020889,-0.455751,0.703648,-0.257489,-0.465928,2.017931,-10.957462
1790544701.6078,-0.057391,-0.043726,0.028686,-0.059491,-0.042896,0.028686,0.368652,-0.645264,0.044832,-3.493839,-0.250049,-16.546273
1790544701.6218,-0.060031,-0.039113,0.018656,-0.059869,-0.040248,0.018656,-0.269987,0.017658,0.475853,1.833751,2.241011,-9.909560
1790544701.6358,-0.064036,-0.038833,0.030794,-0.062786,-0.039258,0.030794,-0.101221,0.231347,0.698041,-0.005993,0.530731,-11.617252
1790544701.6497,-0.062939,-0.045848,0.045164,-0.062893,-0.043871,0.045164,0.372294,-0.009053,0.557200,-0.925864,-0.212869,-6.300119
1790544701.6640,-0.077405,-0.053307,0.016752,-0.073052,-0.050476,0.016752,0.515563,0.738858,0.512277,2.715294,0.865351,-7.503266
1790544701.6779,-0.087176,-0.062793,0.022717,-0.082939,-0.059098,0.022717,0.649119,0.624729,0.614265,0.875551,0.976891,-10.297672
1790544701.6915,-0.099469,-0.069998,0.033587,-0.094510,-0.066728,0.033587,0.579913,0.910052,0.700469,-0.197632,2.055111,-9.327392
1790544701.7055,-0.106936,-0.073593,0.047366,-0.103208,-0.071533,0.047366,0.294589,0.566450,0.736893,-0.542584,2.315371,-10.685784
1790544701.7199,-0.110465,-0.078241,0.061743,-0.108288,-0.076228,0.061743,0.334656,0.304195,0.626406,-0.734224,1.720491,-9.909560
1790544701.7339,-0.105576,-0.083983,0.070633,-0.106390,-0.081657,0.070633,0.185316,-0.270094,0.555986,-1.194160,-2.071868,-12.082986
1790544701.7479,-0.098983,-0.083790,0.079544,-0.101205,-0.083150,0.079544,-0.068439,-0.484997,0.470996,0.492271,0.716631,-12.781588
1790544701.7619,-0.094433,-0.076627,0.075638,-0.096464,-0.078584,0.075638,-0.583236,-0.493496,0.600909,2.485326,0.493551,-10.802217
1790544701.7759,-0.090650,-0.072523,0.069932,-0.092395,-0.074341,0.069932,-0.473963,-0.432789,0.557200,2.025391,-1.105189,-9.405014
1790544701.7900,-0.084106,-0.064410,0.051904,-0.086593,-0.067390,0.051904,-0.727719,-0.726611,0.367794,2.945262,-0.770569,-7.852567
1790544701.8039,-0.075394,-0.050497,0.034961,-0.078754,-0.055564,0.034961,-1.073749,-0.888092,0.129822,3.175230,0.158931,-8.163056
1790544701.8178,-0.064931,-0.035253,0.023336,-0.069078,-0.041347,0.023336,-1.164810,-1.001007,0.008408,3.290214,0.196111,-8.473546
1790544701.8317,-0.074754,-0.032095,0.014664,-0.073051,-0.034871,0.014664,-0.263916,0.573735,0.013265,3.328542,0.939711,-14.217602
1790544701.8457,-0.086843,-0.037757,0.002118,-0.082706,-0.036891,0.002118,0.401434,0.897911,-0.680011,2.370342,0.902531,-16.041728
1790544701.8596,-0.065821,-0.041811,0.018480,-0.070887,-0.040335,0.018480,0.474282,-1.191628,-0.939837,-2.382327,3.282051,-9.094525
1790544701.8735,-0.076687,-0.045200,-0.011296,-0.074947,-0.043741,-0.011296,0.383221,0.396470,-0.414114,4.861661,1.794851,-5.523895
1790544701.8875,-0.071615,-0.053075,0.009803,-0.072615,-0.050275,0.009803,0.431787,-0.245811,-0.442039,-0.312616,-0.844929,-9.443825
1790544701.9016,-0.055397,-0.061962,0.007100,-0.060562,-0.058455,0.007100,0.674616,-1.028933,-0.604734,-0.619240,1.460231,-10.297672
1790544701.9151,-0.048695,-0.069621,-0.013554,-0.052255,-0.066271,-0.013554,0.630906,-0.489854,-0.835421,1.067191,1.348691,-9.094525
1790544701.9287,-0.043215,-0.072279,-0.039552,-0.045927,-0.070476,-0.039552,0.361367,-0.373296,-0.828136,0.568927,2.389731,-8.007811
1790544701.9424,-0.035064,-0.076568,-0.054822,-0.038323,-0.074741,-0.054822,0.346797,-0.543276,-0.900984,0.338959,0.976891,-8.589979
1790544701.9562,-0.030980,-0.085405,-0.070388,-0.033183,-0.082206,-0.070388,0.663688,-0.260381,-0.841492,0.453943,0.939711,-8.978091
1790544701.9706,-0.040553,-0.088730,-0.084410,-0.038342,-0.086773,-0.084410,0.315230,0.757070,-0.652085,-0.734224,2.910251,-15.614805
1790544701.9847,-0.050235,-0.078769,-0.074317,-0.046667,-0.081170,-0.074317,-0.704650,0.900339,-0.503960,-3.455511,1.274331,-15.381938
1790544701.9986,-0.045620,-0.067684,-0.036182,-0.045934,-0.071730,-0.036182,-0.896484,0.010373,-0.451752,-5.065286,-0.696209,-11.772497
1790544702.0125,-0.046699,-0.061804,-0.010952,-0.046470,-0.064782,-0.010952,-0.662155,0.356404,-0.211352,-1.730752,-1.328269,-4.747672
1790544702.0266,-0.057700,-0.044630,-0.021625,-0.054331,-0.050676,-0.021625,-1.005757,0.954976,-0.275701,-1.040848,2.389731,-5.252217
1790544702.0405,-0.069071,-0.034068,-0.017493,-0.064649,-0.039050,-0.017493,-0.884343,1.054535,-0.255061,-1.730752,-0.584669,-6.882287
1790544702.0544,-0.068061,-0.033364,-0.018869,-0.067038,-0.035070,-0.018869,-0.181355,-0.005411,-0.156715,-0.580912,-1.588528,-21.281238
1790544702.0684,-0.060798,-0.039465,-0.013779,-0.062670,-0.038146,-0.013779,0.397791,-0.597912,0.423645,0.837223,1.274331,-14.062357
1790544702.0823,-0.062985,-0.037858,-0.003659,-0.062890,-0.037944,-0.003659,-0.076938,0.111147,0.608194,-0.044320,2.352551,-10.957462
1790544702.0963,-0.069323,-0.043376,-0.003000,-0.067393,-0.041747,-0.003000,0.196244,0.332121,0.734465,0.607255,-0.993649,-7.153965
1790544702.1101,-0.072588,-0.052191,0.005246,-0.071029,-0.049058,0.005246,0.582341,0.282341,0.197814,-0.274288,0.233291,-5.834385
1790544702.1241,-0.091200,-0.060129,-0.014471,-0.085149,-0.056808,-0.014471,0.577484,1.114028,0.433358,3.443526,1.423051,-10.336483
1790544702.1380,-0.104974,-0.069635,-0.015350,-0.099027,-0.065787,-0.015350,0.738965,0.861487,0.638548,1.603783,2.241011,-9.133336
1790544702.1516,-0.115332,-0.077852,-0.001607,-0.110440,-0.074232,-0.001607,0.661260,0.766784,0.789101,-0.044320,2.017931,-7.930189
1790544702.1653,-0.123700,-0.082882,0.013237,-0.119722,-0.080287,0.013237,0.430573,0.624729,0.817027,-0.159304,2.724351,-9.560259
1790544702.1793,-0.125224,-0.093266,0.031006,-0.123573,-0.089372,0.031006,0.646690,0.162141,0.753891,-0.619240,0.382011,-10.220049
1790544702.1933,-0.123182,-0.095422,0.038819,-0.123299,-0.093607,0.038819,0.133108,-0.231241,0.725966,2.063719,1.980751,-13.596623
1790544702.2075,-0.117064,-0.093924,0.048464,-0.118934,-0.093829,0.048464,-0.218993,-0.443716,0.563271,0.645583,-0.250049,-12.703965
1790544702.2218,-0.109982,-0.088238,0.042621,-0.112668,-0.089915,0.042621,-0.546811,-0.705971,0.653117,3.060246,-0.659029,-9.016902
1790544702.2358,-0.110781,-0.081831,0.032545,-0.111347,-0.084257,0.032545,-0.637872,-0.227599,0.585125,4.056774,-1.216729,-8.667602
1790544702.2498,-0.099288,-0.070528,0.031146,-0.102905,-0.074647,0.031146,-0.915911,-1.002221,0.433358,1.948735,-0.138509,-6.765853
1790544702.2638,-0.092111,-0.058381,0.022191,-0.095349,-0.063261,0.022191,-0.934123,-0.795817,0.269448,4.056774,0.233291,-8.551168
1790544702.2777,-0.080501,-0.044651,0.014999,-0.084956,-0.050234,0.014999,-1.002115,-1.043502,0.163818,3.021918,0.902531,-8.667602
1790544702.2916,-0.091632,-0.041826,0.003349,-0.089629,-0.044349,0.003349,-0.161928,0.611373,0.105539,3.865134,1.980751,-10.918651
1790544702.3055,-0.096063,-0.045471,0.010922,-0.094133,-0.045134,0.010922,0.340727,0.553095,-0.639944,-1.539112,1.720491,-9.637881
1790544702.3195,-0.078069,-0.049337,0.042563,-0.082888,-0.048076,0.042563,0.321300,-0.901448,-0.845134,-4.145415,1.348691,-10.297672
1790544702.3333,-0.076920,-0.051336,0.023600,-0.078710,-0.050358,0.023600,0.333442,-0.087972,-0.462679,1.067191,2.984611,-7.969000
1790544702.3474,-0.073688,-0.063009,0.032820,-0.075195,-0.059213,0.032820,0.831240,-0.050334,-0.285414,-1.999048,0.902531,-11.190329
1790544702.3614,-0.055031,-0.073151,0.036087,-0.061080,-0.068970,0.036087,0.759606,-1.104209,-0.700651,-2.458983,1.237151,-10.957462
1790544702.3750,-0.047241,-0.079612,0.015768,-0.051393,-0.076420,0.015768,0.609052,-0.556631,-0.950764,1.067191,2.389731,-9.443825
1790544702.3886,-0.042086,-0.083026,-0.004404,-0.044878,-0.081044,-0.004404,0.417217,-0.353870,-0.917982,0.645583,2.315371,-7.386832
1790544702.4022,-0.029257,-0.088312,-0.012945,-0.033943,-0.086132,-0.012945,0.418432,-0.784890,-0.944694,-0.887536,0.716631,-6.765853
1790544702.4161,-0.021056,-0.099220,-0.022158,-0.024922,-0.095294,-0.022158,0.719539,-0.551775,-0.797782,0.185647,-0.287229,-8.900469
1790544702.4301,-0.029522,-0.105686,-0.033115,-0.028142,-0.102568,-0.033115,0.449999,0.588305,-0.595021,1.373815,0.567911,-15.731238
1790544702.4439,-0.043306,-0.095220,-0.037125,-0.038757,-0.097424,-0.037125,-0.709506,1.141953,-0.505174,-2.535639,2.241011,-16.701518
1790544702.4579,-0.036124,-0.082156,-0.025982,-0.036914,-0.086736,-0.025982,-0.966905,-0.111041,-0.485748,-6.828373,0.047391,-10.336483
1790544702.4722,-0.037058,-0.074422,-0.034126,-0.037015,-0.078117,-0.034126,-0.792068,0.362474,-0.359477,-2.612295,-2.109048,-5.368651
1790544702.4861,-0.044008,-0.064508,-0.032229,-0.041910,-0.068591,-0.032229,-0.863702,0.754642,-0.201639,-1.884064,-0.844929,-5.174595
1790544702.5001,-0.052740,-0.051707,-0.031272,-0.049491,-0.056772,-0.031272,-0.988759,0.776497,-0.165214,-1.615768,-0.175689,-9.094525
1790544702.5141,-0.051092,-0.044317,-0.022685,-0.050612,-0.048053,-0.022685,-0.585664,0.092935,-0.017089,-3.838791,0.233291,-12.587532
1790544702.5280,-0.043804,-0.046926,-0.018722,-0.045846,-0.047264,-0.018722,0.077258,-0.542062,0.568127,-1.079176,-0.510309,-16.391028
1790544702.5419,-0.045955,-0.046461,-0.019117,-0.045922,-0.046702,-0.019117,-0.066011,-0.066118,0.932370,1.680439,0.902531,-9.016902
1790544702.5559,-0.046065,-0.041373,0.015293,-0.046022,-0.042972,0.015293,-0.249347,0.146357,0.666473,-1.654096,1.608951,-5.058161
1790544702.5698,-0.046608,-0.041495,0.021028,-0.046432,-0.041938,0.021028,-0.035658,0.060153,0.362937,-0.542584,0.419191,-6.765853
1790544702.5846,-0.051950,-0.050286,0.015377,-0.050294,-0.047781,0.015377,0.515563,0.267771,0.444285,0.990535,0.084571,-11.345574
1790544702.5997,-0.061705,-0.056570,0.020465,-0.058282,-0.053934,0.020465,0.433001,0.544596,0.542630,1.182175,1.608951,-10.142427
1790544702.6140,-0.066706,-0.058953,0.039656,-0.064179,-0.057447,0.039656,0.221741,0.339406,0.643404,-0.427600,2.278191,-10.181238
1790544702.6280,-0.067981,-0.064318,0.053290,-0.066840,-0.062257,0.053290,0.383221,0.056510,0.664045,-0.044320,1.348691,-9.909560
1790544702.6428,-0.069049,-0.068425,0.067410,-0.068387,-0.066575,0.067410,0.281234,0.052868,0.605766,-0.159304,1.274331,-9.210958
1790544702.6575,-0.069915,-0.071683,0.082191,-0.069457,-0.070150,0.082191,0.243595,0.033442,0.599695,-0.005993,1.423051,-8.706413
1790544702.6713,-0.071061,-0.073860,0.098606,-0.070580,-0.072747,0.098606,0.259379,0.049226,0.524418,0.300631,2.798711,-9.987182
1790544702.6852,-0.070689,-0.072819,0.100196,-0.070656,-0.072797,0.100196,-0.135217,-0.095257,0.490422,0.952207,0.419191,-11.927742
1790544702.6990,-0.065303,-0.062933,0.085557,-0.066909,-0.065892,0.085557,-0.792068,-0.559060,0.265806,3.673494,0.121751,-14.256413
1790544702.7133,-0.064926,-0.050046,0.046174,-0.065521,-0.054800,0.046174,-1.010614,-0.325944,0.072757,5.283269,-0.435949,-9.909560
1790544702.7278,-0.058904,-0.034365,0.025271,-0.060889,-0.040495,0.025271,-1.077391,-0.777605,-0.024374,3.558510,0.642271,-4.670049
1790544702.7418,-0.052551,-0.027878,0.027114,-0.055052,-0.031663,0.027114,-0.413256,-0.446144,-0.065655,0.185647,2.055111,-9.405014
1790544702.7558,-0.064081,-0.038265,0.017128,-0.061373,-0.036285,0.017128,0.740179,0.862701,-0.468750,0.952207,1.199971,-12.354665
1790544702.7701,-0.053353,-0.040959,0.022231,-0.055759,-0.039557,0.022231,0.317658,-0.448573,-1.044253,-2.918919,2.984611,-10.685784
1790544702.7840,-0.055841,-0.038900,-0.002481,-0.055816,-0.039097,-0.002481,-0.114577,0.091721,-1.047896,3.788478,1.311511,-9.754315
1790544702.7979,-0.061441,-0.040683,-0.021283,-0.059754,-0.040207,-0.021283,0.122181,0.273842,-0.724934,4.171758,0.753811,-10.414105
1790544702.8117,-0.047216,-0.042356,-0.012687,-0.050978,-0.041711,-0.012687,0.133108,-0.713256,-0.814780,-2.765607,0.828171,-8.163056
1790544702.8256,-0.042157,-0.046094,-0.026306,-0.044803,-0.044779,-0.026306,0.318872,-0.299233,-0.902199,0.683911,1.497411,-8.667602
1790544702.8392,-0.039723,-0.048100,-0.040701,-0.041247,-0.047104,-0.040701,0.198672,-0.107399,-0.968976,0.645583,1.534591,-8.861658
1790544702.8527,-0.041073,-0.045215,-0.055784,-0.041125,-0.045782,-0.055784,-0.163142,0.125717,-0.877916,1.335487,1.794851,-10.103616
1790544702.8666,-0.039538,-0.045402,-0.066005,-0.040014,-0.045516,-0.066005,0.005623,-0.011482,-0.775928,-0.005993,0.902531,-10.297672
1790544702.8805,-0.035273,-0.047206,-0.071459,-0.036695,-0.046699,-0.071459,0.139179,-0.157179,-0.684867,-0.925864,1.051251,-8.939280
1790544702.8944,-0.038246,-0.046074,-0.078240,-0.037781,-0.046262,-0.078240,0.073615,0.271414,-0.570738,0.223975,2.873071,-7.813756
1790544702.9082,-0.045698,-0.040064,-0.082872,-0.043323,-0.041923,-0.082872,-0.245704,0.629585,-0.494247,-0.312616,4.397451,-10.220049
1790544702.9222,-0.054554,-0.035597,-0.091028,-0.051185,-0.037495,-0.091028,-0.301555,0.746143,-0.550097,-0.389272,1.757671,-13.208511
1790544702.9361,-0.061643,-0.025978,-0.093906,-0.058506,-0.029433,-0.093906,-0.577165,0.710933,-0.411685,-1.999048,2.947431,-9.831937
1790544702.9500,-0.056211,-0.026596,-0.097904,-0.056900,-0.027447,-0.097904,-0.096365,-0.171748,-0.168857,-3.225543,-1.142369,-10.763406
1790544702.9640,-0.055680,-0.034001,-0.094455,-0.056046,-0.032035,-0.094455,0.487638,-0.095257,0.339869,0.530599,0.902531,-10.996273
1790544702.9785,-0.066416,-0.044764,-0.088193,-0.063305,-0.040945,-0.088193,0.640620,0.551880,0.868021,1.833751,-0.101329,-9.831937
1790544702.9926,-0.071075,-0.053414,-0.075697,-0.068744,-0.049674,-0.075697,0.475496,0.262915,1.011289,-0.197632,-0.324409,-6.921098
1790544703.0065,-0.065526,-0.062578,-0.052970,-0.066491,-0.058707,-0.052970,0.543488,-0.128039,0.557200,-4.988630,-0.659029,-9.016902
1790544703.0205,-0.073953,-0.065462,-0.048748,-0.071715,-0.063436,-0.048748,0.167104,0.492387,0.600909,1.565455,0.865351,-11.733686
1790544703.0345,-0.092710,-0.076113,-0.048970,-0.086412,-0.072310,-0.048970,0.640620,1.224515,0.671330,1.718767,-0.584669,-10.841028
1790544703.0486,-0.103572,-0.084468,-0.029154,-0.098424,-0.080820,-0.029154,0.636977,0.719432,0.926299,0.300631,1.943571,-7.580888
1790544703.0627,-0.115298,-0.091783,-0.010569,-0.110235,-0.088494,-0.010569,0.556844,0.798351,0.878948,0.377287,2.055111,-8.473546
1790544703.0763,-0.120208,-0.097873,0.007354,-0.117216,-0.095059,0.007354,0.486424,0.363688,0.808528,0.070663,2.166651,-9.172147
1790544703.0900,-0.120130,-0.102029,0.020347,-0.119256,-0.099938,0.020347,0.292161,0.061367,0.659188,-0.810880,1.460231,-10.763406
1790544703.1040,-0.118359,-0.108256,0.025747,-0.118628,-0.105761,0.025747,0.331013,-0.098900,0.637334,-0.159304,-0.398769,-13.014455
1790544703.1178,-0.111159,-0.111630,0.027395,-0.113400,-0.109869,0.027395,0.122181,-0.577272,0.541416,1.488799,-0.696209,-11.811308
1790544703.1318,-0.106665,-0.110331,0.026861,-0.108686,-0.110193,0.026861,-0.180140,-0.478926,0.484352,2.600310,-0.175689,-8.628791
1790544703.1457,-0.097316,-0.104983,0.019059,-0.100727,-0.106546,0.019059,-0.541955,-0.923302,0.458855,3.520182,-1.142369,-7.464455
1790544703.1599,-0.093585,-0.092624,0.018450,-0.095727,-0.096801,0.018450,-0.964476,-0.589413,0.481923,4.363398,-0.250049,-6.959909
1790544703.1738,-0.084314,-0.081592,0.019303,-0.087738,-0.086155,0.019303,-0.911054,-0.831027,0.326513,3.213558,-0.882109,-11.190329
1790544703.1878,-0.076010,-0.070541,0.017487,-0.079528,-0.075225,0.017487,-0.844276,-0.835884,0.144392,4.018446,0.121751,-8.978091
1790544703.2018,-0.064727,-0.057532,0.016960,-0.069167,-0.062840,0.016960,-0.972975,-1.042288,0.135893,3.251886,0.382011,-7.891378
1790544703.2161,-0.067348,-0.056886,0.019509,-0.067894,-0.058672,0.019509,-0.159500,0.112361,-0.040158,2.638638,-1.365448,-15.537182
1790544703.2307,-0.072926,-0.066472,0.017026,-0.071417,-0.064132,0.017026,0.683115,0.542167,-0.649657,-1.385800,1.199971,-13.169700
1790544703.2447,-0.058028,-0.070664,0.009787,-0.062045,-0.068704,0.009787,0.369866,-0.913589,-0.898556,-0.925864,1.720491,-11.112707
1790544703.2586,-0.057364,-0.072609,-0.003075,-0.058768,-0.071437,-0.003075,0.157391,-0.234884,-0.291485,2.600310,0.679451,-6.571797
1790544703.2726,-0.046314,-0.084673,0.003963,-0.050050,-0.080702,0.003963,0.859165,-0.637979,-0.301198,-2.229015,0.716631,-11.811308
1790544703.2865,-0.023853,-0.099902,0.011593,-0.031712,-0.094142,0.011593,1.101994,-1.366464,-0.683653,-3.148887,0.567911,-9.133336
1790544703.3001,-0.013890,-0.108503,-0.007909,-0.019237,-0.104195,-0.007909,0.776604,-0.818886,-0.761358,1.565455,2.389731,-7.891378
1790544703.3137,-0.007797,-0.114558,-0.023183,-0.011229,-0.111449,-0.023183,0.553201,-0.489854,-0.734647,0.913879,2.092291,-8.822846
1790544703.3276,0.001777,-0.120833,-0.036712,-0.002125,-0.118018,-0.036712,0.451213,-0.681688,-0.869417,0.223975,0.642271,-8.473546
1790544703.3415,-0.011517,-0.131918,-0.049497,-0.008699,-0.127748,-0.049497,0.751107,0.817778,-0.783213,4.631693,-0.398769,-17.244875
1790544703.3554,-0.014393,-0.124577,-0.042524,-0.012685,-0.125528,-0.042524,-0.558953,0.464462,-0.568310,-6.138470,-0.026969,-14.528091
1790544703.3694,-0.013089,-0.112029,-0.038382,-0.012968,-0.116079,-0.038382,-0.968119,0.149999,-0.500318,-4.452038,-0.696209,-11.345574
1790544703.3833,-0.011929,-0.102990,-0.035643,-0.012241,-0.106917,-0.035643,-0.923195,0.231347,-0.423827,-3.455511,-2.815468,-5.795574
1790544703.3972,-0.018442,-0.086483,-0.035457,-0.016581,-0.092613,-0.035457,-1.213375,0.594375,-0.331552,-0.887536,0.196111,-5.174595
1790544703.4112,-0.027858,-0.073332,-0.035333,-0.024475,-0.079116,-0.035333,-1.037325,0.873628,-0.269631,-1.960720,-0.510309,-6.765853
1790544703.4252,-0.038900,-0.064142,-0.033578,-0.034573,-0.068634,-0.033578,-0.688866,1.114028,-0.332766,-4.452038,0.233291,-8.784035
1790544703.4391,-0.038725,-0.066337,-0.033460,-0.037479,-0.067026,-0.033460,0.106397,0.188852,-0.246562,-3.877119,0.010211,-13.829490
1790544703.4531,-0.038463,-0.074968,-0.038169,-0.038168,-0.072585,-0.038169,0.491280,-0.117112,0.651903,0.568927,-0.882109,-9.172147
1790544703.4670,-0.046960,-0.070263,-0.032151,-0.044323,-0.070959,-0.032151,-0.337979,0.516670,0.659188,0.722239,1.014071,-9.288581
1790544703.4813,-0.046443,-0.072046,-0.024324,-0.045807,-0.071720,-0.024324,0.021407,0.024943,0.514705,-1.424128,-0.584669,-8.822846
1790544703.4952,-0.048349,-0.077078,-0.012247,-0.047586,-0.075470,-0.012247,0.306731,0.302981,0.277947,-2.229015,-0.064149,-7.813756
1790544703.5091,-0.057589,-0.081215,-0.013218,-0.054588,-0.079491,-0.013218,0.323729,0.554309,0.348368,1.488799,1.311511,-9.172147
1790544703.5231,-0.064546,-0.084819,-0.001463,-0.061559,-0.083221,-0.001463,0.306731,0.469319,0.468568,0.300631,1.980751,-10.957462
1790544703.5367,-0.069854,-0.089126,0.014373,-0.067366,-0.087355,0.014373,0.377151,0.401327,0.534131,-0.235960,1.720491,-8.900469
1790544703.5503,-0.071130,-0.093008,0.027656,-0.070001,-0.091312,0.027656,0.314015,0.080793,0.562057,0.070663,1.534591,-10.297672
1790544703.5643,-0.072674,-0.096062,0.036961,-0.071872,-0.094637,0.036961,0.218098,0.071080,0.536560,0.492271,0.976891,-9.327392
1790544703.5783,-0.072343,-0.098079,0.054922,-0.072202,-0.097046,0.054922,0.258165,-0.026051,0.559628,-0.044320,2.798711,-9.560259
1790544703.5923,-0.064362,-0.100460,0.057793,-0.066714,-0.099436,0.057793,0.088185,-0.569987,0.514705,-0.235960,-0.324409,-10.918651
1790544703.6061,-0.056885,-0.096720,0.061381,-0.059834,-0.097534,0.061381,-0.296698,-0.597912,0.418788,0.990535,0.642271,-12.781588
1790544703.6201,-0.051399,-0.087247,0.043305,-0.053929,-0.090333,0.043305,-0.794496,-0.538419,0.223311,2.332014,-0.919289,-10.375294
1790544703.6341,-0.051334,-0.073642,0.004807,-0.052113,-0.078649,0.004807,-1.065250,-0.315017,-0.018303,4.018446,-0.398769,-6.959909
1790544703.6481,-0.042823,-0.059121,-0.009796,-0.045610,-0.064980,-0.009796,-1.072535,-0.793389,-0.136075,2.178703,0.233291,-6.261308
1790544703.6621,-0.041274,-0.052316,-0.016954,-0.042575,-0.056115,-0.016954,-0.488533,-0.177819,-0.149431,1.718767,1.237151,-11.733686
1790544703.6761,-0.053550,-0.060086,-0.023464,-0.050258,-0.058895,-0.023464,0.605409,0.931907,-0.463893,0.377287,2.315371,-13.945924
1790544703.6900,-0.042541,-0.060301,-0.024304,-0.044856,-0.059879,-0.024304,0.130680,-0.563916,-1.098890,-2.497311,3.616671,-14.256413
1790544703.7039,-0.045129,-0.057913,-0.047387,-0.045047,-0.058502,-0.047387,-0.130361,0.018872,-0.945908,4.171758,1.311511,-8.434735
1790544703.7180,-0.045933,-0.057395,-0.058521,-0.045667,-0.057727,-0.058521,-0.119433,0.113575,-0.704293,0.377287,-0.435949,-7.852567
1790544703.7324,-0.034298,-0.061791,-0.050008,-0.037709,-0.060572,-0.050008,0.248452,-0.508066,-0.888843,-2.918919,-0.250049,-8.279490
1790544703.7464,-0.026437,-0.069267,-0.061399,-0.029819,-0.066658,-0.061399,0.562915,-0.480140,-0.905841,0.032335,1.311511,-9.948371
1790544703.7601,-0.022086,-0.070182,-0.075555,-0.024406,-0.069125,-0.075555,0.192601,-0.294377,-1.010257,0.875551,2.501271,-8.124245
1790544703.7739,-0.020247,-0.069496,-0.089947,-0.021495,-0.069385,-0.089947,0.012908,-0.101328,-0.933766,0.760567,1.906391,-9.288581
1790544703.7881,-0.018717,-0.070615,-0.099311,-0.019550,-0.070246,-0.099311,0.112468,0.027371,-0.919197,-0.964192,1.646131,-10.491728
1790544703.8020,-0.012823,-0.072435,-0.108362,-0.014841,-0.071778,-0.108362,0.144035,-0.295591,-0.887629,-0.887536,1.237151,-9.793126
1790544703.8160,-0.014689,-0.074401,-0.118697,-0.014735,-0.073614,-0.118697,0.202314,0.142715,-0.667869,0.568927,1.646131,-7.969000
1790544703.8300,-0.019826,-0.071717,-0.123299,-0.018298,-0.072286,-0.123299,-0.067225,0.413468,-0.477249,-0.082648,3.207691,-10.258860
1790544703.8439,-0.030407,-0.067058,-0.128611,-0.026775,-0.068627,-0.128611,-0.289413,0.798351,-0.370404,-0.005993,2.501271,-14.760958
1790544703.8578,-0.035447,-0.056185,-0.126925,-0.032845,-0.059918,-0.126925,-0.737432,0.594375,-0.268416,-3.417183,1.757671,-9.987182
1790544703.8718,-0.036607,-0.047854,-0.126073,-0.035478,-0.051473,-0.126073,-0.606304,0.262915,-0.109364,-2.497311,0.902531,-9.249770
1790544703.8856,-0.032272,-0.051756,-0.125717,-0.033234,-0.051671,-0.125717,0.198672,-0.208173,0.135893,-2.114032,-0.250049,-10.879840
1790544703.8995,-0.036478,-0.056242,-0.115119,-0.035505,-0.054871,-0.115119,0.365009,0.139072,0.797600,1.488799,1.906391,-10.375294
1790544703.9134,-0.043681,-0.063381,-0.105660,-0.041228,-0.060828,-0.105660,0.446357,0.361260,1.034358,0.760567,0.084571,-7.348021
1790544703.9272,-0.044356,-0.070340,-0.089741,-0.043417,-0.067487,-0.089741,0.437858,0.191280,0.914158,-3.033903,0.047391,-8.046623
1790544703.9411,-0.045547,-0.073145,-0.077164,-0.044908,-0.071447,-0.077164,0.142821,0.293268,0.707754,-4.068759,0.047391,-8.706413
1790544703.9550,-0.059765,-0.079503,-0.074747,-0.055308,-0.077086,-0.074747,0.375937,0.885769,0.810956,1.603783,-0.138509,-11.267951
1790544703.9690,-0.064472,-0.090329,-0.062145,-0.061722,-0.086356,-0.062145,0.718325,0.242274,1.071996,0.607255,0.419191,-10.336483
1790544703.9833,-0.078856,-0.096107,-0.039561,-0.073716,-0.093182,-0.039561,0.480353,0.816563,1.220122,2.025391,2.389731,-8.163056
1790544703.9970,-0.085658,-0.099141,-0.014949,-0.082076,-0.097353,-0.014949,0.259379,0.503315,1.197053,-0.734224,2.203831,-9.637881
1790544704.0107,-0.088927,-0.103017,0.004758,-0.086871,-0.101318,0.004758,0.287304,0.232561,1.067140,-0.274288,1.534591,-9.288581
1790544704.0246,-0.088573,-0.106399,0.020480,-0.088063,-0.104875,0.020480,0.229025,-0.021195,0.895946,-0.312616,1.348691,-11.151518
1790544704.0386,-0.081521,-0.108923,0.023896,-0.083484,-0.107708,0.023896,0.050547,-0.494710,0.758748,-0.427600,-1.068009,-13.829490
1790544704.0526,-0.075263,-0.104002,0.025999,-0.077729,-0.105114,0.025999,-0.435110,-0.586985,0.586340,3.213558,-0.324409,-14.256413
1790544704.0666,-0.070763,-0.092241,0.016527,-0.072853,-0.096103,0.016527,-1.003329,-0.588199,0.546273,4.171758,-1.588528,-8.978091
1790544704.0805,-0.067335,-0.080371,0.011467,-0.068990,-0.085091,0.011467,-1.011828,-0.509280,0.393291,3.673494,-1.328269,-8.124245
1790544704.0945,-0.057251,-0.068818,0.010536,-0.060773,-0.073700,0.010536,-0.954763,-0.880807,0.321657,1.872079,-0.770569,-7.619700
1790544704.1084,-0.049371,-0.058459,0.012748,-0.052791,-0.063031,0.012748,-0.847919,-0.877165,0.387220,3.520182,-0.435949,-6.882287
1790544704.1222,-0.046967,-0.053308,0.012134,-0.048714,-0.056225,0.012134,-0.421755,-0.342942,0.247594,2.945262,0.382011,-11.500819
1790544704.1360,-0.060914,-0.066288,0.008408,-0.057254,-0.063269,0.008408,0.833668,0.954976,-0.144574,2.600310,-1.514168,-16.196973
1790544704.1500,-0.053092,-0.069629,-0.004503,-0.054341,-0.067721,-0.004503,0.295803,-0.447359,-1.034540,-0.005993,1.646131,-12.044175
1790544704.1640,-0.056152,-0.067471,-0.009534,-0.055608,-0.067546,-0.009534,0.023835,-0.067332,-0.717649,3.520182,1.943571,-4.204315
1790544704.1779,-0.048185,-0.069523,-0.008200,-0.050412,-0.068930,-0.008200,0.258165,-0.430361,-0.295128,-0.925864,1.423051,-5.213406
1790544704.1919,-0.040191,-0.084013,-0.008256,-0.043257,-0.079488,-0.008256,1.025503,-0.436431,-0.444467,-1.654096,0.530731,-11.112707
1790544704.2059,-0.022363,-0.095981,-0.015247,-0.028631,-0.091033,-0.015247,0.969652,-1.113923,-0.863346,-1.347472,1.832031,-7.309210
1790544704.2197,-0.015543,-0.099780,-0.030196,-0.019470,-0.097156,-0.030196,0.442714,-0.589413,-0.894914,1.872079,2.724351,-7.309210
1790544704.2343,-0.013719,-0.105104,-0.042394,-0.015444,-0.102720,-0.042394,0.378365,-0.202102,-0.766215,1.872079,0.902531,-9.249770
1790544704.2483,-0.000110,-0.113922,-0.052777,-0.004710,-0.110562,-0.052777,0.622407,-0.857739,-0.852419,-1.424128,0.679451,-10.336483
1790544704.2623,-0.005247,-0.124545,-0.063859,-0.005086,-0.120350,-0.063859,0.822741,0.429252,-0.675154,-1.194160,2.649991,-15.381938
1790544704.2764,-0.014146,-0.117693,-0.067255,-0.011428,-0.118490,-0.067255,-0.507959,0.845703,-0.550097,-5.218598,0.382011,-15.265504
1790544704.2902,-0.009803,-0.105672,-0.068394,-0.010291,-0.109518,-0.068394,-0.909840,-0.035764,-0.557382,-5.640206,-0.101329,-12.160609
1790544704.3042,-0.013236,-0.097046,-0.068404,-0.012352,-0.100788,-0.068404,-0.958406,0.502101,-0.426255,-1.884064,-2.480848,-3.777392
1790544704.3181,-0.022511,-0.084951,-0.071582,-0.019463,-0.089702,-0.071582,-0.913482,0.783782,-0.337623,-1.002520,0.084571,-6.688231
1790544704.3321,-0.032885,-0.078015,-0.074848,-0.028858,-0.081521,-0.074848,-0.671868,0.956190,-0.244134,-2.497311,-1.737248,-7.580888
1790544704.3460,-0.030583,-0.083084,-0.075418,-0.030065,-0.082615,-0.075418,0.258165,-0.094043,0.044832,-2.343999,-1.848788,-19.301868
1790544704.3601,-0.027650,-0.085942,-0.063431,-0.028375,-0.084944,-0.063431,0.263021,-0.185104,0.376293,-0.887536,1.906391,-10.724595
1790544704.3744,-0.032624,-0.078548,-0.050175,-0.031349,-0.080466,-0.050175,-0.438753,0.250773,0.773317,0.683911,2.129471,-9.521448
1790544704.3882,-0.031488,-0.081193,-0.043622,-0.031447,-0.080975,-0.043622,0.035977,0.085650,0.611837,-2.727279,-1.328269,-7.153965
1790544704.4022,-0.036924,-0.084543,-0.041537,-0.035281,-0.083472,-0.041537,0.264236,0.294482,0.330156,0.607255,0.605091,-4.864105
1790544704.4161,-0.046355,-0.090076,-0.040319,-0.043033,-0.088095,-0.040319,0.389292,0.599232,0.342297,0.875551,0.605091,-8.512357
1790544704.4302,-0.052495,-0.095799,-0.031667,-0.049657,-0.093488,-0.031667,0.426931,0.417111,0.480709,0.108991,1.274331,-11.306763
1790544704.4439,-0.058990,-0.101206,-0.021605,-0.056190,-0.098890,-0.021605,0.391720,0.479032,0.547487,-0.350944,0.865351,-10.375294
1790544704.4575,-0.060505,-0.104504,-0.005919,-0.059210,-0.102820,-0.005919,0.307945,0.152428,0.559628,-0.810880,1.869211,-9.987182
1790544704.4712,-0.063607,-0.110202,0.003725,-0.062288,-0.107987,0.003725,0.429359,0.211921,0.531703,0.147319,0.865351,-8.706413
1790544704.4853,-0.068333,-0.115162,0.014915,-0.066519,-0.113010,0.014915,0.378365,0.332121,0.512277,0.032335,1.162791,-9.249770
1790544704.4993,-0.073190,-0.119832,0.022364,-0.071189,-0.117785,0.022364,0.323729,0.357618,0.445499,-0.005993,0.493551,-8.978091
1790544704.5133,-0.055821,-0.119093,0.028350,-0.060431,-0.118701,0.028350,-0.130361,-1.138205,0.549915,-2.420655,-0.621849,-13.441378
1790544704.5273,-0.052184,-0.111709,0.031510,-0.054658,-0.113807,0.031510,-0.550454,-0.391508,0.560843,2.676966,0.642271,-13.557812
1790544704.5411,-0.049344,-0.101334,0.027916,-0.050938,-0.105076,0.027916,-0.809066,-0.381795,0.477067,3.481854,-0.175689,-12.820399
1790544704.5552,-0.045796,-0.088709,0.012480,-0.047339,-0.093619,0.012480,-0.972975,-0.561488,0.217240,4.516709,-0.473129,-7.852567
1790544704.5696,-0.039050,-0.072945,0.004730,-0.041536,-0.079147,0.004730,-1.139313,-0.703543,0.005980,3.021918,0.084571,-6.921098
1790544704.5840,-0.032650,-0.056736,0.002943,-0.035316,-0.063459,0.002943,-1.084676,-0.695044,0.098254,2.446998,1.014071,-5.407462
1790544704.5981,-0.040692,-0.057527,-0.000932,-0.039080,-0.059307,-0.000932,-0.045371,0.458391,-0.075368,3.021918,-0.956469,-13.441378
1790544704.6122,-0.043890,-0.063061,-0.007147,-0.042447,-0.061935,-0.007147,0.457284,0.340620,-0.604734,-0.964192,2.761531,-14.372847
1790544704.6264,-0.030677,-0.063020,-0.017324,-0.034208,-0.062694,-0.017324,0.073615,-0.811601,-0.904627,-0.542584,2.649991,-12.277042
1790544704.6405,-0.037182,-0.064665,-0.032572,-0.036290,-0.064074,-0.032572,0.117324,0.327264,-0.819637,3.060246,0.679451,-7.697322
1790544704.6546,-0.035442,-0.068523,-0.041555,-0.035696,-0.067188,-0.041555,0.258165,-0.072189,-0.656942,0.185647,0.382011,-6.688231
1790544704.6692,-0.022657,-0.073801,-0.048569,-0.026569,-0.071817,-0.048569,0.358939,-0.769106,-0.707936,-0.810880,0.828171,-10.142427
1790544704.6846,-0.017259,-0.080552,-0.064474,-0.020052,-0.077932,-0.064474,0.469426,-0.304090,-0.945908,0.453943,1.423051,-9.793126
1790544704.6986,-0.011096,-0.082837,-0.080347,-0.013782,-0.081366,-0.080347,0.239953,-0.425504,-0.962906,0.798895,2.092291,-9.133336
1790544704.7131,-0.004165,-0.083138,-0.095534,-0.007050,-0.082606,-0.095534,0.061474,-0.437645,-0.939837,0.300631,1.497411,-8.357112
1790544704.7282,0.000058,-0.086715,-0.109390,-0.002074,-0.085482,-0.109390,0.244809,-0.255524,-0.841492,0.415615,1.199971,-9.676693
1790544704.7430,-0.004880,-0.087842,-0.120645,-0.004038,-0.087134,-0.120645,0.150106,0.384329,-0.613233,-0.350944,2.761531,-11.850119
1790544704.7568,-0.016534,-0.083791,-0.127943,-0.012786,-0.084794,-0.127943,-0.308840,0.897911,-0.491819,-0.504256,1.088431,-16.080539
1790544704.7707,-0.019280,-0.073736,-0.113878,-0.017332,-0.077053,-0.113878,-0.799353,0.510600,-0.365548,-4.567022,-0.435949,-8.745224
1790544704.7848,-0.024848,-0.065392,-0.110824,-0.022593,-0.068890,-0.110824,-0.732575,0.611373,-0.312126,-2.420655,-1.105189,-7.580888
1790544704.7989,-0.030143,-0.054991,-0.102010,-0.027878,-0.059161,-0.102010,-0.816351,0.707291,-0.123934,-1.807408,-0.138509,-3.039979
1790544704.8128,-0.027625,-0.058468,-0.107456,-0.027701,-0.058676,-0.107456,0.157391,-0.185104,-0.145788,0.492271,-0.770569,-16.313406
1790544704.8269,-0.027266,-0.067512,-0.100203,-0.027396,-0.064861,-0.100203,0.680686,-0.198459,0.729608,2.715294,2.612811,-16.002917
1790544704.8409,-0.034687,-0.070193,-0.088785,-0.032500,-0.068593,-0.088785,0.250880,0.336977,1.030716,2.178703,2.464091,-12.315854
1790544704.8548,-0.033575,-0.074032,-0.068642,-0.033252,-0.072400,-0.068642,0.198672,-0.021195,1.112063,-2.037376,-0.212869,-7.852567
1790544704.8692,-0.030836,-0.080406,-0.053350,-0.031561,-0.078004,-0.053350,0.358939,-0.005411,0.622764,-3.417183,-0.547489,-7.930189
1790544704.8838,-0.050244,-0.089608,-0.050953,-0.044639,-0.086127,-0.050953,0.559272,1.205089,0.683471,1.565455,-0.324409,-11.190329
1790544704.8979,-0.059569,-0.100382,-0.036199,-0.055090,-0.096105,-0.036199,0.819098,0.639299,0.787887,-0.120976,1.869211,-9.987182
1790544704.9117,-0.073260,-0.108473,-0.021344,-0.067809,-0.104763,-0.021344,0.666117,0.905196,0.929942,1.028863,2.241011,-9.249770
1790544704.9254,-0.080547,-0.114190,-0.003443,-0.076726,-0.111362,-0.003443,0.487638,0.583448,0.872877,-0.849208,1.943571,-8.279490
1790544704.9394,-0.082425,-0.118659,0.007559,-0.080715,-0.116470,0.007559,0.356510,0.058939,0.655546,1.335487,1.646131,-9.987182
1790544704.9535,-0.077746,-0.120464,0.016703,-0.078637,-0.119266,0.016703,0.101541,-0.376938,0.628835,0.952207,0.642271,-11.656063
1790544704.9676,-0.074135,-0.118820,0.020784,-0.075486,-0.118954,0.020784,-0.215351,-0.324730,0.562057,1.220503,-0.733389,-10.181238
1790544704.9820,-0.069814,-0.116257,0.021024,-0.071515,-0.117066,0.021024,-0.323409,-0.453429,0.610622,2.255358,-1.365448,-8.628791
1790544704.9962,-0.067585,-0.110851,0.019082,-0.068764,-0.112715,0.019082,-0.500674,-0.369653,0.483137,3.328542,-1.105189,-8.900469
1790544705.0102,-0.059998,-0.099509,0.016937,-0.062628,-0.103471,0.016937,-0.873416,-0.750894,0.280376,3.711822,-0.324409,-10.025993
1790544705.0241,-0.051527,-0.086752,0.013172,-0.054857,-0.091767,0.013172,-0.959620,-0.828599,0.083685,4.095102,0.010211,-10.258860
1790544705.0381,-0.041988,-0.072381,0.009412,-0.045849,-0.078197,0.009412,-1.047038,-0.947585,0.019335,4.133430,0.567911,-8.628791
1790544705.0520,-0.040937,-0.063143,0.006004,-0.042411,-0.067659,0.006004,-0.682795,-0.228813,-0.037729,3.366870,0.753811,-12.082986
1790544705.0661,-0.051025,-0.070116,-0.000291,-0.048441,-0.069379,-0.000291,0.468211,0.775283,-0.544027,0.338959,0.456371,-16.235784
1790544705.0802,-0.038985,-0.075266,-0.009199,-0.041822,-0.073500,-0.009199,0.409933,-0.645264,-1.066108,-2.612295,1.943571,-14.566903
1790544705.0941,-0.039020,-0.072680,-0.027315,-0.039861,-0.072926,-0.027315,0.032334,-0.278593,-0.699437,3.903462,2.798711,-4.980539
1790544705.1085,-0.035965,-0.080623,-0.027696,-0.037134,-0.078314,-0.027696,0.503422,-0.247025,-0.251418,0.798895,-0.026969,-7.658511
1790544705.1228,-0.020625,-0.090567,-0.027721,-0.025578,-0.086891,-0.027721,0.650333,-0.918446,-0.612019,-2.075704,0.010211,-11.190329
1790544705.1365,-0.012003,-0.100714,-0.043026,-0.016075,-0.096567,-0.043026,0.819098,-0.675617,-0.677582,1.258831,1.906391,-9.987182
1790544705.1501,-0.004729,-0.107957,-0.062420,-0.008132,-0.104540,-0.062420,0.667331,-0.521421,-0.815995,0.262303,2.352551,-7.852567
1790544705.1638,0.006886,-0.112101,-0.079864,0.002381,-0.109833,-0.079864,0.416003,-0.767892,-0.848776,-0.695896,1.943571,-7.153965
1790544705.1778,0.005977,-0.121727,-0.091716,0.004898,-0.118159,-0.091716,0.854309,-0.015124,-0.516101,1.450471,3.505131,-9.676693
1790544705.1917,-0.021412,-0.121550,-0.093944,-0.013519,-0.120533,-0.093944,-0.049013,1.882580,-0.503960,3.558510,0.084571,-20.078091
1790544705.2056,-0.016550,-0.107634,-0.092514,-0.015640,-0.111504,-0.092514,-0.993616,-0.026051,-0.627803,-6.636734,0.939711,-11.772497
1790544705.2195,-0.014642,-0.095953,-0.076599,-0.014942,-0.100618,-0.076599,-1.089533,0.084436,-0.495461,-2.267343,-2.294948,-6.300119
1790544705.2336,-0.018997,-0.085144,-0.065021,-0.017780,-0.089786,-0.065021,-1.062822,0.517884,-0.287843,-1.960720,-2.666748,-5.291028
1790544705.2480,-0.029650,-0.067972,-0.070023,-0.026089,-0.074516,-0.070023,-1.247371,0.803208,-0.414114,-0.197632,0.084571,-6.222497
1790544705.2621,-0.044637,-0.054784,-0.075946,-0.039073,-0.060704,-0.075946,-0.919553,1.273081,-0.510031,-2.497311,1.162791,-9.987182
1790544705.2764,-0.036757,-0.065156,-0.077269,-0.037452,-0.063821,-0.077269,0.638191,-0.386651,-0.364334,-2.842263,-0.844929,-13.480189
1790544705.2903,-0.038178,-0.071549,-0.075853,-0.037960,-0.069230,-0.075853,0.487638,0.100220,0.107968,-0.005993,1.608951,-11.617252
1790544705.3043,-0.042127,-0.066413,-0.070350,-0.040877,-0.067258,-0.070350,-0.306411,0.282341,0.394505,-0.350944,1.720491,-8.279490
1790544705.3183,-0.046538,-0.070575,-0.066000,-0.044840,-0.069580,-0.066000,0.276377,0.185209,0.546273,1.603783,0.753811,-10.530539
1790544705.3322,-0.054585,-0.077613,-0.064030,-0.051661,-0.075203,-0.064030,0.477925,0.476604,0.365366,0.683911,0.233291,-4.670049
1790544705.3461,-0.069124,-0.083096,-0.064414,-0.063885,-0.080729,-0.064414,0.436644,0.908838,0.416360,2.293686,1.757671,-10.336483
1790544705.3601,-0.078252,-0.091384,-0.060249,-0.073942,-0.088187,-0.060249,0.615123,0.612587,0.430929,0.683911,1.460231,-10.375294
1790544705.3736,-0.088246,-0.096885,-0.058266,-0.083955,-0.094276,-0.058266,0.528919,0.702434,0.503778,0.568927,2.575631,-8.240679
1790544705.3872,-0.094206,-0.100473,-0.052916,-0.091130,-0.098614,-0.052916,0.339512,0.462034,0.572984,-0.274288,2.315371,-9.443825
1790544705.4012,-0.097281,-0.105316,-0.046499,-0.095436,-0.103305,-0.046499,0.372294,0.241060,0.542630,-0.159304,1.571771,-9.715504
1790544705.4152,-0.094617,-0.109647,-0.039382,-0.094863,-0.107745,-0.039382,0.243595,-0.175391,0.472210,-0.005993,-0.026969,-11.423196
1790544705.4291,-0.087767,-0.109464,-0.031448,-0.089896,-0.108948,-0.031448,-0.008946,-0.561488,0.580269,1.718767,1.683311,-13.441378
1790544705.4431,-0.079933,-0.105086,-0.022860,-0.082922,-0.106245,-0.022860,-0.388973,-0.681688,0.541416,2.408670,-0.175689,-11.694875
1790544705.4570,-0.076628,-0.097519,-0.015404,-0.078516,-0.100137,-0.015404,-0.663369,-0.493496,0.487994,3.865134,-0.844929,-8.512357
1790544705.4708,-0.069362,-0.089022,-0.009147,-0.072108,-0.092357,-0.009147,-0.753216,-0.716898,0.246380,2.753622,-1.179549,-7.891378
1790544705.4847,-0.060610,-0.077258,-0.010000,-0.064060,-0.081788,-0.010000,-0.850347,-0.792175,0.146820,2.370342,0.828171,-8.473546
1790544705.4989,-0.049892,-0.064269,-0.012736,-0.054142,-0.069525,-0.012736,-0.908626,-0.948799,0.013265,3.213558,0.865351,-8.628791
1790544705.5129,-0.049702,-0.056188,-0.019481,-0.051034,-0.060189,-0.019481,-0.532242,-0.177819,-0.082653,3.826806,2.092291,-11.772497
1790544705.5269,-0.063201,-0.065011,-0.018900,-0.059551,-0.063564,-0.018900,0.519205,0.877270,-0.624160,3.021918,-1.179549,-9.754315
1790544705.5409,-0.053016,-0.067018,-0.035954,-0.054976,-0.065982,-0.035954,0.239953,-0.438860,-1.128029,-2.037376,1.348691,-6.804665
1790544705.5549,-0.041581,-0.068328,-0.052719,-0.045599,-0.067624,-0.052719,0.238739,-0.678046,-0.586522,-0.542584,1.274331,-3.971448
1790544705.5689,-0.039490,-0.077859,-0.055873,-0.041323,-0.074789,-0.055873,0.687971,-0.289520,-0.233206,2.906934,0.939711,-10.025993
1790544705.5828,-0.026624,-0.089429,-0.064970,-0.031034,-0.085037,-0.064970,0.878591,-0.755751,-0.535528,-2.458983,1.683311,-11.384385
1790544705.5964,-0.011552,-0.098819,-0.080091,-0.017397,-0.094684,-0.080091,0.781460,-1.031361,-0.731005,-0.734224,2.092291,-10.025993
1790544705.6100,-0.004646,-0.107113,-0.097229,-0.008471,-0.103385,-0.097229,0.724395,-0.549346,-0.802639,0.952207,1.980751,-7.309210
1790544705.6236,0.002714,-0.112426,-0.115016,-0.000642,-0.109714,-0.115016,0.504636,-0.482569,-0.722506,-0.504256,1.943571,-7.542077
1790544705.6376,0.003082,-0.125561,-0.120589,0.001965,-0.120807,-0.120589,0.932014,-0.041835,-0.445681,0.262303,0.456371,-9.443825
1790544705.6515,-0.018416,-0.127781,-0.118418,-0.012302,-0.125688,-0.118418,0.112468,1.439418,-0.370404,2.945262,-0.361589,-16.313406
1790544705.6656,-0.016280,-0.118231,-0.122448,-0.015086,-0.120468,-0.122448,-0.719220,0.079579,-0.489390,-5.601878,-0.287229,-14.411658
1790544705.6794,-0.017840,-0.107802,-0.113012,-0.017014,-0.111602,-0.113012,-0.948692,0.288412,-0.392259,-2.382327,-2.294948,-8.434735
1790544705.6934,-0.021569,-0.093783,-0.114724,-0.020202,-0.099129,-0.114724,-1.094389,0.465676,-0.403186,-1.922392,-0.473129,-6.416553
1790544705.7073,-0.033262,-0.073861,-0.125995,-0.029344,-0.081441,-0.125995,-1.329933,0.888198,-0.440825,-0.082648,1.534591,-6.028441
1790544705.7212,-0.048402,-0.060757,-0.124535,-0.042685,-0.066962,-0.124535,-1.108959,1.189305,-0.318196,-0.734224,-1.625708,-8.861658
1790544705.7353,-0.050645,-0.057898,-0.125803,-0.048257,-0.060618,-0.125803,-0.318553,0.268985,-0.404400,-1.692424,-2.071868,-19.107812
1790544705.7497,-0.050952,-0.067921,-0.121900,-0.050144,-0.065730,-0.121900,0.649119,0.027371,0.162604,-0.197632,0.344831,-15.731238
1790544705.7638,-0.049208,-0.066815,-0.116674,-0.049488,-0.066489,-0.116674,-0.073296,-0.004197,0.282804,-2.842263,1.460231,-12.471098
1790544705.7779,-0.056189,-0.067596,-0.107333,-0.054178,-0.067264,-0.107333,-0.016231,0.445036,0.631263,0.108991,0.010211,-8.745224
1790544705.7919,-0.060319,-0.074972,-0.109286,-0.058477,-0.072659,-0.109286,0.543488,0.060153,0.332584,3.213558,1.051251,-8.007811
1790544705.8058,-0.073814,-0.083037,-0.109007,-0.069213,-0.079924,-0.109007,0.647904,0.741287,0.568127,2.791950,1.720491,-7.348021
1790544705.8199,-0.085326,-0.092170,-0.104021,-0.080492,-0.088496,-0.104021,0.675830,0.828705,0.546273,-0.235960,1.683311,-10.685784
1790544705.8335,-0.096296,-0.096781,-0.102785,-0.091555,-0.094295,-0.102785,0.476710,0.838418,0.575412,-0.350944,2.538451,-7.076343
1790544705.8471,-0.104845,-0.101335,-0.096426,-0.100858,-0.099223,-0.096426,0.358939,0.645369,0.691970,-0.159304,1.943571,-10.957462
1790544705.8611,-0.111880,-0.108842,-0.088207,-0.108573,-0.105956,-0.088207,0.517991,0.445036,0.666473,1.182175,1.051251,-9.676693
1790544705.8750,-0.110828,-0.113107,-0.082101,-0.110151,-0.110962,-0.082101,0.329799,-0.085544,0.606980,0.645583,2.203831,-12.703965
1790544705.8889,-0.102057,-0.113573,-0.073744,-0.104485,-0.112790,-0.073744,-0.008946,-0.656191,0.585125,0.952207,0.790991,-13.130889
1790544705.9027,-0.096221,-0.106931,-0.056903,-0.098700,-0.108689,-0.056903,-0.640300,-0.580914,0.644618,3.060246,-1.402628,-11.035084
1790544705.9166,-0.096313,-0.098006,-0.040094,-0.097029,-0.101211,-0.040094,-0.793282,-0.237312,0.553558,3.788478,-1.142369,-8.357112
1790544705.9306,-0.089584,-0.085535,-0.026562,-0.091817,-0.090238,-0.026562,-1.079820,-0.678046,0.270663,2.983590,-1.662888,-7.930189
1790544705.9445,-0.081505,-0.071081,-0.023284,-0.084598,-0.076828,-0.023284,-1.127171,-0.839526,0.218455,4.018446,-0.324409,-8.201867
1790544705.9584,-0.072846,-0.056159,-0.024102,-0.076372,-0.062360,-0.024102,-1.118672,-0.890520,0.124966,3.635166,0.233291,-7.076343
1790544705.9724,-0.068861,-0.048102,-0.023085,-0.071115,-0.052379,-0.023085,-0.583236,-0.368439,0.131036,2.293686,1.646131,-14.683336
1790544705.9864,-0.079461,-0.054632,-0.026600,-0.076957,-0.053956,-0.026600,0.475496,0.834776,-0.274487,-0.274288,1.460231,-15.149070
1790544706.0009,-0.074540,-0.054280,-0.037147,-0.075265,-0.054183,-0.037147,0.033549,-0.147465,-0.727362,-2.343999,2.241011,-15.420749
1790544706.0150,-0.068634,-0.052661,-0.040090,-0.070624,-0.053118,-0.040090,-0.121862,-0.217886,-0.582879,-1.385800,0.419191,-7.192776
1790544706.0290,-0.067276,-0.060671,-0.038994,-0.068281,-0.058405,-0.038994,0.511921,0.020086,-0.432326,-0.734224,-0.212869,-9.715504
1790544706.0430,-0.052433,-0.069178,-0.046889,-0.057188,-0.065946,-0.046889,0.647904,-0.838312,-0.687295,-1.807408,0.902531,-7.231588
1790544706.0566,-0.040829,-0.074692,-0.060008,-0.045737,-0.072068,-0.060008,0.449999,-0.833456,-0.817209,0.798895,1.125611,-8.434735
1790544706.0703,-0.035033,-0.078109,-0.079294,-0.038244,-0.076297,-0.079294,0.346797,-0.441288,-0.863346,1.220503,1.757671,-7.852567
1790544706.0842,-0.032799,-0.081385,-0.096928,-0.034432,-0.079859,-0.096928,0.283662,-0.171748,-0.972619,1.527127,1.423051,-9.521448
1790544706.0981,-0.020178,-0.085962,-0.113486,-0.024455,-0.084131,-0.113486,0.386864,-0.804316,-0.958049,-0.657568,1.794851,-10.724595
1790544706.1120,-0.022342,-0.092787,-0.129864,-0.022976,-0.090190,-0.129864,0.619979,0.203422,-0.474821,-0.312616,3.467951,-12.044175
1790544706.1258,-0.041032,-0.085224,-0.142838,-0.035615,-0.086714,-0.142838,-0.486104,1.388424,-0.554954,0.415615,2.278191,-13.363756
1790544706.1398,-0.039174,-0.072057,-0.145130,-0.038106,-0.076454,-0.145130,-0.981474,0.219205,-0.612019,-5.908502,0.047391,-10.646972
1790544706.1537,-0.043070,-0.063855,-0.144208,-0.041581,-0.067635,-0.144208,-0.741074,0.548238,-0.557382,-2.343999,-1.216729,-6.455364
1790544706.1678,-0.050724,-0.052684,-0.146100,-0.047981,-0.057169,-0.146100,-0.870987,0.803208,-0.302412,-1.577440,-0.175689,-4.243126
1790544706.1819,-0.065727,-0.039238,-0.154012,-0.060403,-0.044617,-0.154012,-0.779927,1.192947,-0.230778,-0.580912,1.943571,-4.592427
1790544706.1959,-0.056278,-0.044626,-0.158423,-0.057515,-0.044623,-0.158423,0.321300,-0.494710,-0.386188,-3.685479,-0.175689,-18.215154
1790544706.2098,-0.058594,-0.049483,-0.151075,-0.058270,-0.048025,-0.151075,0.380793,0.065009,0.542630,1.565455,3.058971,-15.692427
1790544706.2238,-0.065136,-0.052078,-0.140775,-0.063076,-0.050862,-0.140775,0.123395,0.406183,0.780602,-0.005993,0.642271,-12.587532
1790544706.2380,-0.067206,-0.057285,-0.129773,-0.065967,-0.055358,-0.129773,0.230240,0.152428,0.783031,-1.079176,-0.696209,-9.482637
1790544706.2532,-0.070307,-0.065603,-0.122629,-0.069005,-0.062529,-0.122629,0.528919,0.561594,0.328941,-2.995575,0.270471,-3.350469
1790544706.2676,-0.087167,-0.076524,-0.118750,-0.081718,-0.072325,-0.118750,0.696470,1.117671,0.495279,0.913879,0.158931,-10.879840
1790544706.2817,-0.097170,-0.084319,-0.106759,-0.092534,-0.080721,-0.106759,0.617551,0.725503,0.614265,-0.312616,2.315371,-9.366203
1790544706.2955,-0.109941,-0.091520,-0.095211,-0.104719,-0.088280,-0.095211,0.565343,0.876056,0.660402,0.913879,2.241011,-10.220049
1790544706.3092,-0.114724,-0.096611,-0.084198,-0.111723,-0.094112,-0.084198,0.417217,0.400113,0.637334,-0.619240,2.166651,-9.560259
1790544706.3232,-0.114823,-0.105052,-0.073398,-0.113893,-0.101770,-0.073398,0.657618,0.034656,0.540202,-0.120976,2.017931,-8.706413
1790544706.3372,-0.111650,-0.107529,-0.063940,-0.112323,-0.105801,-0.063940,0.176817,-0.268880,0.496493,1.412143,1.646131,-12.975644
1790544706.3512,-0.106508,-0.106232,-0.060882,-0.108253,-0.106103,-0.060882,-0.197138,-0.446144,0.386006,2.217030,-0.770569,-12.703965
1790544706.3650,-0.100405,-0.101266,-0.057725,-0.102760,-0.102717,-0.057725,-0.484890,-0.569987,0.434572,2.485326,-0.919289,-9.909560
1790544706.3790,-0.096506,-0.094036,-0.057268,-0.098382,-0.096641,-0.057268,-0.659727,-0.478926,0.328941,3.175230,-1.142369,-8.201867
1790544706.3929,-0.083717,-0.082652,-0.054997,-0.088116,-0.086849,-0.054997,-0.870987,-1.065357,0.160176,2.293686,0.158931,-8.279490
1790544706.4068,-0.074774,-0.072660,-0.056865,-0.078777,-0.076917,-0.056865,-0.819993,-0.858953,-0.012232,3.596838,-0.696209,-8.434735
1790544706.4207,-0.064710,-0.060375,-0.058344,-0.068930,-0.065337,-0.058344,-0.902555,-0.890520,-0.070511,3.021918,0.530731,-8.822846
1790544706.4347,-0.069086,-0.061473,-0.063078,-0.069039,-0.062632,-0.063078,-0.007732,0.196137,-0.327909,4.325070,-1.030829,-14.139979
1790544706.4486,-0.072629,-0.068545,-0.073261,-0.071552,-0.066771,-0.073261,0.514349,0.498458,-0.933766,-3.110559,0.456371,-14.993826
1790544706.4625,-0.055740,-0.070730,-0.083056,-0.060484,-0.069542,-0.083056,0.248452,-0.969440,-0.904627,-2.420655,1.832031,-9.405014
1790544706.4764,-0.058424,-0.072318,-0.095844,-0.059042,-0.071485,-0.095844,0.260593,-0.010267,-0.462679,3.060246,2.092291,-6.067252
1790544706.4905,-0.051148,-0.086109,-0.099302,-0.053516,-0.081722,-0.099302,0.907731,-0.465571,-0.415328,-0.005993,-0.473129,-8.978091
1790544706.5048,-0.033244,-0.096597,-0.111296,-0.039326,-0.092134,-0.111296,0.849452,-1.169773,-0.789283,-0.504256,2.241011,-9.288581
1790544706.5185,-0.023984,-0.103501,-0.124805,-0.028586,-0.100091,-0.124805,0.601767,-0.695044,-0.899770,1.028863,1.906391,-8.784035
1790544706.5320,-0.019916,-0.108328,-0.136581,-0.022517,-0.105857,-0.136581,0.486424,-0.425504,-0.769857,2.293686,2.315371,-8.124245
1790544706.5459,-0.007253,-0.115987,-0.148902,-0.011833,-0.112948,-0.148902,0.551987,-0.782462,-0.806281,-1.654096,0.642271,-9.987182
1790544706.5599,-0.014870,-0.124620,-0.159894,-0.013959,-0.121118,-0.159894,0.691614,0.525169,-0.677582,1.067191,2.612811,-14.799770
1790544706.5738,-0.028927,-0.120586,-0.167308,-0.024437,-0.120745,-0.167308,-0.306411,0.986543,-0.602306,0.837223,0.196111,-11.267951
1790544706.5878,-0.023465,-0.110245,-0.174678,-0.023757,-0.113395,-0.174678,-0.846704,-0.132896,-0.540384,-4.682006,-1.551348,-11.035084
1790544706.6017,-0.023949,-0.095181,-0.179642,-0.023891,-0.100645,-0.179642,-1.231587,0.298125,-0.415328,-2.765607,-1.328269,-6.300119
1790544706.6156,-0.027817,-0.080104,-0.183847,-0.026639,-0.086266,-0.183847,-1.243729,0.506957,-0.299984,-2.803935,-1.514168,-7.813756
1790544706.6296,-0.037670,-0.066647,-0.189513,-0.034361,-0.072533,-0.189513,-1.077391,0.976830,-0.414114,-2.765607,-0.807749,-6.882287
1790544706.6436,-0.050418,-0.055097,-0.191928,-0.045601,-0.060328,-0.191928,-0.850347,1.234228,-0.389831,-2.957247,0.233291,-6.067252
1790544706.6575,-0.041111,-0.062791,-0.196541,-0.042458,-0.062052,-0.196541,0.530133,-0.514136,-0.427469,-2.880591,0.790991,-16.468651
1790544706.6715,-0.038293,-0.071841,-0.188251,-0.039543,-0.068904,-0.188251,0.728038,-0.299233,0.294945,1.565455,2.835891,-11.733686
1790544706.6854,-0.044377,-0.070146,-0.180017,-0.042926,-0.069773,-0.180017,-0.079367,0.397684,0.443071,0.223975,1.608951,-9.327392
1790544706.6993,-0.047574,-0.070238,-0.172295,-0.046180,-0.070099,-0.172295,0.008052,0.160927,0.540202,0.415615,0.865351,-7.774944
1790544706.7133,-0.055629,-0.074291,-0.163780,-0.052794,-0.073034,-0.163780,0.385650,0.531240,0.316800,0.530599,2.092291,-8.085434
1790544706.7272,-0.070702,-0.081407,-0.159564,-0.065330,-0.078895,-0.159564,0.562915,0.884555,0.342297,3.366870,1.794851,-9.521448
1790544706.7413,-0.083071,-0.089259,-0.151698,-0.077748,-0.086150,-0.151698,0.653975,0.744929,0.395719,2.140375,2.501271,-8.978091
1790544706.7561,-0.097803,-0.096756,-0.143614,-0.091787,-0.093574,-0.143614,0.573842,0.952547,0.457641,0.798895,1.906391,-8.240679
1790544706.7712,-0.104373,-0.102616,-0.135361,-0.100597,-0.099903,-0.135361,0.443929,0.449892,0.529275,-0.044320,2.389731,-10.491728
1790544706.7860,-0.104523,-0.110211,-0.126808,-0.103345,-0.107119,-0.126808,0.559272,-0.007839,0.460069,0.798895,2.389731,-12.238231
1790544706.8002,-0.098397,-0.111453,-0.117481,-0.099882,-0.110152,-0.117481,0.079686,-0.497138,0.478281,1.872079,1.311511,-12.859210
1790544706.8147,-0.089965,-0.109774,-0.112074,-0.092940,-0.109888,-0.112074,-0.252989,-0.709613,0.461283,2.485326,-1.328269,-10.258860
1790544706.8292,-0.086290,-0.106260,-0.107101,-0.088285,-0.107348,-0.107101,-0.392615,-0.437645,0.489208,3.021918,-1.402628,-8.745224
1790544706.8430,-0.079829,-0.100966,-0.102510,-0.082365,-0.102881,-0.102510,-0.501888,-0.602769,0.353224,2.102047,-0.882109,-8.589979
1790544706.8570,-0.072842,-0.092211,-0.100330,-0.075699,-0.095412,-0.100330,-0.664583,-0.695044,0.199028,3.405198,0.196111,-9.288581
1790544706.8710,-0.065419,-0.081007,-0.101243,-0.068503,-0.085328,-0.101243,-0.838205,-0.735110,-0.008590,3.673494,0.158931,-9.172147
1790544706.8850,-0.056606,-0.066733,-0.105283,-0.060175,-0.072311,-0.105283,-1.009399,-0.874737,-0.077796,3.405198,0.790991,-6.959909
1790544706.8990,-0.060742,-0.060490,-0.106836,-0.060572,-0.064037,-0.106836,-0.475177,0.220420,-0.211352,2.753622,0.567911,-13.945924
1790544706.9129,-0.072999,-0.069215,-0.118059,-0.069271,-0.067662,-0.118059,0.641834,0.970759,-0.781999,0.415615,0.939711,-15.110259
1790544706.9269,-0.063309,-0.073542,-0.140709,-0.065098,-0.071778,-0.140709,0.466997,-0.427932,-0.941051,-2.343999,2.389731,-8.124245
1790544706.9408,-0.065048,-0.074619,-0.147450,-0.065063,-0.073766,-0.147450,0.122181,-0.151108,-0.508817,4.670021,0.976891,-6.882287
1790544706.9546,-0.059540,-0.085704,-0.148946,-0.061197,-0.082123,-0.148946,0.743822,-0.330801,-0.399544,-0.274288,-0.398769,-11.112707
1790544706.9686,-0.041417,-0.096128,-0.163584,-0.047351,-0.091926,-0.163584,0.825169,-1.112708,-0.704293,-2.190688,1.720491,-10.025993
1790544706.9821,-0.024833,-0.106544,-0.176360,-0.031589,-0.102159,-0.176360,0.849452,-1.185557,-0.755287,0.070663,1.683311,-9.482637
1790544706.9959,-0.020946,-0.113832,-0.189340,-0.024138,-0.110330,-0.189340,0.670973,-0.380581,-0.664227,1.833751,2.426911,-8.085434
1790544707.0101,-0.012158,-0.120411,-0.205326,-0.015752,-0.117387,-0.205326,0.590840,-0.636765,-0.768643,0.645583,2.389731,-8.900469
1790544707.0241,-0.024080,-0.134933,-0.200064,-0.021582,-0.129669,-0.200064,0.906517,0.695149,-0.775928,3.865134,-2.109048,-12.432287
1790544707.0381,-0.037709,-0.126884,-0.217985,-0.032871,-0.127719,-0.217985,-0.538312,1.154095,-0.658156,-3.263871,1.125611,-12.859210
1790544707.0519,-0.029753,-0.113458,-0.232307,-0.030689,-0.117736,-0.232307,-1.062822,-0.186318,-0.615661,-7.020013,-1.514168,-9.560259
1790544707.0660,-0.026909,-0.099275,-0.231925,-0.028043,-0.104814,-0.231925,-1.281367,0.126931,-0.426255,-3.417183,-2.703928,-5.174595
1790544707.0799,-0.026814,-0.083312,-0.237751,-0.027182,-0.089762,-0.237751,-1.326291,0.228919,-0.428683,-2.497311,-1.737248,-6.765853
1790544707.0939,-0.035500,-0.071306,-0.244208,-0.033005,-0.076843,-0.244208,-0.962048,0.855416,-0.433540,-2.612295,-0.770569,-7.891378
1790544707.1081,-0.045683,-0.058320,-0.247320,-0.041880,-0.063877,-0.247320,-0.839420,0.996256,-0.455394,-2.765607,1.571771,-6.882287
1790544707.1220,-0.040131,-0.060399,-0.252954,-0.040655,-0.061443,-0.252954,0.050547,-0.206958,-0.197996,-4.068759,-1.030829,-14.372847
1790544707.1359,-0.038065,-0.063724,-0.250682,-0.038842,-0.063040,-0.250682,0.193815,-0.158393,0.274305,-0.235960,0.419191,-13.014455
1790544707.1499,-0.043306,-0.059351,-0.238124,-0.041967,-0.060458,-0.238124,-0.238419,0.244702,0.699255,1.143847,2.278191,-9.288581
1790544707.1640,-0.048525,-0.062662,-0.227368,-0.046557,-0.062001,-0.227368,0.294589,0.406183,0.519562,-1.309144,2.278191,-10.530539
1790544707.1780,-0.056207,-0.069064,-0.221675,-0.053312,-0.066945,-0.221675,0.474282,0.389185,0.430929,1.987063,1.162791,-8.395923
1790544707.1920,-0.065920,-0.076415,-0.213211,-0.062138,-0.073574,-0.213211,0.595696,0.525169,0.475853,2.178703,1.943571,-8.240679
1790544707.2056,-0.075235,-0.084176,-0.204050,-0.071305,-0.080996,-0.204050,0.629692,0.644155,0.564485,0.492271,2.017931,-9.793126
1790544707.2192,-0.082010,-0.087084,-0.192885,-0.078799,-0.085258,-0.192885,0.297017,0.483888,0.666473,-0.044320,2.649991,-9.831937
1790544707.2329,-0.088479,-0.090304,-0.182582,-0.085575,-0.088790,-0.182582,0.261807,0.458391,0.696826,0.032335,1.608951,-8.939280
1790544707.2469,-0.093499,-0.097140,-0.173168,-0.091121,-0.094635,-0.173168,0.454856,0.329692,0.702897,0.377287,0.790991,-9.793126
1790544707.2614,-0.097971,-0.108090,-0.162599,-0.095916,-0.104054,-0.162599,0.775389,0.239846,0.553558,1.680439,1.906391,-12.432287
1790544707.2754,-0.085449,-0.105944,-0.152479,-0.088589,-0.105377,-0.152479,-0.120647,-0.950013,0.478281,1.718767,2.612811,-15.537182
1790544707.2894,-0.081766,-0.097400,-0.143972,-0.083813,-0.099793,-0.143972,-0.640300,-0.387866,0.426073,2.408670,0.605091,-10.841028
1790544707.3034,-0.078718,-0.088397,-0.141604,-0.080247,-0.091816,-0.141604,-0.809066,-0.406078,0.364152,2.600310,-1.402628,-7.658511
1790544707.3173,-0.067779,-0.077189,-0.137995,-0.071520,-0.081577,-0.137995,-0.858846,-0.953656,0.144392,2.217030,0.084571,-7.309210
1790544707.3313,-0.056457,-0.062830,-0.135056,-0.060976,-0.068454,-0.135056,-0.935337,-0.996151,0.161390,2.255358,1.832031,-6.649420
1790544707.3454,-0.047086,-0.049539,-0.134329,-0.051253,-0.055214,-0.134329,-0.862488,-0.798246,-0.023160,2.293686,2.501271,-9.327392
1790544707.3593,-0.060373,-0.056183,-0.136407,-0.057637,-0.055892,-0.136407,0.338298,0.886984,-0.319410,3.443526,-2.369308,-15.925294
1790544707.3732,-0.068550,-0.056935,-0.150766,-0.065276,-0.056622,-0.150766,0.127038,0.719432,-0.781999,-0.427600,2.278191,-13.247322
1790544707.3872,-0.057920,-0.055939,-0.164881,-0.060127,-0.056144,-0.164881,-0.058726,-0.557845,-0.800211,-1.769080,0.828171,-10.375294
1790544707.4012,-0.057496,-0.059164,-0.169660,-0.058285,-0.058258,-0.169660,0.270306,-0.103756,-0.427469,1.795423,1.162791,-7.697322
1790544707.4152,-0.054594,-0.069780,-0.177049,-0.055701,-0.066323,-0.177049,0.759606,-0.136538,-0.534314,-0.044320,0.716631,-10.685784
1790544707.4292,-0.038422,-0.079902,-0.189813,-0.043606,-0.075829,-0.189813,0.752321,-1.025290,-0.865774,-0.925864,1.162791,-11.073895
1790544707.4428,-0.031510,-0.085664,-0.203625,-0.035139,-0.082713,-0.203625,0.547131,-0.571201,-0.978690,1.910407,2.166651,-7.736133
1790544707.4564,-0.027956,-0.090530,-0.212900,-0.030111,-0.088185,-0.212900,0.373508,-0.317445,-0.896128,1.987063,0.939711,-9.909560
1790544707.4703,-0.019130,-0.095959,-0.228441,-0.022425,-0.093626,-0.228441,0.429359,-0.523849,-0.913126,-0.964192,1.348691,-10.375294
1790544707.4841,-0.020944,-0.104865,-0.242410,-0.021388,-0.101493,-0.242410,0.740179,0.203422,-0.641158,-0.619240,2.389731,-10.608161
1790544707.4980,-0.038187,-0.101284,-0.249004,-0.033147,-0.101347,-0.249004,-0.246918,1.185663,-0.661798,2.408670,1.088431,-14.139979
1790544707.5122,-0.034287,-0.089667,-0.267100,-0.033945,-0.093171,-0.267100,-0.880700,-0.029694,-0.613233,-4.068759,-0.584669,-11.578441
1790544707.5262,-0.036387,-0.079936,-0.277254,-0.035654,-0.083906,-0.277254,-0.830921,0.299339,-0.569524,-1.347472,-1.291089,-8.124245
1790544707.5401,-0.045568,-0.067651,-0.284814,-0.042594,-0.072528,-0.284814,-0.975404,0.778925,-0.380118,-0.619240,-0.361589,-5.446273
1790544707.5541,-0.057347,-0.053020,-0.296527,-0.052921,-0.058873,-0.296527,-0.971761,1.046036,-0.484534,-1.769080,1.608951,-7.697322
1790544707.5681,-0.067761,-0.044620,-0.305479,-0.063309,-0.048896,-0.305479,-0.691294,0.901553,-0.307269,-1.309144,-0.510309,-8.551168
1790544707.5820,-0.054650,-0.051096,-0.308968,-0.057248,-0.050436,-0.308968,0.379579,-0.827385,-0.167643,-1.922392,-0.473129,-14.372847
1790544707.5959,-0.055267,-0.051674,-0.300279,-0.055861,-0.051303,-0.300279,0.095470,-0.109827,0.373865,1.987063,1.980751,-8.939280
1790544707.6098,-0.052207,-0.052412,-0.291920,-0.053303,-0.052079,-0.291920,0.015336,-0.278593,0.604552,0.108991,0.828171,-10.841028
1790544707.6237,-0.042248,-0.055019,-0.287614,-0.045565,-0.054137,-0.287614,0.131894,-0.584557,0.403004,-1.884064,0.196111,-6.494175
1790544707.6376,-0.055434,-0.059560,-0.283069,-0.052473,-0.057933,-0.283069,0.328585,0.861487,0.353224,0.722239,0.716631,-6.144874
1790544707.6515,-0.066198,-0.067508,-0.277951,-0.062081,-0.064636,-0.277951,0.528919,0.689078,0.445499,1.412143,0.493551,-11.888930
1790544707.6651,-0.078415,-0.073540,-0.268171,-0.073515,-0.070869,-0.268171,0.531347,0.823848,0.591196,0.798895,2.538451,-9.094525
1790544707.6787,-0.089234,-0.077774,-0.257268,-0.084518,-0.075703,-0.257268,0.409933,0.737644,0.670115,0.607255,2.612811,-8.473546
1790544707.6924,-0.096258,-0.083240,-0.248426,-0.092736,-0.080979,-0.248426,0.430573,0.491173,0.654332,0.185647,1.757671,-8.822846
1790544707.7064,-0.102609,-0.090358,-0.240107,-0.099647,-0.087545,-0.240107,0.511921,0.419539,0.587554,0.530599,1.274331,-8.667602
1790544707.7204,-0.104117,-0.093654,-0.231052,-0.102776,-0.091821,-0.231052,0.298232,0.061367,0.483137,1.412143,3.393591,-14.139979
1790544707.7343,-0.096386,-0.092065,-0.223039,-0.098303,-0.091992,-0.223039,-0.140074,-0.595484,0.511063,0.990535,1.274331,-13.402567
1790544707.7484,-0.089096,-0.086203,-0.212887,-0.091858,-0.087939,-0.212887,-0.544383,-0.680474,0.395719,3.136902,-1.030829,-10.879840
1790544707.7630,-0.087606,-0.079495,-0.203301,-0.088882,-0.082028,-0.203301,-0.586878,-0.324730,0.262164,3.711822,-1.068009,-8.395923
1790544707.7771,-0.079956,-0.068974,-0.197643,-0.082633,-0.072890,-0.197643,-0.845490,-0.754536,0.058188,3.251886,-0.547489,-7.736133
1790544707.7911,-0.072995,-0.056482,-0.194867,-0.075887,-0.061404,-0.194867,-0.915911,-0.739967,0.026620,3.980118,0.530731,-8.124245
1790544707.8051,-0.062713,-0.044783,-0.192672,-0.066665,-0.049770,-0.192672,-0.860060,-0.909947,-0.072940,3.060246,0.679451,-8.745224
1790544707.8191,-0.069570,-0.045322,-0.193826,-0.068699,-0.046656,-0.193826,-0.019874,0.403755,-0.342479,4.363398,-0.101329,-16.468651
1790544707.8330,-0.067736,-0.052817,-0.211223,-0.068025,-0.050969,-0.211223,0.532561,0.183995,-0.999330,-4.030431,0.270471,-13.169700
1790544707.8470,-0.048390,-0.054219,-0.234372,-0.054280,-0.053244,-0.234372,0.215670,-1.042288,-0.900984,-3.685479,2.278191,-8.395923
1790544707.8610,-0.057959,-0.061817,-0.237837,-0.056855,-0.059245,-0.237837,0.497351,0.492387,-0.456608,3.520182,-0.064149,-7.348021
1790544707.8749,-0.050458,-0.070742,-0.246766,-0.052377,-0.067293,-0.246766,0.621193,-0.393936,-0.727362,-1.002520,0.270471,-9.793126
1790544707.8887,-0.034249,-0.078700,-0.260753,-0.039688,-0.075278,-0.260753,0.634549,-1.009506,-0.886415,-1.347472,1.497411,-9.443825
1790544707.9023,-0.031261,-0.087073,-0.275574,-0.033789,-0.083535,-0.275574,0.698898,-0.282235,-0.998116,1.987063,1.683311,-8.240679
1790544707.9159,-0.022507,-0.092939,-0.292678,-0.025892,-0.090118,-0.292678,0.515563,-0.569987,-1.036968,-0.044320,1.720491,-8.395923
1790544707.9298,-0.011773,-0.101115,-0.306789,-0.016008,-0.097816,-0.306789,0.590840,-0.707185,-1.029684,-0.120976,0.679451,-8.512357
1790544707.9436,-0.001044,-0.109975,-0.322822,-0.005533,-0.106327,-0.322822,0.745036,-0.727825,-0.840277,-0.312616,3.170511,-12.393476
1790544707.9576,-0.023392,-0.106784,-0.333574,-0.018034,-0.106647,-0.333574,-0.225064,1.570546,-0.846348,2.408670,1.571771,-18.331588
1790544707.9716,-0.021979,-0.094611,-0.352141,-0.020795,-0.098222,-0.352141,-0.857632,0.162141,-0.732219,-6.215126,1.385871,-15.925294
1790544707.9854,-0.019345,-0.084626,-0.356689,-0.019780,-0.088705,-0.356689,-0.997258,0.157284,-0.629017,-4.298727,-3.373168,-6.649420
1790544707.9995,-0.024460,-0.073313,-0.362207,-0.023056,-0.077931,-0.362207,-1.023969,0.469319,-0.454180,-0.734224,-1.848788,-6.494175
1790544708.0137,-0.028936,-0.057941,-0.369386,-0.027172,-0.063938,-0.369386,-1.101674,0.606517,-0.507602,-2.305671,0.344831,-5.252217
1790544708.0278,-0.047676,-0.042965,-0.377872,-0.041525,-0.049257,-0.377872,-1.060393,1.417564,-0.434754,-0.235960,0.567911,-5.601518
1790544708.0417,-0.051333,-0.040116,-0.382816,-0.048390,-0.042858,-0.382816,-0.155858,0.436537,-0.389831,-1.884064,1.906391,-10.142427
1790544708.0556,-0.045399,-0.050411,-0.380538,-0.046296,-0.048145,-0.380538,0.609052,-0.442502,0.358081,-0.542584,-1.588528,-17.128441
1790544708.0697,-0.048999,-0.052941,-0.372742,-0.048188,-0.051502,-0.372742,0.180460,0.175496,0.562057,0.683911,1.571771,-12.160609
1790544708.0835,-0.049794,-0.052782,-0.364932,-0.049312,-0.052398,-0.364932,-0.090294,0.063795,0.653117,-1.040848,0.047391,-9.987182
1790544708.0974,-0.052938,-0.059361,-0.357480,-0.051850,-0.057272,-0.357480,0.485209,0.402541,0.288875,-2.688951,1.088431,-8.085434
1790544708.1113,-0.068040,-0.068190,-0.356622,-0.063183,-0.064914,-0.356622,0.584769,0.889412,0.387220,2.830278,0.196111,-8.628791
1790544708.1249,-0.080745,-0.078193,-0.348190,-0.075477,-0.074209,-0.348190,0.798458,0.827491,0.517133,1.603783,2.203831,-9.831937
1790544708.1385,-0.094364,-0.084786,-0.337854,-0.088698,-0.081613,-0.337854,0.581127,0.990186,0.542630,0.185647,2.352551,-8.279490
1790544708.1521,-0.100661,-0.090008,-0.326600,-0.097072,-0.087489,-0.326600,0.424502,0.441393,0.671330,0.338959,2.389731,-11.190329
1790544708.1660,-0.099284,-0.097879,-0.314645,-0.098620,-0.094762,-0.314645,0.728038,-0.084330,0.462497,-0.082648,3.914111,-9.443825
1790544708.1800,-0.090618,-0.100845,-0.308171,-0.093019,-0.099020,-0.308171,0.094256,-0.623409,0.685899,-0.005993,-0.547489,-11.151518
1790544708.1940,-0.083191,-0.098469,-0.300300,-0.086140,-0.098635,-0.300300,-0.256631,-0.664690,0.549915,2.446998,-0.250049,-11.073895
1790544708.2080,-0.082384,-0.095009,-0.294383,-0.083511,-0.096097,-0.294383,-0.408399,-0.259167,0.583911,3.213558,-1.476988,-9.366203
1790544708.2218,-0.077040,-0.088844,-0.290053,-0.078981,-0.091020,-0.290053,-0.574737,-0.503209,0.401790,1.872079,-0.993649,-9.521448
1790544708.2357,-0.072982,-0.079225,-0.289566,-0.074782,-0.082763,-0.289566,-0.762929,-0.499567,0.089755,3.443526,-0.324409,-8.512357
1790544708.2500,-0.066246,-0.066637,-0.290604,-0.068807,-0.071475,-0.290604,-0.912268,-0.637979,-0.064441,3.098574,0.419191,-9.133336
1790544708.2644,-0.057951,-0.051480,-0.292939,-0.061208,-0.057479,-0.292939,-1.057965,-0.805530,-0.143360,3.635166,0.642271,-7.309210
1790544708.2785,-0.065039,-0.048567,-0.296881,-0.063890,-0.051241,-0.296881,-0.257846,0.369759,-0.310911,4.325070,0.047391,-12.665154
1790544708.2925,-0.073478,-0.055484,-0.308989,-0.070602,-0.054211,-0.308989,0.542274,0.811707,-0.859704,-1.730752,1.497411,-12.471098
1790544708.3066,-0.057791,-0.061615,-0.323133,-0.061634,-0.059394,-0.323133,0.612694,-0.771534,-0.933766,-3.378855,2.798711,-7.425644
1790544708.3205,-0.063490,-0.063955,-0.330285,-0.062933,-0.062587,-0.330285,0.213242,0.259272,-0.480891,3.865134,1.460231,-9.793126
1790544708.3344,-0.055485,-0.071620,-0.333774,-0.057720,-0.068910,-0.333774,0.520420,-0.521421,-0.395901,-0.005993,0.270471,-11.811308
1790544708.3483,-0.039066,-0.081738,-0.342654,-0.044662,-0.077890,-0.342654,0.762034,-0.982795,-0.694580,-2.267343,1.199971,-10.064805
1790544708.3620,-0.028256,-0.090680,-0.353774,-0.033178,-0.086843,-0.353774,0.747464,-0.795817,-0.765001,0.798895,1.757671,-8.201867
1790544708.3756,-0.021492,-0.095391,-0.365383,-0.024998,-0.092827,-0.365383,0.502207,-0.526278,-0.693366,0.952207,2.538451,-7.503266
1790544708.3894,-0.015777,-0.103519,-0.373678,-0.018543,-0.100311,-0.373678,0.566557,-0.409720,-0.718863,0.530599,0.307651,-9.637881
1790544708.4034,-0.019767,-0.115391,-0.378133,-0.019400,-0.110867,-0.378133,0.717111,0.258058,-0.704293,1.488799,-2.369308,-14.295224
1790544708.4173,-0.034864,-0.106999,-0.389184,-0.030225,-0.108159,-0.389184,-0.565023,1.152881,-0.619304,-0.849208,1.869211,-16.235784
1790544708.4313,-0.025957,-0.095497,-0.396782,-0.027237,-0.099296,-0.396782,-0.931694,-0.289520,-0.610805,-6.176798,-1.625708,-10.181238
1790544708.4452,-0.025101,-0.084801,-0.400623,-0.025742,-0.089149,-0.400623,-1.088319,0.242274,-0.432326,-2.458983,-2.555208,-4.204315
1790544708.4592,-0.028681,-0.073070,-0.405656,-0.027799,-0.077894,-0.405656,-1.019113,0.438965,-0.370404,-1.807408,-1.588528,-6.921098
1790544708.4731,-0.036809,-0.065307,-0.408245,-0.034106,-0.069083,-0.408245,-0.680367,0.854202,-0.403186,-3.033903,-1.030829,-7.542077
1790544708.4871,-0.045447,-0.054150,-0.404655,-0.042045,-0.058630,-0.404655,-0.733789,0.937978,-0.444467,-3.800463,1.646131,-7.969000
1790544708.5011,-0.035816,-0.056246,-0.404287,-0.037685,-0.056961,-0.404287,0.101541,-0.435217,-0.109364,-4.452038,0.158931,-10.336483
1790544708.5154,-0.033197,-0.060734,-0.402360,-0.034543,-0.059602,-0.402360,0.294589,-0.243383,0.282804,0.760567,1.014071,-13.169700
1790544708.5293,-0.041940,-0.057475,-0.393122,-0.039721,-0.058113,-0.393122,-0.147359,0.470533,0.620336,1.757095,2.538451,-9.560259
1790544708.5433,-0.039891,-0.062289,-0.387143,-0.039840,-0.061036,-0.387143,0.275163,-0.027265,0.501350,-2.382327,-0.064149,-8.473546
1790544708.5571,-0.047287,-0.068529,-0.387358,-0.045053,-0.066281,-0.387358,0.425716,0.407397,0.393291,1.412143,0.567911,-8.395923
1790544708.5712,-0.058876,-0.076663,-0.384495,-0.054729,-0.073549,-0.384495,0.613908,0.685436,0.392077,2.255358,1.683311,-10.375294
1790544708.5848,-0.069199,-0.081814,-0.374309,-0.064858,-0.079335,-0.374309,0.470640,0.721860,0.399362,0.492271,2.389731,-9.405014
1790544708.5984,-0.077231,-0.088616,-0.362989,-0.073519,-0.085831,-0.362989,0.572628,0.555523,0.512277,0.492271,2.315371,-10.181238
1790544708.6119,-0.085333,-0.094211,-0.351840,-0.081789,-0.091697,-0.351840,0.469426,0.555523,0.571770,0.722239,1.980751,-9.870749
1790544708.6259,-0.089829,-0.100966,-0.341239,-0.087417,-0.098186,-0.341239,0.496137,0.330907,0.575412,-0.120976,1.274331,-9.133336
1790544708.6400,-0.078473,-0.106978,-0.337680,-0.081156,-0.104340,-0.337680,0.306731,-0.776391,0.620336,-0.887536,-1.068009,-13.713056
1790544708.6540,-0.069854,-0.103250,-0.328518,-0.073245,-0.103577,-0.328518,-0.249347,-0.752108,0.576626,2.676966,1.683311,-12.199420
1790544708.6679,-0.065112,-0.098582,-0.325370,-0.067552,-0.100080,-0.325370,-0.401114,-0.493496,0.554772,2.906934,-0.064149,-12.199420
1790544708.6819,-0.062977,-0.091575,-0.334766,-0.064349,-0.094127,-0.334766,-0.663369,-0.408506,0.423645,3.290214,-1.439808,-7.270399
1790544708.6957,-0.053275,-0.078119,-0.337284,-0.056597,-0.082921,-0.337284,-1.050680,-0.882021,0.190529,2.332014,-0.250049,-7.697322
1790544708.7097,-0.044432,-0.063942,-0.339147,-0.048082,-0.069636,-0.339147,-1.036111,-0.835884,0.129822,2.791950,0.605091,-8.163056
1790544708.7236,-0.036203,-0.050196,-0.340659,-0.039767,-0.056028,-0.340659,-0.977832,-0.805530,0.089755,3.558510,1.311511,-9.793126
1790544708.7375,-0.047128,-0.054351,-0.345703,-0.044920,-0.054854,-0.345703,0.193815,0.651440,-0.200425,4.325070,-1.179549,-14.838581
1790544708.7516,-0.052727,-0.056783,-0.356694,-0.050385,-0.056204,-0.356694,0.247238,0.493602,-0.712792,-0.044320,2.203831,-10.879840
1790544708.7663,-0.036495,-0.058698,-0.364927,-0.040662,-0.057950,-0.364927,0.178031,-1.072642,-0.587736,0.377287,1.348691,-7.813756
1790544708.7805,-0.043291,-0.062774,-0.372695,-0.042502,-0.061327,-0.372695,0.294589,0.328478,-0.340051,3.328542,0.976891,-9.482637
1790544708.7945,-0.036499,-0.072333,-0.374906,-0.038300,-0.069031,-0.374906,0.677044,-0.290734,-0.591378,-2.229015,0.679451,-9.870749
1790544708.8084,-0.025171,-0.081215,-0.386927,-0.029109,-0.077560,-0.386927,0.694042,-0.804316,-0.772285,0.798895,1.571771,-9.366203
1790544708.8219,-0.020679,-0.086793,-0.401610,-0.023208,-0.084023,-0.401610,0.462141,-0.350227,-0.919197,1.412143,1.646131,-10.103616
1790544708.8357,-0.011782,-0.088279,-0.414720,-0.015210,-0.087002,-0.414720,0.163462,-0.667118,-0.812352,0.913879,1.423051,-7.969000
1790544708.8514,-0.000731,-0.095704,-0.428354,-0.005075,-0.093093,-0.428354,0.482781,-0.607625,-0.888843,-0.887536,1.088431,-9.443825
1790544708.8660,0.010063,-0.103844,-0.441686,0.005522,-0.100619,-0.441686,0.694042,-0.622195,-0.809924,-1.692424,3.653851,-10.297672
1790544708.8805,-0.003755,-0.112239,-0.447624,-0.000972,-0.108753,-0.447624,0.514349,0.848131,-0.639944,2.715294,-0.287229,-12.199420
1790544708.8951,-0.007194,-0.100985,-0.456417,-0.005327,-0.103316,-0.456417,-0.773856,0.404969,-0.664227,-3.570495,1.088431,-13.945924
1790544708.9104,-0.005404,-0.087059,-0.457868,-0.005381,-0.091936,-0.457868,-1.027612,0.100220,-0.562239,-3.455511,-1.179549,-9.482637
1790544708.9242,-0.009598,-0.076858,-0.456320,-0.008333,-0.081381,-0.456320,-0.962048,0.525169,-0.455394,-2.075704,-1.848788,-6.028441
1790544708.9381,-0.015605,-0.062641,-0.459095,-0.013423,-0.068263,-0.459095,-1.157525,0.579806,-0.366762,-1.692424,-1.030829,-8.628791
1790544708.9522,-0.020857,-0.049135,-0.456995,-0.018627,-0.054873,-0.456995,-0.949907,0.624729,-0.275701,-3.340527,1.162791,-8.473546
1790544708.9669,-0.010616,-0.053979,-0.453945,-0.013019,-0.054247,-0.453945,0.273949,-0.582128,0.014479,-4.375383,0.121751,-19.107812
1790544708.9810,-0.016355,-0.056070,-0.448242,-0.015355,-0.055523,-0.448242,0.180460,0.219205,0.694398,2.293686,1.869211,-12.587532
1790544708.9953,-0.021842,-0.058439,-0.435782,-0.019896,-0.057564,-0.435782,0.148892,0.199779,1.108421,1.297159,0.716631,-11.617252
1790544709.0098,-0.018607,-0.064262,-0.418633,-0.018994,-0.062253,-0.418633,0.340727,0.052868,0.604552,-3.417183,-0.212869,-4.825294
1790544709.0242,-0.030242,-0.066872,-0.420659,-0.026868,-0.065486,-0.420659,0.157391,0.602874,0.507420,2.906934,0.567911,-10.452916
1790544709.0383,-0.041843,-0.077721,-0.415320,-0.037351,-0.074050,-0.415320,0.742608,0.713361,0.647047,1.373815,0.642271,-13.053266
1790544709.0520,-0.056579,-0.087866,-0.406134,-0.050811,-0.083721,-0.406134,0.798458,0.940406,0.802457,1.297159,1.757671,-8.667602
1790544709.0658,-0.066383,-0.090677,-0.391757,-0.061712,-0.088590,-0.391757,0.328585,0.625943,0.902017,0.683911,2.835891,-8.434735
1790544709.0800,-0.072587,-0.096154,-0.377036,-0.069324,-0.093885,-0.377036,0.392935,0.385543,0.966366,0.185647,1.311511,-8.784035
1790544709.0941,-0.076394,-0.099388,-0.360281,-0.074273,-0.097737,-0.360281,0.320086,0.241060,0.973651,-0.044320,2.910251,-9.715504
1790544709.1080,-0.067073,-0.103620,-0.346615,-0.069233,-0.101855,-0.346615,0.212027,-0.664690,0.996720,-1.002520,-0.212869,-14.101168
1790544709.1220,-0.055607,-0.098854,-0.334386,-0.059695,-0.099754,-0.334386,-0.319767,-0.900234,0.752677,1.220503,2.017931,-13.984735
1790544709.1359,-0.054765,-0.092360,-0.330315,-0.056244,-0.094578,-0.330315,-0.594163,-0.300447,0.682257,3.328542,-1.068009,-9.094525
1790544709.1499,-0.047965,-0.084355,-0.327608,-0.050449,-0.087422,-0.327608,-0.691294,-0.682902,0.426073,2.255358,-0.807749,-7.464455
1790544709.1638,-0.038442,-0.070108,-0.327864,-0.042044,-0.075302,-0.327864,-1.030040,-0.958512,0.243951,3.366870,0.716631,-7.386832
1790544709.1777,-0.028644,-0.055802,-0.329064,-0.032664,-0.061652,-0.329064,-0.996044,-0.952442,0.093398,3.481854,1.348691,-8.201867
1790544709.1917,-0.030567,-0.055287,-0.330140,-0.031196,-0.057196,-0.330140,-0.092722,0.003088,-0.099651,3.481854,0.158931,-13.868301
1790544709.2056,-0.037969,-0.058165,-0.341509,-0.035937,-0.057874,-0.341509,0.273949,0.600446,-0.582879,0.070663,2.724351,-13.169700
1790544709.2194,-0.027239,-0.063509,-0.350906,-0.029848,-0.061818,-0.350906,0.429359,-0.534777,-0.903413,-2.573967,1.646131,-10.025993
1790544709.2334,-0.029191,-0.068426,-0.361249,-0.029388,-0.066443,-0.361249,0.368652,-0.030908,-0.663013,3.251886,0.939711,-7.658511
1790544709.2473,-0.029030,-0.077302,-0.366241,-0.029137,-0.074045,-0.366241,0.605409,-0.108613,-0.432326,1.987063,0.270471,-8.589979
1790544709.2618,-0.013790,-0.085603,-0.377356,-0.018394,-0.082135,-0.377356,0.592054,-0.925731,-0.843920,-1.385800,1.237151,-11.073895
1790544709.2766,-0.003229,-0.099610,-0.390994,-0.007779,-0.094368,-0.390994,0.940513,-0.715684,-0.902199,0.837223,0.753811,-9.676693
1790544709.2904,0.001071,-0.106548,-0.410502,-0.001584,-0.102894,-0.410502,0.600553,-0.359940,-0.947122,1.028863,1.794851,-6.804665
1790544709.3045,0.010844,-0.112761,-0.425021,0.007116,-0.109801,-0.425021,0.452428,-0.686545,-0.908269,0.262303,1.088431,-9.599070
1790544709.3188,0.015433,-0.124764,-0.436979,0.012938,-0.120275,-0.436979,0.849452,-0.321088,-0.693366,0.108991,1.125611,-11.151518
1790544709.3329,-0.003895,-0.119056,-0.452663,0.001155,-0.119421,-0.452663,-0.328266,1.307077,-0.761358,2.332014,3.542311,-16.352217
1790544709.3469,-0.004416,-0.108886,-0.457194,-0.002745,-0.112046,-0.457194,-0.789640,0.258058,-0.663013,-4.758662,-0.324409,-13.596623
1790544709.3610,-0.006665,-0.097737,-0.456620,-0.005489,-0.102030,-0.456620,-0.932909,0.328478,-0.613233,-2.343999,-1.476988,-9.443825
1790544709.3753,-0.008922,-0.085821,-0.450815,-0.007892,-0.090684,-0.450815,-1.011828,0.328478,-0.360691,-1.730752,-1.439808,-6.338930
1790544709.3893,-0.013462,-0.070593,-0.457163,-0.011791,-0.076620,-0.457163,-1.079820,0.493602,-0.471178,-1.922392,0.976891,-8.318301
1790544709.4032,-0.020551,-0.060617,-0.457471,-0.017923,-0.065418,-0.457471,-0.870987,0.685436,-0.369190,-2.458983,-1.588528,-10.452916
1790544709.4171,-0.024006,-0.051033,-0.457390,-0.022181,-0.055349,-0.457390,-0.813923,0.509385,-0.320625,-4.298727,-1.142369,-10.918651
1790544709.4310,-0.014814,-0.054639,-0.453959,-0.017024,-0.054852,-0.453959,0.133108,-0.669547,0.166246,-0.580912,-1.774428,-17.050819
1790544709.4449,-0.022611,-0.060530,-0.450631,-0.020935,-0.058827,-0.450631,0.374722,0.362474,0.667687,2.983590,0.158931,-14.178791
1790544709.4588,-0.024541,-0.061859,-0.438611,-0.023459,-0.060949,-0.438611,0.379579,0.198565,0.859522,-1.424128,3.282051,-4.825294
1790544709.4727,-0.021113,-0.063881,-0.431617,-0.021817,-0.063002,-0.431617,0.209599,-0.135324,0.331370,-1.424128,1.162791,-5.601518
1790544709.4866,-0.034320,-0.068929,-0.433736,-0.030569,-0.067151,-0.433736,0.390506,0.673295,0.309515,4.210086,1.311511,-9.133336
1790544709.5006,-0.048883,-0.079861,-0.430691,-0.043389,-0.076048,-0.430691,0.816670,0.903982,0.428501,1.910407,1.348691,-9.327392
1790544709.5142,-0.059077,-0.087263,-0.426917,-0.054371,-0.083898,-0.426917,0.732894,0.717004,0.564485,0.108991,3.393591,-7.813756
1790544709.5283,-0.067257,-0.090900,-0.420255,-0.063391,-0.088799,-0.420255,0.385650,0.555523,0.665259,0.032335,3.282051,-9.754315
1790544709.5422,-0.072782,-0.096370,-0.411119,-0.069965,-0.094099,-0.411119,0.406290,0.329692,0.696826,0.683911,1.162791,-8.473546
1790544709.5563,-0.082318,-0.101164,-0.401828,-0.078612,-0.099044,-0.401828,0.406290,0.549452,0.660402,1.910407,2.017931,-8.900469
1790544709.5702,-0.073470,-0.105497,-0.395853,-0.075012,-0.103561,-0.395853,0.406290,-0.674403,0.554772,0.913879,4.211551,-15.575993
1790544709.5845,-0.066235,-0.098984,-0.383105,-0.068868,-0.100357,-0.383105,-0.432682,-0.693829,0.497707,3.750150,1.720491,-11.733686
1790544709.5989,-0.062434,-0.092258,-0.367986,-0.064364,-0.094688,-0.367986,-0.565023,-0.435217,0.468568,3.558510,-0.844929,-12.781588
1790544709.6130,-0.057038,-0.084320,-0.356440,-0.059236,-0.087430,-0.356440,-0.637872,-0.620981,0.224525,2.638638,-0.212869,-6.222497
1790544709.6270,-0.051745,-0.071503,-0.351760,-0.053992,-0.076281,-0.351760,-0.901341,-0.601555,0.208741,2.906934,0.939711,-7.425644
1790544709.6413,-0.040292,-0.061283,-0.342394,-0.044402,-0.065782,-0.342394,-0.785997,-0.996151,0.084899,2.906934,-0.101329,-8.667602
1790544709.6554,-0.044661,-0.054357,-0.339307,-0.044583,-0.057785,-0.339307,-0.518886,0.152428,0.021763,3.980118,0.828171,-13.868301
1790544709.6695,-0.049800,-0.059559,-0.345908,-0.048235,-0.059027,-0.345908,0.391720,0.385543,-0.358263,0.990535,2.203831,-17.632987
1790544709.6837,-0.037446,-0.062318,-0.367888,-0.040683,-0.061330,-0.367888,0.264236,-0.627052,-0.851205,-4.260399,2.947431,-15.808861
1790544709.6978,-0.040936,-0.069190,-0.376295,-0.040860,-0.066832,-0.376295,0.532561,0.124502,-0.508817,2.753622,1.423051,-8.628791
1790544709.7118,-0.037622,-0.078949,-0.380864,-0.038594,-0.075314,-0.380864,0.685543,-0.185104,-0.423827,-0.120976,0.493551,-8.745224
1790544709.7258,-0.020987,-0.089341,-0.397023,-0.026269,-0.085133,-0.397023,0.770533,-1.002221,-0.788069,-2.114032,1.014071,-9.443825
1790544709.7395,-0.013821,-0.101926,-0.408829,-0.017555,-0.096888,-0.408829,0.940513,-0.549346,-0.883987,1.028863,0.902531,-8.279490
1790544709.7532,-0.005682,-0.108887,-0.429973,-0.009244,-0.105287,-0.429973,0.627264,-0.610054,-0.890057,0.722239,2.055111,-7.619700
1790544709.7677,0.004857,-0.116823,-0.447614,0.000627,-0.113363,-0.447614,0.610266,-0.724183,-0.868203,0.338959,1.757671,-9.599070
1790544709.7822,-0.000509,-0.130968,-0.469978,-0.000168,-0.125686,-0.469978,1.110493,0.387971,-0.650871,-0.082648,3.691031,-12.432287
1790544709.7965,-0.015278,-0.135738,-0.469899,-0.010745,-0.132722,-0.469899,0.323729,0.914909,-0.614447,4.056774,0.790991,-18.797322
1790544709.8105,-0.012394,-0.125151,-0.483447,-0.011900,-0.127422,-0.483447,-0.824850,0.033442,-0.649657,-4.605350,-0.882109,-11.539630
1790544709.8247,-0.012957,-0.112164,-0.482394,-0.012640,-0.116741,-0.482394,-1.096818,0.191280,-0.574380,-1.999048,-1.997508,-8.395923
1790544709.8386,-0.014945,-0.097194,-0.480849,-0.014253,-0.103058,-0.480849,-1.266798,0.322408,-0.459037,-1.999048,-1.848788,-7.076343
1790544709.8526,-0.019955,-0.080348,-0.486747,-0.018244,-0.087161,-0.486747,-1.332361,0.568878,-0.512459,-2.267343,-0.993649,-7.464455
1790544709.8667,-0.029592,-0.067499,-0.490547,-0.026188,-0.073397,-0.490547,-1.104103,0.927050,-0.449324,-2.650623,-1.885968,-7.348021
1790544709.8813,-0.031956,-0.053409,-0.497802,-0.030226,-0.059405,-0.497802,-1.027612,0.333335,-0.497889,-3.378855,0.010211,-16.817952
1790544709.8954,-0.020281,-0.059106,-0.494790,-0.023264,-0.059196,-0.494790,0.253308,-0.794603,-0.070511,-0.695896,-1.923148,-12.859210
1790544709.9093,-0.026956,-0.060038,-0.493247,-0.025849,-0.059785,-0.493247,-0.000447,0.377044,0.121323,2.063719,-0.138509,-13.557812
1790544709.9233,-0.027643,-0.054087,-0.491384,-0.027105,-0.055796,-0.491384,-0.276058,0.054082,0.473424,-0.695896,2.761531,-7.425644
1790544709.9376,-0.027111,-0.053525,-0.487670,-0.027109,-0.054206,-0.487670,-0.024730,-0.172962,0.288875,1.297159,0.976891,-7.270399
1790544709.9517,-0.035653,-0.061897,-0.480899,-0.033090,-0.059590,-0.480899,0.534989,0.351547,0.450356,3.520182,-0.026969,-9.210958
1790544709.9654,-0.050441,-0.072140,-0.479563,-0.045236,-0.068375,-0.479563,0.808171,0.936763,0.461283,1.718767,1.794851,-8.861658
1790544709.9793,-0.053329,-0.078241,-0.481775,-0.050901,-0.075281,-0.481775,0.562915,0.310266,0.396933,-1.654096,2.501271,-7.930189
1790544709.9930,-0.058033,-0.078962,-0.479911,-0.055893,-0.077858,-0.479911,0.150106,0.316337,0.491636,0.108991,2.612811,-9.754315
1790544710.0072,-0.064843,-0.084810,-0.474215,-0.062158,-0.082725,-0.474215,0.431787,0.479032,0.599695,-0.274288,1.125611,-8.007811
1790544710.0216,-0.071844,-0.089405,-0.467938,-0.068939,-0.087401,-0.467938,0.380793,0.421967,0.656760,0.722239,2.166651,-9.599070
1790544710.0359,-0.055001,-0.090505,-0.455939,-0.059182,-0.089573,-0.455939,0.128252,-1.298472,0.837667,1.603783,2.761531,-12.587532
1790544710.0502,-0.048890,-0.081129,-0.439010,-0.051978,-0.083662,-0.439010,-0.631801,-0.670761,0.628835,3.673494,1.534591,-9.793126
1790544710.0643,-0.048424,-0.072786,-0.411734,-0.049490,-0.076049,-0.411734,-0.760500,-0.322302,0.528061,4.210086,-1.625708,-9.055714
1790544710.0783,-0.042761,-0.064714,-0.392997,-0.044780,-0.068114,-0.392997,-0.788426,-0.658619,0.196600,2.791950,-1.700068,-6.183686
1790544710.0925,-0.037849,-0.051957,-0.397105,-0.039928,-0.056804,-0.397105,-0.858846,-0.591841,0.226954,3.290214,1.423051,-7.930189
1790544710.1066,-0.051029,-0.053368,-0.397978,-0.047698,-0.054399,-0.397978,0.118539,0.751000,0.218455,4.210086,1.906391,-13.441378
1790544710.1210,-0.056948,-0.052818,-0.417921,-0.054173,-0.053292,-0.417921,0.077258,0.438965,-0.587736,1.488799,3.876931,-14.489280
1790544710.1354,-0.045400,-0.055697,-0.433439,-0.048032,-0.054976,-0.433439,0.221741,-0.559060,-0.941051,-2.842263,1.237151,-12.199420
1790544710.1494,-0.050988,-0.060368,-0.444390,-0.050101,-0.058750,-0.444390,0.411147,0.315123,-0.431112,1.987063,1.720491,-7.930189
1790544710.1634,-0.046438,-0.068168,-0.452629,-0.047537,-0.065343,-0.452629,0.576270,-0.202102,-0.415328,-1.155832,1.014071,-9.715504
1790544710.1774,-0.034638,-0.076202,-0.464487,-0.038508,-0.072945,-0.464487,0.576270,-0.693829,-0.849991,-1.194160,0.716631,-10.258860
1790544710.1914,-0.029905,-0.077459,-0.487929,-0.032486,-0.076105,-0.487929,0.220526,-0.324730,-1.058823,1.220503,2.575631,-8.861658
1790544710.2052,-0.027890,-0.078796,-0.506296,-0.029269,-0.077989,-0.506296,0.168318,-0.109827,-1.034540,0.683911,1.534591,-7.969000
1790544710.2189,-0.025254,-0.081446,-0.518560,-0.026458,-0.080409,-0.518560,0.186530,-0.111041,-0.944694,-0.082648,0.679451,-9.754315
1790544710.2329,-0.015000,-0.088300,-0.528578,-0.018438,-0.085933,-0.528578,0.457284,-0.617338,-0.805067,-1.079176,0.344831,-11.035084
1790544710.2469,-0.006676,-0.095395,-0.542392,-0.010204,-0.092556,-0.542392,0.564129,-0.569987,-0.680011,0.185647,1.720491,-9.909560
1790544710.2609,-0.008811,-0.096212,-0.564445,-0.009229,-0.095115,-0.564445,0.318872,0.153642,-0.397116,0.415615,5.066691,-9.249770
1790544710.2749,-0.021125,-0.093115,-0.575763,-0.017556,-0.093715,-0.575763,-0.223850,0.945262,-0.610805,-0.734224,1.162791,-15.808861
1790544710.2895,-0.021880,-0.083455,-0.588421,-0.020583,-0.086533,-0.588421,-0.665797,0.319979,-0.480891,-4.796990,0.753811,-11.035084
1790544710.3041,-0.026231,-0.077438,-0.578472,-0.024537,-0.080167,-0.578472,-0.597805,0.431680,-0.342479,-1.270816,-1.514168,-6.610609
1790544710.3181,-0.034446,-0.062734,-0.588429,-0.031473,-0.067964,-0.588429,-0.981474,0.720646,-0.059584,-1.194160,1.199971,-5.834385
1790544710.3323,-0.042607,-0.049386,-0.587049,-0.039267,-0.054959,-0.587049,-1.045824,0.826277,-0.127576,-2.037376,-0.398769,-5.019350
1790544710.3466,-0.037651,-0.056165,-0.583621,-0.038136,-0.055803,-0.583621,0.372294,-0.233670,0.069115,-3.378855,-1.142369,-16.895574
1790544710.3605,-0.038790,-0.061723,-0.570303,-0.038593,-0.059947,-0.570303,0.361367,-0.063690,0.548701,2.217030,0.753811,-14.139979
1790544710.3744,-0.043610,-0.063596,-0.561189,-0.042105,-0.062501,-0.561189,0.090613,0.306624,0.637334,-0.235960,0.530731,-12.781588
1790544710.3883,-0.041598,-0.067918,-0.554843,-0.041751,-0.066293,-0.554843,0.253308,0.014015,0.474638,-2.343999,0.047391,-6.959909
1790544710.4023,-0.052847,-0.075803,-0.546938,-0.049518,-0.072950,-0.546938,0.568985,0.673295,0.338655,1.603783,0.865351,-8.085434
1790544710.4162,-0.060383,-0.086869,-0.540399,-0.057123,-0.082693,-0.540399,0.803315,0.472961,0.489208,0.837223,1.199971,-10.258860
1790544710.4298,-0.073293,-0.094500,-0.536640,-0.068442,-0.090958,-0.536640,0.667331,0.922194,0.542630,0.377287,2.538451,-9.366203
1790544710.4434,-0.081529,-0.100924,-0.531886,-0.077603,-0.097934,-0.531886,0.504636,0.646583,0.701683,-0.849208,1.757671,-10.336483
1790544710.4572,-0.086191,-0.106733,-0.524888,-0.083615,-0.104094,-0.524888,0.476710,0.319979,0.690756,0.262303,2.166651,-10.181238
1790544710.4712,-0.077994,-0.115151,-0.515865,-0.079680,-0.111834,-0.515865,0.513135,-0.539633,0.750249,-1.002520,-0.324409,-11.035084
1790544710.4852,-0.070579,-0.113004,-0.500247,-0.073309,-0.112653,-0.500247,-0.214136,-0.665904,0.579055,2.485326,-0.026969,-11.190329
1790544710.4990,-0.070956,-0.109460,-0.473980,-0.071662,-0.110418,-0.473980,-0.416898,-0.200888,0.666473,3.750150,-1.662888,-9.948371
1790544710.5129,-0.069075,-0.101890,-0.456321,-0.069851,-0.104448,-0.456321,-0.657298,-0.332015,0.497707,2.906934,-0.807749,-8.784035
1790544710.5269,-0.061730,-0.089727,-0.446880,-0.064166,-0.094143,-0.446880,-0.879486,-0.697472,0.373865,2.676966,0.753811,-9.249770
1790544710.5411,-0.060107,-0.078465,-0.430803,-0.061325,-0.083169,-0.430803,-0.925624,-0.413363,0.173531,5.474909,-1.402628,-9.288581
1790544710.5552,-0.052397,-0.064589,-0.424421,-0.055076,-0.070163,-0.424421,-1.045824,-0.773963,0.092184,3.481854,0.047391,-8.512357
1790544710.5693,-0.049205,-0.052690,-0.420462,-0.050966,-0.057932,-0.420462,-0.892842,-0.423076,0.032691,3.520182,0.344831,-9.831937
1790544710.5832,-0.063573,-0.055111,-0.415792,-0.059791,-0.055957,-0.415792,0.059046,0.998685,-0.374047,2.676966,-1.476988,-15.770049
1790544710.5971,-0.056095,-0.060335,-0.429647,-0.057203,-0.059022,-0.429647,0.416003,-0.355084,-0.863346,-1.117504,1.014071,-8.628791
1790544710.6110,-0.056197,-0.059344,-0.464962,-0.056499,-0.059248,-0.464962,0.136751,-0.182676,-0.472392,2.715294,2.352551,-5.329839
1790544710.6250,-0.054906,-0.066678,-0.464085,-0.055384,-0.064449,-0.464085,0.476710,-0.101328,-0.461465,0.875551,0.047391,-7.425644
1790544710.6391,-0.031786,-0.077980,-0.474413,-0.038865,-0.073921,-0.474413,0.817884,-1.461167,-0.666655,-2.420655,0.976891,-11.229140
1790544710.6530,-0.018706,-0.091482,-0.487244,-0.024754,-0.086214,-0.487244,1.008505,-1.003436,-0.790498,1.603783,1.088431,-7.930189
1790544710.6667,-0.009159,-0.098267,-0.512209,-0.013837,-0.094651,-0.512209,0.643048,-0.738753,-0.769857,1.067191,2.278191,-7.386832
1790544710.6804,-0.002176,-0.104464,-0.521382,-0.005675,-0.101520,-0.521382,0.449999,-0.515351,-0.720077,0.568927,0.828171,-10.918651
1790544710.6943,0.008804,-0.114278,-0.539163,0.004460,-0.110450,-0.539163,0.770533,-0.698686,-0.568310,-1.462456,1.869211,-11.035084
1790544710.7083,-0.000218,-0.116644,-0.523593,0.001185,-0.114786,-0.523593,0.017765,0.513028,-0.457823,3.290214,-2.146228,-14.178791
1790544710.7221,0.002352,-0.105083,-0.529957,0.002002,-0.107994,-0.529957,-0.873416,0.017658,-0.319410,-4.490366,0.047391,-12.781588
1790544710.7361,0.000204,-0.092070,-0.519506,0.000743,-0.096847,-0.519506,-1.091961,0.270199,-0.187069,-1.884064,-1.625708,-9.133336
1790544710.7500,0.000524,-0.080087,-0.509137,0.000590,-0.085115,-0.509137,-1.071321,0.214349,-0.080224,-2.957247,-1.923148,-6.455364
1790544710.7639,-0.001903,-0.064285,-0.506511,-0.001155,-0.070534,-0.506511,-1.226731,0.321193,-0.068083,-1.884064,-0.250049,-7.348021
1790544710.7781,-0.008239,-0.055032,-0.502577,-0.006114,-0.059682,-0.502577,-0.821207,0.632014,-0.111792,-3.302199,-1.960328,-10.025993
1790544710.7925,-0.018190,-0.045199,-0.505064,-0.014567,-0.049544,-0.505064,-0.836991,0.951333,-0.102079,-3.378855,-1.253909,-7.192776
1790544710.8065,-0.010738,-0.047972,-0.498134,-0.011887,-0.048444,-0.498134,0.025050,-0.466785,0.094612,-2.612295,-3.187268,-17.594175
