t,imu_roll,imu_pitch,imu_yaw,lpf_roll,lpf_pitch,lpf_yaw,gyro_x,gyro_y,gyro_z,acc_x,acc_y,acc_z
1790541840.4392,-0.013812,-0.051514,0.006285,-0.009668,-0.036060,0.006285,-0.011321,-0.007094,0.001765,-0.005993,1.199971,-10.064805
1790541840.4575,-0.018470,-0.051634,0.003039,-0.015830,-0.046962,0.003039,0.006891,-0.003451,0.004193,0.070663,1.199971,-9.715504
1790541840.4712,-0.017453,-0.053024,0.004332,-0.016966,-0.051206,0.004332,-0.017392,-0.003451,0.001765,-0.005993,1.237151,-10.414105
1790541840.4852,-0.021735,-0.047333,-0.000645,-0.020304,-0.048494,-0.000645,-0.030748,-0.001023,-0.001878,0.185647,1.423051,-9.870749
1790541840.4992,-0.024721,-0.046372,-0.002688,-0.023396,-0.047009,-0.002688,-0.031962,-0.015593,-0.001878,0.223975,1.348691,-10.297672
1790541840.5131,-0.026855,-0.043460,-0.005059,-0.025818,-0.044524,-0.005059,-0.103596,-0.066587,0.004193,0.262303,1.385871,-9.948371
1790541840.5275,-0.027246,-0.040002,-0.005732,-0.026817,-0.041359,-0.005732,-0.183729,-0.016807,0.015120,0.147319,1.385871,-9.870749
1790541840.5419,-0.026326,-0.036792,-0.005044,-0.026474,-0.038162,-0.005044,-0.204370,-0.043518,0.046688,0.070663,1.311511,-9.327392
1790541840.5559,-0.030674,-0.036535,-0.003252,-0.029414,-0.037023,-0.003252,-0.166731,-0.033805,0.130464,0.492271,1.162791,-9.521448
1790541840.5700,-0.033349,-0.035279,-0.000005,-0.032168,-0.035802,-0.000005,-0.149733,-0.039875,0.267662,0.415615,1.311511,-9.870749
1790541840.5839,-0.038249,-0.034562,0.005237,-0.036425,-0.034934,0.005237,-0.160661,-0.076300,0.449783,0.722239,1.237151,-9.793126
1790541840.5979,-0.047043,-0.035722,0.012216,-0.043858,-0.035486,0.012216,-0.027105,0.159244,0.635547,0.875551,1.199971,-9.637881
1790541840.6119,-0.038774,-0.029619,0.013917,-0.040299,-0.031379,0.013917,0.087024,0.057256,0.693826,-1.002520,2.278191,-9.443825
1790541840.6259,-0.029956,-0.028681,0.024430,-0.033059,-0.029491,0.024430,-0.127879,-0.234138,0.590624,-0.734224,1.348691,-9.754315
1790541840.6399,-0.027351,-0.033616,0.034005,-0.029063,-0.032379,0.034005,-0.059887,-0.211069,0.460710,0.032335,0.716631,-11.656063
1790541840.6540,-0.021277,-0.040016,0.047525,-0.023613,-0.037725,0.047525,0.063956,-0.184358,0.498349,-0.657568,0.567911,-10.685784
1790541840.6680,-0.021656,-0.044452,0.053048,-0.022243,-0.042434,0.053048,-0.002822,-0.089655,0.556628,0.147319,0.605091,-10.181238
1790541840.6820,-0.021109,-0.045919,0.061485,-0.021449,-0.044874,0.061485,-0.052602,-0.004665,0.435213,-0.159304,0.902531,-9.793126
1790541840.6955,-0.020818,-0.042848,0.072867,-0.021007,-0.043456,0.072867,-0.133950,0.120391,0.338082,-0.350944,1.385871,-8.900469
1790541840.7092,-0.016826,-0.039305,0.084382,-0.018080,-0.040550,0.084382,-0.263863,-0.073871,0.248236,-0.657568,1.385871,-10.297672
1790541840.7232,-0.015054,-0.033887,0.087680,-0.015962,-0.035886,0.087680,-0.340354,-0.167360,0.182672,0.032335,1.571771,-10.181238
1790541840.7372,-0.012402,-0.025132,0.086878,-0.013470,-0.028358,0.086878,-0.402275,-0.447827,0.123179,0.645583,2.129471,-9.754315
1790541840.7513,-0.011984,-0.016408,0.080438,-0.012430,-0.019993,0.080438,-0.370707,-0.469682,0.050330,1.105519,2.017931,-8.434735
1790541840.7653,-0.004014,-0.001991,0.077837,-0.006539,-0.007392,0.077837,-0.496978,-0.807213,0.086755,0.453943,2.687171,-7.542077
1790541840.7793,-0.013173,-0.005731,0.081572,-0.011183,-0.006229,0.081572,0.078525,0.334080,-0.057728,1.833751,1.794851,-16.740329
1790541840.7937,-0.016581,-0.017793,0.068466,-0.014961,-0.014324,0.068466,0.986704,0.590264,-0.530029,-1.424128,3.207691,-15.032637
1790541840.8079,-0.004913,-0.006245,0.036668,-0.007928,-0.008669,0.036668,0.525330,0.064541,-0.794712,-1.999048,4.397451,-5.174595
1790541840.8218,-0.017114,-0.020735,0.056914,-0.014358,-0.017115,0.056914,0.759659,0.494347,-0.922197,1.603783,0.419191,-8.163056
1790541840.8358,-0.014162,-0.021031,0.008382,-0.014221,-0.019856,0.008382,0.825223,0.437282,-0.747361,-1.309144,3.058971,-5.912007
1790541840.8498,-0.001054,-0.023451,-0.005577,-0.005004,-0.022372,-0.005577,0.184156,-0.769575,-1.077608,-0.350944,2.761531,-17.244875
1790541840.8637,-0.014885,-0.024760,0.045020,-0.011921,-0.024044,0.045020,-0.078099,0.443353,-1.353218,4.056774,1.199971,-13.596623
1790541840.8776,-0.009424,-0.019136,0.029357,-0.010173,-0.020608,0.029357,-0.409560,-0.212284,-1.003545,-0.197632,1.646131,-10.569350
1790541840.8915,-0.017155,-0.021165,0.035351,-0.015060,-0.020998,0.035351,-0.072028,0.437282,-0.905199,1.220503,0.679451,-10.918651
1790541840.9053,-0.013267,-0.017881,-0.038900,-0.013805,-0.018816,-0.038900,-0.052602,0.479777,-1.090963,-1.615768,1.534591,-6.222497
1790541840.9188,-0.015004,-0.016112,-0.055692,-0.014645,-0.016923,-0.055692,-0.183729,0.319511,-1.063038,-0.082648,1.199971,-8.784035
1790541840.9323,-0.023639,-0.014356,-0.048296,-0.020941,-0.015126,-0.048296,-0.095097,0.502846,-0.980476,1.335487,1.683311,-9.443825
1790541840.9462,-0.025819,-0.012411,-0.059364,-0.024355,-0.013225,-0.059364,-0.161875,0.280658,-0.855420,0.147319,1.237151,-8.318301
1790541840.9602,-0.027246,-0.010911,-0.058532,-0.026378,-0.011605,-0.058532,-0.140020,0.069397,-0.588308,0.683911,1.348691,-9.249770
1790541840.9741,-0.028046,-0.007959,-0.067050,-0.027546,-0.009053,-0.067050,-0.110881,0.143460,-0.443825,0.070663,2.203831,-10.064805
1790541840.9882,-0.034808,0.002296,-0.069275,-0.032629,-0.001109,-0.069275,-0.394990,0.403286,-0.415900,1.028863,3.616671,-9.831937
1790541841.0022,-0.039967,0.009601,-0.091232,-0.037766,0.006388,-0.091232,-0.365851,0.578123,-0.497248,-0.389272,3.244871,-12.199420
1790541841.0161,-0.035132,-0.003715,-0.076020,-0.035922,-0.000684,-0.076020,0.752374,-0.480609,-0.262918,1.565455,0.828171,-14.799770
1790541841.0302,-0.038370,-0.001779,-0.086319,-0.037636,-0.001450,-0.086319,0.739019,-0.569241,0.234880,2.830278,3.839751,-4.010259
1790541841.0446,-0.044624,-0.018185,-0.023892,-0.042528,-0.013165,-0.023892,1.261100,-0.221997,0.668329,2.561982,2.092291,-7.464455
1790541841.0589,-0.056603,-0.026038,0.013095,-0.052381,-0.022176,0.013095,0.499833,0.488276,0.868662,2.063719,1.906391,-12.742777
1790541841.0730,-0.055663,-0.026733,0.003078,-0.054678,-0.025366,0.003078,-0.000394,-0.027734,1.162485,-0.925864,1.720491,-12.898021
1790541841.0870,-0.031678,-0.030262,-0.246292,-0.038578,-0.028793,-0.246292,0.198725,-0.489108,1.004646,-4.452038,0.493551,-5.058161
1790541841.1010,-0.034918,-0.031437,-0.232217,-0.036016,-0.030644,-0.232217,-0.131521,0.216309,1.099349,-0.657568,0.196111,-9.637881
1790541841.1148,-0.043209,-0.041885,-0.153649,-0.041051,-0.038512,-0.153649,0.190226,0.443353,1.066567,0.032335,-2.480848,-11.423196
1790541841.1289,-0.047870,-0.046912,-0.131685,-0.045824,-0.044392,-0.131685,0.172014,0.162886,1.305753,0.338959,0.344831,-11.190329
1790541841.1428,-0.052475,-0.056489,-0.111698,-0.050480,-0.052860,-0.111698,0.426984,0.408143,1.232905,-1.040848,-0.250049,-9.055714
1790541841.1564,-0.057214,-0.061325,-0.099818,-0.055194,-0.058786,-0.099818,0.192655,0.429998,1.010717,-0.849208,0.307651,-9.676693
1790541841.1700,-0.056478,-0.064873,-0.082732,-0.056093,-0.063047,-0.082732,0.144089,0.291585,0.620977,-2.267343,0.419191,-9.249770
1790541841.1840,-0.056510,-0.067553,-0.078408,-0.056385,-0.066201,-0.078408,0.146517,0.160458,0.418215,-1.040848,0.902531,-10.297672
1790541841.1979,-0.050929,-0.064571,-0.064581,-0.052566,-0.065060,-0.064581,-0.040461,-0.157647,0.130464,-1.692424,2.575631,-10.841028
1790541841.2118,-0.046717,-0.061222,-0.060162,-0.048472,-0.062373,-0.060162,-0.215297,-0.345839,0.103753,0.722239,1.869211,-13.907112
1790541841.2258,-0.040847,-0.056740,-0.049956,-0.043134,-0.058430,-0.049956,-0.427772,-0.656660,-0.039516,2.676966,0.493551,-13.519000
1790541841.2398,-0.033906,-0.042982,-0.028332,-0.036674,-0.047616,-0.028332,-1.020273,-0.861850,-0.099009,2.868606,0.976891,-9.560259
1790541841.2538,-0.029024,-0.031628,0.011609,-0.031319,-0.036425,0.011609,-1.016631,-0.938341,-0.202211,2.676966,-0.138509,-5.135783
1790541841.2677,-0.016556,-0.019514,0.018032,-0.020985,-0.024587,0.018032,-0.904930,-1.228521,-0.373405,1.220503,0.530731,-4.087881
1790541841.2816,-0.030177,-0.019496,0.011614,-0.027419,-0.021023,0.011614,0.173228,0.726248,-0.358835,1.642111,1.794851,-5.950818
1790541841.2962,-0.038341,-0.029377,-0.025932,-0.035064,-0.026871,-0.025932,0.984275,1.122059,-0.788642,-3.608823,3.988471,-9.793126
1790541841.3102,-0.022453,-0.028694,-0.058964,-0.026236,-0.028147,-0.058964,0.235150,-0.536460,-1.490416,-3.417183,3.951291,-10.336483
1790541841.3242,-0.027227,-0.030918,-0.064182,-0.026929,-0.030087,-0.064182,0.322568,0.321939,-1.412711,1.833751,2.612811,-9.405014
1790541841.3381,-0.031244,-0.037400,-0.085761,-0.029950,-0.035206,-0.085761,0.443982,0.551412,-1.145600,-0.542584,0.939711,-8.939280
1790541841.3521,-0.012497,-0.042413,-0.111162,-0.017733,-0.040251,-0.111162,0.311641,-0.907987,-0.998688,-3.033903,1.014071,-11.617252
1790541841.3660,0.000190,-0.051411,-0.126042,-0.005187,-0.048063,-0.126042,0.579966,-0.750149,-1.014472,-0.389272,0.679451,-8.784035
1790541841.3796,-0.000216,-0.052813,-0.127166,-0.001707,-0.051388,-0.127166,0.345637,0.048757,-1.019329,0.568927,2.947431,-8.473546
1790541841.3932,0.006466,-0.055866,-0.131485,0.004014,-0.054522,-0.131485,0.278859,-0.481823,-0.833565,0.453943,1.720491,-9.637881
1790541841.4071,0.010747,-0.063136,-0.136920,0.008727,-0.060552,-0.136920,0.434269,-0.302130,-0.862704,0.492271,0.530731,-9.599070
1790541841.4210,0.006549,-0.063843,-0.129247,0.007202,-0.062855,-0.129247,0.327424,0.154387,-0.547027,1.642111,3.914111,-10.064805
1790541841.4349,-0.012055,-0.061807,-0.127572,-0.006278,-0.062122,-0.127572,-0.220154,1.264113,-0.522745,1.642111,0.828171,-14.450469
1790541841.4488,-0.014944,-0.053775,-0.160144,-0.012344,-0.056279,-0.160144,-0.744663,0.623046,-0.472965,-3.532167,-0.398769,-11.035084
1790541841.4626,-0.016312,-0.046618,-0.184483,-0.015122,-0.049516,-0.184483,-0.895217,0.525915,-0.468108,-2.727279,-1.885968,-7.852567
1790541841.4766,-0.019475,-0.040194,-0.197174,-0.018169,-0.042991,-0.197174,-0.889146,0.593907,-0.361264,-1.500784,-1.439808,-4.864105
1790541841.4906,-0.034193,-0.027388,-0.201705,-0.029386,-0.032068,-0.201705,-0.924356,1.054067,-0.209496,0.453943,1.125611,-8.163056
1790541841.5045,-0.026211,-0.029469,-0.202734,-0.027163,-0.030249,-0.202734,-0.057459,-0.157647,-0.077154,-5.870174,-0.956469,-14.722147
1790541841.5183,-0.017912,-0.040992,-0.201311,-0.020688,-0.037769,-0.201311,0.607891,-0.693084,0.699896,-0.159304,-1.068009,-15.304315
1790541841.5324,-0.027169,-0.046685,-0.179168,-0.025225,-0.044010,-0.179168,0.490119,0.302513,0.941511,1.872079,1.646131,-7.542077
1790541841.5471,-0.016338,-0.058214,-0.163255,-0.019004,-0.053953,-0.163255,0.630960,-0.508534,0.821311,-2.114032,-0.250049,-5.912007
1790541841.5613,-0.018953,-0.068751,-0.154319,-0.018968,-0.064311,-0.154319,0.667384,0.433640,0.452211,-1.922392,0.158931,-6.377742
1790541841.5752,-0.039631,-0.076304,-0.150561,-0.033432,-0.072706,-0.150561,0.528972,1.395240,0.489850,0.798895,1.051251,-11.578441
1790541841.5891,-0.053842,-0.084070,-0.136310,-0.047719,-0.080661,-0.136310,0.609105,0.926582,0.738749,0.760567,1.794851,-11.306763
1790541841.6028,-0.072129,-0.089435,-0.113057,-0.064806,-0.086802,-0.113057,0.552041,1.205834,0.748462,1.143847,2.352551,-8.745224
1790541841.6164,-0.081797,-0.096588,-0.099307,-0.076699,-0.093652,-0.099307,0.569039,0.812452,0.712038,-0.810880,1.423051,-9.094525
1790541841.6300,-0.087735,-0.104006,-0.084011,-0.084424,-0.100900,-0.084011,0.606677,0.403286,0.608836,0.683911,1.943571,-11.500819
1790541841.6442,-0.082597,-0.110017,-0.083071,-0.083145,-0.107281,-0.083071,0.297071,-0.330055,0.594266,-0.120976,-0.212869,-12.121798
1790541841.6581,-0.073265,-0.108324,-0.077532,-0.076229,-0.108011,-0.077532,-0.206798,-0.824211,0.515347,2.332014,0.196111,-12.898021
1790541841.6720,-0.060888,-0.105513,-0.080111,-0.065491,-0.106263,-0.080111,-0.443556,-1.156886,0.579696,3.366870,-1.774428,-11.578441
1790541841.6860,-0.056958,-0.099916,-0.078185,-0.059518,-0.101820,-0.078185,-0.617178,-0.677300,0.493492,4.363398,-1.439808,-9.521448
1790541841.7000,-0.050137,-0.085727,-0.075990,-0.052951,-0.090555,-0.075990,-1.145330,-0.731936,0.396361,1.910407,-0.250049,-7.309210
1790541841.7138,-0.042337,-0.069511,-0.074235,-0.045521,-0.075824,-0.074235,-1.291027,-0.865492,0.240951,2.523654,-0.138509,-7.619700
1790541841.7277,-0.033624,-0.057574,-0.072616,-0.037193,-0.063049,-0.072616,-1.020273,-0.918914,0.119537,2.830278,-0.547489,-8.667602
1790541841.7420,-0.026104,-0.043678,-0.072332,-0.029431,-0.049490,-0.072332,-0.960780,-0.883704,0.147462,3.366870,1.199971,-8.163056
1790541841.7572,-0.027538,-0.031898,-0.079081,-0.028106,-0.037176,-0.079081,-0.720380,-0.096940,-0.137862,2.485326,1.943571,-9.133336
1790541841.7718,-0.034852,-0.041254,-0.078220,-0.032828,-0.040030,-0.078220,0.698952,0.874374,-0.738862,-4.030431,2.575631,-13.557812
1790541841.7865,-0.021527,-0.047057,-0.064866,-0.024918,-0.044949,-0.064866,0.447624,-0.220783,-1.338648,-8.016541,1.906391,-10.957462
1790541841.8012,-0.019990,-0.052601,-0.072169,-0.021468,-0.050306,-0.072169,0.412414,0.187169,-0.770430,-1.807408,1.237151,-7.813756
1790541841.8156,-0.018292,-0.064377,-0.075675,-0.019245,-0.060155,-0.075675,0.918712,0.167743,-0.579809,-2.458983,2.129471,-9.366203
1790541841.8296,0.001164,-0.076625,-0.082758,-0.004958,-0.071684,-0.082758,0.990346,-1.026973,-0.928268,-3.532167,2.464091,-10.064805
1790541841.8432,0.009120,-0.086266,-0.090219,0.004896,-0.081891,-0.090219,0.828865,-0.507320,-1.039969,-0.044320,2.129471,-8.512357
1790541841.8570,0.017488,-0.089775,-0.096564,0.013710,-0.087410,-0.096564,0.441554,-0.611736,-1.021757,0.453943,2.203831,-6.494175
1790541841.8710,0.027658,-0.094546,-0.105715,0.023473,-0.092405,-0.105715,0.422127,-0.685799,-1.031470,0.032335,1.683311,-7.658511
1790541841.8849,0.020482,-0.099355,-0.116785,0.021379,-0.097270,-0.116785,0.272788,0.480991,-0.687868,1.182175,0.419191,-17.167252
1790541841.8988,0.001533,-0.091632,-0.126381,0.007487,-0.093323,-0.126381,-0.524903,1.424380,-0.689082,-0.465928,3.058971,-21.281238
1790541841.9127,-0.002983,-0.073318,-0.159811,0.000158,-0.079319,-0.159811,-1.418512,0.738390,-0.585880,-6.100142,-0.026969,-13.092077
1790541841.9265,0.002369,-0.063368,-0.202419,0.001705,-0.068153,-0.202419,-1.117405,-0.038661,-0.632017,-2.497311,-2.406488,-6.338930
1790541841.9405,-0.020437,-0.040302,-0.191771,-0.013794,-0.048657,-0.191771,-1.485290,1.270184,-0.587094,1.948735,1.125611,-2.923546
1790541841.9544,-0.030140,-0.021694,-0.194919,-0.025236,-0.029783,-0.194919,-1.175684,0.933866,-0.615019,-0.542584,1.125611,-3.272846
1790541841.9683,-0.012366,-0.029032,-0.207441,-0.016227,-0.029257,-0.207441,0.390560,-1.254018,-0.543385,0.952207,-0.287229,-18.331588
1790541841.9825,-0.023525,-0.037975,-0.195760,-0.021336,-0.035360,-0.195760,0.730520,0.478563,0.548129,3.251886,2.724351,-10.142427
1790541841.9966,-0.023324,-0.041657,-0.181483,-0.022728,-0.039768,-0.181483,0.354136,0.065755,0.917228,-2.343999,2.426911,-9.210958
1790541842.0104,-0.017806,-0.051793,-0.181417,-0.019283,-0.048185,-0.181417,0.531400,-0.350696,0.878375,-1.385800,-0.770569,-6.921098
1790541842.0244,-0.021609,-0.060011,-0.177323,-0.020911,-0.056463,-0.177323,0.525330,0.216309,0.569983,-0.082648,0.456371,-10.608161
1790541842.0387,-0.043675,-0.071230,-0.170680,-0.036846,-0.066800,-0.170680,0.720806,1.276255,0.799456,3.366870,0.419191,-12.354665
1790541842.0533,-0.056254,-0.079437,-0.149697,-0.050431,-0.075646,-0.149697,0.703808,0.863446,0.858949,-0.542584,2.612811,-8.279490
1790541842.0670,-0.073626,-0.083837,-0.130780,-0.066668,-0.081380,-0.130780,0.391774,1.122059,1.033786,1.258831,2.352551,-10.025993
1790541842.0808,-0.082448,-0.087980,-0.114681,-0.077714,-0.086000,-0.114681,0.311641,0.590264,1.033786,0.223975,1.980751,-11.345574
1790541842.0946,-0.079333,-0.088120,-0.101170,-0.078847,-0.087484,-0.101170,0.032388,-0.181930,0.880804,-0.810880,1.757671,-9.288581
1790541842.1085,-0.071960,-0.087065,-0.087216,-0.074026,-0.087191,-0.087216,-0.048960,-0.546173,0.777602,-0.159304,2.017931,-10.996273
1790541842.1225,-0.062682,-0.086376,-0.080263,-0.066085,-0.086621,-0.080263,-0.147305,-0.752577,0.631904,1.067191,0.121751,-12.160609
1790541842.1365,-0.056187,-0.081059,-0.069390,-0.059157,-0.082728,-0.069390,-0.511548,-0.792644,0.719323,3.826806,-0.398769,-9.715504
1790541842.1504,-0.050923,-0.074695,-0.061223,-0.053393,-0.077105,-0.061223,-0.641461,-0.711296,0.705967,3.366870,-0.993649,-8.551168
1790541842.1644,-0.037637,-0.064542,-0.051966,-0.042364,-0.068311,-0.051966,-0.800514,-1.164171,0.537201,1.373815,0.196111,-6.106063
1790541842.1784,-0.032299,-0.051224,-0.044542,-0.035319,-0.056350,-0.044542,-1.021487,-0.689441,0.450997,2.983590,0.344831,-8.318301
1790541842.1923,-0.022790,-0.036117,-0.039380,-0.026549,-0.042187,-0.039380,-1.131974,-0.867920,0.240951,2.370342,1.088431,-12.238231
1790541842.2063,-0.025467,-0.028882,-0.038493,-0.025792,-0.032874,-0.038493,-0.649960,-0.008308,-0.044373,4.555037,-0.621849,-15.808861
1790541842.2204,-0.036273,-0.033667,-0.049400,-0.033128,-0.033429,-0.049400,0.366277,1.033426,-0.691510,-2.535639,2.166651,-13.751868
1790541842.2342,-0.030364,-0.041268,-0.066477,-0.031193,-0.038916,-0.066477,0.610319,0.018403,-1.229375,-4.605350,2.315371,-12.277042
1790541842.2482,-0.033466,-0.043664,-0.085199,-0.032784,-0.042240,-0.085199,0.425770,0.075468,-0.931911,2.830278,3.282051,-6.338930
1790541842.2622,-0.029619,-0.053111,-0.092523,-0.030569,-0.049850,-0.092523,0.711093,-0.188001,-0.483892,-0.197632,1.311511,-8.279490
1790541842.2760,-0.011084,-0.070258,-0.105960,-0.016929,-0.064135,-0.105960,1.189465,-0.974765,-0.901557,-4.873646,0.419191,-12.898021
1790541842.2901,-0.000603,-0.082645,-0.119618,-0.005501,-0.077092,-0.119618,1.065623,-0.671229,-1.082464,0.185647,3.058971,-8.240679
1790541842.3042,0.006624,-0.088683,-0.132959,0.002987,-0.085205,-0.132959,0.571467,-0.514605,-1.173525,0.952207,2.464091,-7.542077
1790541842.3179,0.014066,-0.093157,-0.146079,0.010742,-0.090772,-0.146079,0.436697,-0.521890,-1.084892,0.262303,1.274331,-4.786483
1790541842.3319,0.023751,-0.102606,-0.156857,0.019848,-0.099056,-0.156857,0.758445,-0.682157,-0.902771,0.338959,1.943571,-8.357112
1790541842.3457,0.000300,-0.104638,-0.160867,0.006165,-0.102964,-0.160867,-0.017392,1.627142,-0.838422,2.945262,-2.071868,-18.215154
1790541842.3597,-0.006945,-0.088929,-0.179550,-0.003012,-0.093139,-0.179550,-1.165970,0.728676,-0.821424,-2.995575,0.642271,-14.683336
1790541842.3736,-0.003760,-0.076010,-0.197783,-0.003535,-0.081149,-0.197783,-1.219393,0.080325,-0.657514,-3.493839,-3.001368,-9.094525
1790541842.3875,-0.006017,-0.061783,-0.212679,-0.005272,-0.067593,-0.212679,-1.344449,0.478563,-0.757074,-2.305671,-2.332128,-6.338930
1790541842.4015,-0.025620,-0.040728,-0.223035,-0.019516,-0.048787,-0.223035,-1.559352,1.180337,-0.666013,1.450471,0.158931,-3.001168
1790541842.4153,-0.038961,-0.023895,-0.233627,-0.033128,-0.031363,-0.233627,-1.369946,1.179123,-0.758288,-0.657568,-0.510309,-6.106063
1790541842.4293,-0.035851,-0.030927,-0.240378,-0.035034,-0.031057,-0.240378,0.541113,0.001405,-0.691510,-1.270816,1.460231,-8.318301
1790541842.4431,-0.036248,-0.045011,-0.237986,-0.035884,-0.040825,-0.237986,1.138471,0.020832,0.052759,0.262303,3.616671,-11.811308
1790541842.4569,-0.037220,-0.041121,-0.226317,-0.036819,-0.041032,-0.226317,-0.025891,0.125248,0.539630,-1.002520,3.244871,-5.795574
1790541842.4708,-0.028090,-0.047805,-0.216878,-0.030708,-0.045773,-0.216878,0.488905,-0.621450,0.697468,-1.692424,1.608951,-9.948371
1790541842.4847,-0.029457,-0.057250,-0.206877,-0.029832,-0.053807,-0.206877,0.732948,0.065755,0.646474,-0.389272,1.571771,-7.736133
1790541842.4985,-0.049845,-0.066203,-0.195187,-0.043841,-0.062484,-0.195187,0.668598,1.175481,0.657401,4.018446,1.608951,-10.414105
1790541842.5124,-0.065161,-0.074296,-0.186449,-0.058765,-0.070753,-0.186449,0.592107,1.038283,0.710824,0.453943,1.683311,-11.151518
1790541842.5259,-0.080032,-0.079448,-0.178068,-0.073652,-0.076839,-0.178068,0.471907,1.136628,0.849236,-0.772552,2.464091,-8.745224
1790541842.5397,-0.088304,-0.079864,-0.167950,-0.083909,-0.078956,-0.167950,0.083382,0.620618,0.909943,-0.734224,2.538451,-9.909560
1790541842.5542,-0.088563,-0.081731,-0.157202,-0.087166,-0.080899,-0.157202,0.104022,0.005048,0.877161,-0.312616,1.646131,-10.802217
1790541842.5682,-0.076770,-0.083329,-0.152164,-0.079889,-0.082600,-0.152164,-0.041675,-0.858207,0.747248,-0.274288,-0.621849,-12.665154
1790541842.5820,-0.071872,-0.078368,-0.136413,-0.074277,-0.079638,-0.136413,-0.393776,-0.542530,0.736321,2.600310,1.274331,-11.617252
1790541842.5959,-0.063165,-0.072617,-0.120960,-0.066499,-0.074723,-0.120960,-0.569827,-0.870349,0.860163,2.945262,-0.621849,-10.879840
1790541842.6099,-0.059656,-0.066291,-0.105623,-0.061709,-0.068821,-0.105623,-0.614750,-0.585025,0.765460,3.558510,-0.733389,-8.240679
1790541842.6237,-0.052872,-0.056158,-0.094999,-0.055523,-0.059957,-0.094999,-0.866077,-0.753791,0.505634,2.178703,-0.324409,-6.416553
1790541842.6377,-0.048059,-0.046921,-0.087593,-0.050298,-0.050832,-0.087593,-0.790800,-0.553458,0.315013,2.063719,-0.324409,-7.464455
1790541842.6516,-0.040094,-0.037079,-0.083722,-0.043156,-0.041205,-0.083722,-0.748306,-0.657874,0.120751,1.182175,0.828171,-9.909560
1790541842.6657,-0.038530,-0.027652,-0.085135,-0.039918,-0.031718,-0.085135,-0.702168,-0.203785,-0.151217,2.446998,1.274331,-13.014455
1790541842.6796,-0.046702,-0.032632,-0.093061,-0.044667,-0.032358,-0.093061,0.289786,0.692252,-0.729149,0.722239,0.233291,-17.128441
1790541842.6936,-0.041516,-0.040935,-0.112184,-0.042461,-0.038362,-0.112184,0.620033,0.058470,-1.211163,-2.688951,0.828171,-6.998721
1790541842.7075,-0.047856,-0.034764,-0.211696,-0.046237,-0.035844,-0.211696,0.258218,0.426355,-0.794712,1.220503,4.917971,1.578552
1790541842.7214,-0.054148,-0.037343,-0.176871,-0.051775,-0.036893,-0.176871,0.301927,0.212666,-0.500890,2.868606,1.757671,-5.213406
1790541842.7354,-0.040118,-0.052037,-0.189755,-0.043615,-0.047494,-0.189755,1.038912,-0.716153,-0.784999,-3.762135,0.976891,-14.217602
1790541842.7493,-0.028042,-0.062390,-0.206155,-0.032714,-0.057921,-0.206155,0.902928,-0.717367,-0.907628,-0.542584,2.984611,-8.939280
1790541842.7629,-0.021252,-0.063812,-0.219328,-0.024690,-0.062045,-0.219328,0.335923,-0.377407,-0.939195,-0.197632,3.430771,-7.386832
1790541842.7764,-0.013867,-0.066867,-0.227766,-0.017114,-0.065421,-0.227766,0.304356,-0.501249,-0.814139,0.415615,1.683311,-7.580888
1790541842.7905,-0.003576,-0.076941,-0.240934,-0.007637,-0.073485,-0.240934,0.666170,-0.599595,-0.894272,-0.734224,0.307651,-9.715504
1790541842.8053,-0.004583,-0.088485,-0.249897,-0.005499,-0.083985,-0.249897,0.753588,0.116749,-0.764359,0.377287,1.051251,-17.827042
1790541842.8194,-0.021913,-0.078694,-0.266606,-0.016989,-0.080281,-0.266606,-0.736164,1.426808,-0.606520,-3.378855,0.530731,-16.856763
1790541842.8335,-0.019877,-0.066135,-0.276592,-0.019011,-0.070379,-0.276592,-1.019059,0.151959,-0.572524,-4.911974,-1.328269,-13.169700
1790541842.8476,-0.027491,-0.051153,-0.278191,-0.024947,-0.056921,-0.278191,-1.314096,0.766315,-0.538528,-1.500784,-1.774428,-6.222497
1790541842.8614,-0.035660,-0.032941,-0.287574,-0.032446,-0.040135,-0.287574,-1.397872,0.699537,-0.492391,-0.235960,0.047391,-6.610609
1790541842.8755,-0.043122,-0.019037,-0.281286,-0.039919,-0.025367,-0.281286,-1.281314,0.823380,-0.383118,-2.305671,-2.406488,-6.338930
1790541842.8896,-0.039657,-0.026390,-0.286974,-0.039735,-0.026083,-0.286974,0.316497,-0.155219,-0.227708,-1.194160,-3.150088,-17.904665
1790541842.9034,-0.035151,-0.035682,-0.284211,-0.036526,-0.032802,-0.284211,0.567825,-0.314272,0.290731,-0.810880,-0.064149,-12.354665
1790541842.9172,-0.035208,-0.034634,-0.258257,-0.035603,-0.034084,-0.258257,0.133162,-0.066587,0.746034,-0.235960,3.542311,-6.998721
1790541842.9312,-0.020657,-0.039461,-0.246820,-0.025141,-0.037848,-0.246820,0.306784,-1.033044,0.737535,-1.615768,0.865351,-9.172147
1790541842.9450,-0.027395,-0.050526,-0.237108,-0.026719,-0.046722,-0.237108,0.757231,0.222379,0.758175,2.446998,0.605091,-9.055714
1790541842.9589,-0.042194,-0.057253,-0.227973,-0.037551,-0.054094,-0.227973,0.494976,0.873159,0.664686,1.757095,1.274331,-8.473546
1790541842.9730,-0.057181,-0.062999,-0.216884,-0.051292,-0.060328,-0.216884,0.456123,0.969077,0.731464,0.645583,2.092291,-9.521448
1790541842.9866,-0.070429,-0.064391,-0.205368,-0.064688,-0.063172,-0.205368,0.130733,0.930224,0.826167,-0.082648,1.943571,-9.482637
1790541843.0003,-0.074494,-0.065614,-0.191856,-0.071552,-0.064881,-0.191856,0.127091,0.253947,0.849236,-0.120976,2.241011,-9.482637
1790541843.0143,-0.078700,-0.067714,-0.179289,-0.076556,-0.066864,-0.179289,0.141661,0.173814,0.766674,1.105519,1.348691,-8.279490
1790541843.0283,-0.078620,-0.069887,-0.167652,-0.078001,-0.068980,-0.167652,0.158659,-0.073871,0.730250,0.415615,1.534591,-8.473546
1790541843.0426,-0.076787,-0.069446,-0.155097,-0.077151,-0.069306,-0.155097,0.009319,-0.175859,0.722965,0.147319,2.278191,-9.405014
1790541843.0574,-0.068254,-0.072374,-0.144332,-0.070923,-0.071454,-0.144332,0.130733,-0.651803,0.722965,0.645583,0.902531,-13.635434
1790541843.0714,-0.051280,-0.062248,-0.126309,-0.057173,-0.065010,-0.126309,-0.670600,-1.411856,0.665900,2.753622,2.910251,-11.694875
1790541843.0854,-0.039237,-0.052711,-0.113487,-0.044618,-0.056401,-0.113487,-0.781087,-1.103464,0.534773,2.638638,-0.064149,-8.939280
1790541843.0994,-0.034005,-0.039281,-0.104435,-0.037189,-0.044417,-0.104435,-1.031201,-0.752577,0.262805,3.520182,0.121751,-5.640329
1790541843.1133,-0.019203,-0.027151,-0.098689,-0.024599,-0.032330,-0.098689,-0.847865,-1.243090,0.115894,1.335487,1.088431,-5.601518
1790541843.1271,-0.027885,-0.032031,-0.097759,-0.026899,-0.032121,-0.097759,0.309212,0.578123,-0.033445,1.373815,1.051251,-13.596623
1790541843.1410,-0.029580,-0.038400,-0.120782,-0.028776,-0.036516,-0.120782,0.609105,0.386288,-0.770430,-2.803935,4.323091,-11.966553
1790541843.1548,-0.018404,-0.044529,-0.145826,-0.021516,-0.042125,-0.145826,0.524115,-0.474538,-1.284012,-3.110559,2.873071,-11.772497
1790541843.1686,-0.025319,-0.053112,-0.157026,-0.024178,-0.049816,-0.157026,0.663742,0.487062,-1.257301,2.370342,1.534591,-8.318301
1790541843.1827,-0.019249,-0.061344,-0.172906,-0.020728,-0.057886,-0.172906,0.623675,-0.253564,-0.855420,-0.734224,1.014071,-6.106063
1790541843.1966,-0.002019,-0.076262,-0.193434,-0.007632,-0.070749,-0.193434,1.029199,-0.960195,-1.042397,-2.918919,0.382011,-10.220049
1790541843.2106,0.013407,-0.090423,-0.210003,0.007095,-0.084521,-0.210003,1.089906,-0.966266,-1.211163,-0.619240,1.794851,-7.425644
1790541843.2241,0.025333,-0.096069,-0.220859,0.019862,-0.092604,-0.220859,0.577538,-0.852137,-1.327721,0.492271,2.798711,-6.804665
1790541843.2377,0.018209,-0.104485,-0.232188,0.018705,-0.100921,-0.232188,0.651600,0.522272,-1.240303,1.335487,2.501271,-12.626343
1790541843.2517,0.001224,-0.098837,-0.253079,0.006468,-0.099462,-0.253079,-0.443556,1.352746,-1.173525,-1.309144,1.014071,-15.304315
1790541843.2655,-0.005591,-0.091826,-0.283434,-0.001973,-0.094117,-0.283434,-0.665744,0.772386,-1.243945,-3.762135,-1.885968,-13.092077
1790541843.2794,-0.009092,-0.087334,-0.308753,-0.006956,-0.089369,-0.308753,-0.607465,0.541699,-1.120103,-3.110559,-3.633428,-9.249770
1790541843.2933,-0.015608,-0.071471,-0.325784,-0.013012,-0.076840,-0.325784,-1.119833,0.820951,-1.007187,-2.114032,0.716631,-4.941727
1790541843.3076,-0.013851,-0.055669,-0.344732,-0.013600,-0.062020,-0.344732,-1.275243,0.250304,-0.812925,-3.378855,-1.253909,-6.649420
1790541843.3216,-0.022519,-0.036907,-0.360430,-0.019843,-0.044441,-0.360430,-1.367518,0.818523,-0.843278,-1.002520,0.790991,-8.085434
1790541843.3356,-0.026850,-0.026861,-0.380869,-0.024748,-0.032135,-0.380869,-0.869720,0.632759,-0.900343,-3.378855,-1.253909,-11.462007
1790541843.3494,-0.023784,-0.019609,-0.393488,-0.024073,-0.023367,-0.393488,-0.628105,0.012333,-0.583452,-2.497311,-0.175689,-11.229140
1790541843.3634,-0.014422,-0.026966,-0.400017,-0.017318,-0.025886,-0.400017,0.385703,-0.661516,0.148676,-0.849208,-0.807749,-12.509909
1790541843.3774,-0.012102,-0.037564,-0.395168,-0.013667,-0.034061,-0.395168,0.717164,-0.313057,0.567555,1.028863,0.865351,-10.569350
1790541843.3914,-0.009587,-0.050814,-0.377693,-0.010811,-0.045788,-0.377693,1.017057,-0.353124,0.696254,0.990535,1.794851,-8.007811
1790541843.4054,-0.012854,-0.054576,-0.353741,-0.012241,-0.051940,-0.353741,0.424556,0.284300,0.288302,-1.155832,2.910251,-8.085434
1790541843.4194,-0.025617,-0.063879,-0.351999,-0.021604,-0.060297,-0.351999,0.649172,0.807596,0.271304,1.757095,1.125611,-12.975644
1790541843.4332,-0.045155,-0.077036,-0.348015,-0.038090,-0.072014,-0.348015,0.928425,1.293253,0.475280,1.718767,0.865351,-11.656063
1790541843.4469,-0.066661,-0.080426,-0.324032,-0.058090,-0.077902,-0.324032,0.395416,1.430451,0.647688,1.642111,2.835891,-7.969000
1790541843.4604,-0.074533,-0.086277,-0.311809,-0.069600,-0.083765,-0.311809,0.458552,0.638830,0.676828,-1.117504,1.608951,-8.822846
1790541843.4743,-0.079565,-0.091875,-0.301431,-0.076576,-0.089442,-0.301431,0.397845,0.337723,0.631904,0.185647,1.162791,-8.978091
1790541843.4882,-0.083543,-0.098496,-0.295112,-0.081453,-0.095780,-0.295112,0.446410,0.256375,0.489850,0.722239,0.976891,-12.898021
1790541843.5020,-0.068305,-0.101017,-0.280508,-0.072249,-0.099446,-0.280508,0.180513,-1.188454,0.654973,1.642111,2.055111,-14.877392
1790541843.5158,-0.057080,-0.090274,-0.268020,-0.061631,-0.093026,-0.268020,-0.809013,-0.994191,0.584553,2.906934,0.976891,-11.656063
1790541843.5297,-0.047498,-0.082215,-0.261322,-0.051738,-0.085458,-0.261322,-0.745877,-0.990549,0.701111,3.941790,-1.328269,-8.939280
1790541843.5438,-0.037805,-0.071401,-0.252702,-0.041985,-0.075618,-0.252702,-0.914643,-1.084038,0.510490,4.631693,-1.068009,-6.727042
1790541843.5584,-0.033326,-0.053907,-0.246373,-0.035924,-0.060421,-0.246373,-1.263102,-0.609308,0.307729,2.983590,0.158931,-5.989630
1790541843.5724,-0.024721,-0.036780,-0.242926,-0.028082,-0.043872,-0.242926,-1.288599,-0.776860,0.135320,1.872079,0.233291,-7.891378
1790541843.5865,-0.011641,-0.022118,-0.240086,-0.016573,-0.028644,-0.240086,-1.093122,-1.155672,0.051545,3.021918,0.567911,-8.745224
1790541843.6004,-0.025447,-0.022251,-0.244219,-0.022785,-0.024169,-0.244219,-0.022249,0.871945,-0.142718,3.481854,1.348691,-13.480189
1790541843.6144,-0.034978,-0.027851,-0.257403,-0.031320,-0.026747,-0.257403,0.462194,0.973933,-0.812925,-3.685479,3.356411,-14.683336
1790541843.6286,-0.030737,-0.041457,-0.275081,-0.030912,-0.037044,-0.275081,1.156683,0.125248,-1.082464,-2.995575,2.835891,-5.679140
1790541843.6426,-0.040690,-0.045452,-0.277229,-0.037757,-0.042929,-0.277229,0.558111,0.468850,-0.434112,3.136902,3.244871,-4.398371
1790541843.6568,-0.039715,-0.059357,-0.288822,-0.039128,-0.054429,-0.288822,0.976990,0.177456,-0.397688,-3.493839,1.014071,-11.423196
1790541843.6707,-0.019707,-0.074892,-0.302758,-0.025533,-0.068753,-0.302758,1.197964,-1.153244,-0.713365,-4.222071,2.501271,-11.384385
1790541843.6842,-0.009477,-0.084324,-0.310623,-0.014294,-0.079653,-0.310623,0.797297,-0.701583,-0.782571,0.185647,2.278191,-8.939280
1790541843.6978,-0.001637,-0.086493,-0.317335,-0.005434,-0.084441,-0.317335,0.281287,-0.552243,-0.775286,0.377287,2.278191,-7.658511
1790541843.7118,0.010732,-0.092936,-0.325011,0.005882,-0.090388,-0.325011,0.423342,-0.859421,-0.749789,0.223975,0.344831,-7.736133
1790541843.7256,-0.003527,-0.092666,-0.326345,-0.000704,-0.091983,-0.326345,0.144089,0.952079,-0.534886,1.488799,2.835891,-7.348021
1790541843.7394,-0.027117,-0.081654,-0.336973,-0.019193,-0.084753,-0.336973,-0.811441,1.798336,-0.424399,-0.964192,1.199971,-16.623896
1790541843.7534,-0.030279,-0.060998,-0.358338,-0.026953,-0.068125,-0.358338,-1.565423,0.516202,-0.452324,-5.141942,-0.733389,-13.092077
1790541843.7672,-0.029834,-0.046103,-0.372875,-0.028970,-0.052710,-0.372875,-1.260673,0.502846,-0.468108,-4.375383,-1.253909,-3.816203
1790541843.7810,-0.052871,-0.025381,-0.346444,-0.045700,-0.033580,-0.346444,-1.338379,1.383099,-0.312698,1.795423,1.125611,-2.457811
1790541843.7950,-0.067084,-0.012488,-0.367845,-0.060669,-0.018816,-0.367845,-0.869720,1.312679,-0.532458,-1.999048,1.460231,-7.231588
1790541843.8098,-0.044580,-0.024165,-0.379034,-0.049406,-0.022560,-0.379034,0.739019,-1.394858,-0.653872,-0.580912,0.679451,-16.662707
1790541843.8239,-0.041420,-0.026630,-0.356267,-0.043816,-0.025409,-0.356267,0.402701,-0.398047,0.395147,2.102047,5.550031,-9.094525
1790541843.8397,-0.033721,-0.032443,-0.350273,-0.036749,-0.030333,-0.350273,0.356564,-0.501249,0.835880,-2.037376,1.832031,-11.112707
1790541843.8544,-0.030127,-0.042967,-0.330921,-0.032114,-0.039177,-0.330921,0.675883,-0.464825,1.016788,1.412143,0.865351,-10.025993
1790541843.8687,-0.032872,-0.052736,-0.316634,-0.032645,-0.048668,-0.316634,0.734162,0.070611,0.764246,0.530599,2.092291,-9.210958
1790541843.8833,-0.049736,-0.061816,-0.302107,-0.044609,-0.057871,-0.302107,0.610319,1.027355,1.038642,0.645583,1.571771,-11.850119
1790541843.8976,-0.060559,-0.070888,-0.292293,-0.055774,-0.066983,-0.292293,0.633388,0.722606,1.096921,-0.695896,1.423051,-8.357112
1790541843.9112,-0.076561,-0.074361,-0.275506,-0.070325,-0.072148,-0.275506,0.299499,1.069850,1.186767,0.300631,1.832031,-6.959909
1790541843.9249,-0.081483,-0.077068,-0.277379,-0.078135,-0.075592,-0.277379,0.093095,0.436068,1.066567,-2.267343,0.456371,-10.879840
1790541843.9390,-0.084854,-0.079828,-0.265858,-0.082839,-0.078557,-0.265858,0.070026,0.158030,1.130917,0.300631,0.158931,-10.763406
1790541843.9529,-0.075202,-0.075965,-0.254932,-0.077493,-0.076743,-0.254932,-0.279647,-0.687013,0.964579,-1.117504,2.203831,-10.685784
1790541843.9669,-0.068682,-0.070628,-0.237926,-0.071325,-0.072462,-0.237926,-0.513976,-0.649375,0.940297,2.485326,-0.324409,-13.092077
1790541843.9810,-0.062474,-0.064103,-0.219673,-0.065129,-0.066611,-0.219673,-0.602608,-0.665159,0.799456,2.676966,-0.547489,-10.025993
1790541843.9950,-0.054086,-0.055521,-0.198641,-0.057399,-0.058848,-0.198641,-0.758019,-0.894631,0.687755,2.753622,-0.547489,-6.959909
1790541844.0090,-0.042562,-0.042159,-0.184684,-0.047013,-0.047166,-0.184684,-0.999633,-1.023331,0.441284,1.757095,0.642271,-7.115154
1790541844.0230,-0.034131,-0.028939,-0.173889,-0.037995,-0.034407,-0.173889,-0.957138,-0.799928,0.197242,2.523654,1.199971,-8.745224
1790541844.0368,-0.025881,-0.017880,-0.169288,-0.029515,-0.022838,-0.169288,-0.851508,-0.711296,-0.135433,3.175230,1.014071,-14.605714
1790541844.0511,-0.030576,-0.020882,-0.175264,-0.030258,-0.021469,-0.175264,0.182941,0.362006,-0.551884,1.680439,1.571771,-15.886483
1790541844.0657,-0.034578,-0.026595,-0.200123,-0.033282,-0.025057,-0.200123,0.450053,0.550198,-1.304652,-1.194160,2.352551,-11.229140
1790541844.0798,-0.021682,-0.035052,-0.239163,-0.025162,-0.032054,-0.239163,0.786370,-0.495179,-1.451563,-2.727279,3.133331,-6.843476
1790541844.0938,-0.029139,-0.047861,-0.237502,-0.027946,-0.043119,-0.237502,1.027984,0.404501,-0.801997,2.293686,1.683311,-5.213406
1790541844.1077,-0.026901,-0.060901,-0.246730,-0.027214,-0.055566,-0.246730,0.917497,-0.088441,-0.818995,0.377287,0.493551,-7.580888
1790541844.1215,-0.006842,-0.072006,-0.265611,-0.012954,-0.067074,-0.265611,0.839792,-1.254018,-0.996260,-1.730752,1.757671,-10.841028
1790541844.1350,0.001915,-0.083087,-0.281626,-0.002545,-0.078283,-0.281626,0.845863,-0.547387,-1.335006,0.185647,1.385871,-8.628791
1790541844.1487,0.014953,-0.085246,-0.307407,0.009704,-0.083157,-0.307407,0.332281,-0.752577,-1.235446,-1.270816,2.947431,-6.649420
1790541844.1621,0.021912,-0.092571,-0.314214,0.018249,-0.089747,-0.314214,0.475550,-0.517033,-1.072751,0.798895,0.270471,-8.007811
1790541844.1762,0.014285,-0.102053,-0.328123,0.015474,-0.098361,-0.328123,0.513188,0.601192,-1.110389,0.262303,-1.811608,-14.178791
1790541844.1900,0.001493,-0.093630,-0.342903,0.005687,-0.095050,-0.342903,-0.603823,1.018856,-0.849349,-1.002520,2.129471,-17.089630
1790541844.2039,0.000437,-0.080787,-0.372020,0.002012,-0.085066,-0.372020,-1.114976,0.366862,-0.815353,-4.260399,-2.294948,-11.112707
1790541844.2178,-0.002519,-0.065809,-0.396289,-0.001160,-0.071586,-0.396289,-1.318952,0.582979,-0.724292,-3.417183,-2.034688,-5.912007
1790541844.2316,-0.010270,-0.048695,-0.412265,-0.007537,-0.055562,-0.412265,-1.451294,0.729891,-0.651444,-0.887536,-1.291089,-5.950818
1790541844.2454,-0.016688,-0.035573,-0.424520,-0.013943,-0.041570,-0.424520,-1.142902,0.723820,-0.589522,-1.884064,-1.179549,-6.455364
1790541844.2593,-0.030599,-0.019551,-0.424791,-0.025602,-0.026156,-0.424791,-1.015417,1.137842,-0.582238,-0.504256,3.356411,-8.900469
1790541844.2732,-0.020612,-0.022603,-0.434499,-0.022109,-0.023669,-0.434499,0.067598,-0.434472,-0.429256,-5.985158,-1.811608,-15.459560
1790541844.2870,-0.015857,-0.022136,-0.420334,-0.017733,-0.022596,-0.420334,0.048172,-0.476967,0.403646,1.412143,3.616671,-12.548721
1790541844.3008,-0.014990,-0.025958,-0.408019,-0.015813,-0.024949,-0.408019,0.248505,-0.296059,0.894159,1.373815,0.902531,-8.900469
1790541844.3153,-0.006628,-0.036252,-0.400118,-0.009383,-0.032861,-0.400118,0.616390,-0.529175,0.772745,-1.577440,-0.175689,-5.252217
1790541844.3293,-0.018246,-0.044752,-0.375069,-0.015587,-0.041185,-0.375069,0.641887,0.389931,0.576054,5.628221,1.423051,-7.503266
1790541844.3433,-0.032677,-0.057767,-0.368148,-0.027550,-0.052793,-0.368148,0.900499,0.879230,0.687755,1.565455,0.716631,-10.569350
1790541844.3574,-0.049851,-0.071276,-0.353697,-0.043160,-0.065731,-0.353697,0.953922,1.086848,1.076281,0.453943,1.088431,-7.658511
1790541844.3711,-0.066258,-0.075257,-0.335738,-0.059329,-0.072399,-0.335738,0.344422,1.183980,1.152771,-1.117504,2.612811,-10.025993
1790541844.3847,-0.073542,-0.077733,-0.320528,-0.069278,-0.076133,-0.320528,0.144089,0.524701,1.180697,-0.964192,1.237151,-9.210958
1790541844.3986,-0.078112,-0.081724,-0.306017,-0.075462,-0.080047,-0.306017,0.240006,0.277016,1.066567,-0.120976,0.976891,-8.357112
1790541844.4125,-0.083167,-0.084619,-0.288066,-0.080856,-0.083247,-0.288066,0.230293,0.253947,0.959723,0.952207,2.017931,-8.978091
1790541844.4265,-0.070765,-0.091701,-0.278530,-0.073792,-0.089165,-0.278530,0.384489,-0.893417,0.971864,-1.002520,-0.101329,-13.014455
1790541844.4403,-0.068040,-0.083684,-0.260732,-0.069766,-0.085328,-0.260732,-0.579540,-0.469682,0.780030,5.206613,2.055111,-12.703965
1790541844.4542,-0.058628,-0.071991,-0.252968,-0.061969,-0.075992,-0.252968,-1.016631,-0.983264,0.658616,4.938317,-1.588528,-10.530539
1790541844.4681,-0.052640,-0.056132,-0.243884,-0.055439,-0.062090,-0.243884,-1.282528,-0.827854,0.607622,5.513237,-0.844929,-8.279490
1790541844.4824,-0.038965,-0.037176,-0.237202,-0.043907,-0.044650,-0.237202,-1.411227,-1.179955,0.302872,2.178703,0.047391,-6.571797
1790541844.4965,-0.025667,-0.019641,-0.233080,-0.031139,-0.027144,-0.233080,-1.286170,-1.217593,0.180244,2.945262,0.567911,-6.765853
1790541844.5104,-0.014439,-0.005414,-0.232378,-0.019449,-0.011933,-0.232378,-1.002061,-1.067040,0.079470,2.983590,1.534591,-7.270399
1790541844.5243,-0.028731,-0.011854,-0.240565,-0.025946,-0.011877,-0.240565,0.471907,0.998216,-0.383118,3.366870,2.947431,-17.167252
1790541844.5381,-0.019628,-0.022335,-0.258679,-0.021524,-0.019198,-0.258679,0.805796,-0.215926,-1.290082,-6.253454,3.207691,-14.566903
1790541844.5523,-0.015569,-0.027435,-0.283010,-0.017355,-0.024964,-0.283010,0.562968,0.046329,-1.175953,-2.382327,4.211551,-7.774944
1790541844.5666,-0.022602,-0.037372,-0.296820,-0.021028,-0.033650,-0.296820,0.753588,0.717749,-0.672084,-1.424128,1.608951,-6.843476
1790541844.5807,-0.012907,-0.049017,-0.310278,-0.015343,-0.044407,-0.310278,0.810653,-0.407761,-0.911270,-2.650623,0.865351,-9.288581
1790541844.5944,-0.004243,-0.063468,-0.325627,-0.007573,-0.057749,-0.325627,1.088691,-0.395619,-1.072751,-2.343999,2.055111,-11.694875
1790541844.6082,0.006544,-0.070610,-0.337560,0.002309,-0.066752,-0.337560,0.671027,-0.671229,-1.205092,-0.005993,3.096151,-7.619700
1790541844.6220,0.017799,-0.073904,-0.347710,0.013152,-0.071759,-0.347710,0.320140,-0.775646,-1.111604,0.415615,1.534591,-5.329839
1790541844.6362,0.029939,-0.082953,-0.359578,0.024903,-0.079595,-0.359578,0.583608,-0.789001,-1.005973,-0.005993,0.493551,-7.580888
1790541844.6506,0.013375,-0.090217,-0.367112,0.016833,-0.087030,-0.367112,0.433055,1.130558,-0.707294,2.063719,0.344831,-18.719700
1790541844.6648,-0.011177,-0.076550,-0.380130,-0.002774,-0.079694,-0.380130,-0.920714,1.801978,-0.760716,0.300631,4.323091,-21.281238
1790541844.6786,-0.017569,-0.052949,-0.407859,-0.013130,-0.060973,-0.407859,-1.680767,0.961792,-0.789856,-6.253454,1.237151,-7.153965
1790541844.6926,-0.012263,-0.038780,-0.417441,-0.012523,-0.045438,-0.417441,-1.339593,0.113106,-0.880917,-3.340527,-2.443668,-3.466902
1790541844.7065,-0.029993,-0.022849,-0.436492,-0.024752,-0.029626,-0.436492,-1.367518,1.327249,-0.693939,0.568927,-1.030829,-4.670049
1790541844.7203,-0.036867,-0.008596,-0.454846,-0.033232,-0.014905,-0.454846,-1.206037,0.723820,-0.888201,-0.657568,-0.956469,-6.067252
1790541844.7342,-0.014759,-0.018521,-0.465479,-0.020301,-0.017436,-0.465479,0.465837,-1.386359,-0.822638,-2.229015,-4.042408,-14.450469
1790541844.7481,-0.024212,-0.033259,-0.435536,-0.023039,-0.028512,-0.435536,1.252601,0.255161,0.261591,7.276324,4.360271,-7.386832
1790541844.7619,-0.027909,-0.041528,-0.427747,-0.026448,-0.037623,-0.427747,0.620033,0.026902,0.710824,3.213558,2.315371,-12.626343
1790541844.7758,-0.022313,-0.048374,-0.414306,-0.023553,-0.045149,-0.414306,0.476764,-0.442971,0.823739,-1.002520,1.088431,-9.366203
1790541844.7897,-0.018587,-0.055551,-0.402766,-0.020077,-0.052430,-0.402766,0.503475,-0.257207,0.686541,-1.845736,1.162791,-11.656063
1790541844.8036,-0.038222,-0.063543,-0.395215,-0.032778,-0.060209,-0.395215,0.528972,1.183980,0.933012,2.638638,0.567911,-11.190329
1790541844.8179,-0.054612,-0.073176,-0.381001,-0.048062,-0.069286,-0.381001,0.673455,1.096562,0.987648,-0.427600,1.348691,-9.094525
1790541844.8316,-0.069649,-0.077869,-0.363587,-0.063173,-0.075294,-0.363587,0.452481,1.071065,0.984006,-0.389272,2.278191,-6.416553
1790541844.8454,-0.083028,-0.081424,-0.350716,-0.077071,-0.079585,-0.350716,0.207224,0.899871,1.011931,0.453943,1.088431,-10.957462
1790541844.8598,-0.083736,-0.084272,-0.336065,-0.081737,-0.082866,-0.336065,0.193869,0.097323,0.869876,-1.385800,1.683311,-9.055714
1790541844.8739,-0.075152,-0.082049,-0.319734,-0.077127,-0.082294,-0.319734,-0.146091,-0.701583,0.892945,0.798895,2.315371,-10.841028
1790541844.8877,-0.066072,-0.076638,-0.309032,-0.069389,-0.078335,-0.309032,-0.496978,-0.832710,0.848022,2.523654,0.084571,-12.587532
1790541844.9016,-0.056709,-0.071281,-0.302877,-0.060513,-0.073397,-0.302877,-0.580754,-0.880062,0.788529,2.868606,-1.885968,-11.539630
1790541844.9156,-0.047803,-0.065602,-0.295825,-0.051616,-0.067941,-0.295825,-0.588039,-0.859421,0.763032,2.561982,-1.476988,-9.793126
1790541844.9296,-0.037321,-0.052116,-0.289766,-0.041610,-0.056864,-0.289766,-1.009346,-0.983264,0.554199,1.642111,0.456371,-5.601518
1790541844.9434,-0.025270,-0.037647,-0.284700,-0.030172,-0.043412,-0.284700,-1.165970,-1.114391,0.398789,2.178703,-0.398769,-6.804665
1790541844.9573,-0.013812,-0.023069,-0.282826,-0.018720,-0.029172,-0.282826,-1.125904,-0.979621,0.128036,1.757095,0.158931,-8.318301
1790541844.9713,-0.019527,-0.018872,-0.284401,-0.019285,-0.021962,-0.284401,-0.452055,0.280658,-0.125720,4.363398,-1.700068,-16.662707
1790541844.9852,-0.029916,-0.024926,-0.298924,-0.026727,-0.024037,-0.298924,0.440340,0.834307,-0.791070,1.373815,2.538451,-17.167252
1790541844.9993,-0.019957,-0.027570,-0.310739,-0.021988,-0.026510,-0.310739,0.412414,-0.322771,-1.352004,-2.458983,3.765391,-6.532986
1790541845.0133,-0.020697,-0.030418,-0.327903,-0.021084,-0.029246,-0.327903,0.479192,0.130104,-0.821424,0.415615,3.282051,-4.708860
1790541845.0272,-0.024577,-0.046541,-0.334327,-0.023529,-0.041352,-0.334327,1.114188,0.375361,-0.549456,-0.120976,0.270471,-6.183686
1790541845.0412,-0.006139,-0.059078,-0.340878,-0.011356,-0.053760,-0.340878,0.900499,-0.983264,-0.982904,-3.723807,1.125611,-9.172147
1790541845.0551,0.005052,-0.072681,-0.356521,0.000130,-0.067005,-0.356521,0.910213,-0.713724,-1.208735,0.453943,0.270471,-10.452916
1790541845.0693,0.015123,-0.078746,-0.373984,0.010625,-0.075224,-0.373984,0.451267,-0.659088,-1.191737,0.683911,1.646131,-8.706413
1790541845.0835,0.027832,-0.085944,-0.384241,0.022670,-0.082728,-0.384241,0.366277,-0.892203,-0.937981,0.798895,-0.919289,-9.560259
1790541845.0976,0.036482,-0.096722,-0.397114,0.032338,-0.092524,-0.397114,0.794869,-0.667587,-0.737648,1.335487,1.794851,-9.715504
1790541845.1116,0.014320,-0.093285,-0.407507,0.019726,-0.093057,-0.407507,-0.334283,1.481445,-0.684226,3.596838,-0.175689,-15.149070
1790541845.1255,0.004117,-0.074890,-0.408217,0.008800,-0.080340,-0.408217,-1.456150,1.024927,-0.764359,-6.215126,-1.551348,-15.459560
1790541845.1394,0.002954,-0.061424,-0.410218,0.004708,-0.067099,-0.410218,-1.199966,0.364434,-0.795927,-3.647151,-2.778288,-10.181238
1790541845.1534,-0.003231,-0.045296,-0.418619,-0.000849,-0.051837,-0.418619,-1.416084,0.868303,-0.862704,-2.880591,-1.737248,-4.359560
1790541845.1672,-0.012635,-0.026399,-0.426205,-0.009100,-0.034031,-0.426205,-1.528999,0.925367,-0.651444,-1.385800,-0.659029,-5.679140
1790541845.1812,-0.024532,-0.009773,-0.425956,-0.019902,-0.017051,-0.425956,-1.237605,1.174267,-0.519102,-2.650623,0.530731,-6.998721
1790541845.1952,-0.014751,-0.013499,-0.426934,-0.016296,-0.014565,-0.426934,0.301927,-0.574098,-0.499676,-1.002520,2.649991,-12.082986
1790541845.2091,-0.010336,-0.022454,-0.418601,-0.012124,-0.020087,-0.418601,0.634602,-0.316700,0.333226,-1.079176,1.534591,-11.229140
1790541845.2232,-0.010751,-0.023518,-0.410174,-0.011163,-0.022488,-0.410174,0.204796,-0.181930,0.851664,1.028863,2.835891,-7.542077
1790541845.2372,-0.001953,-0.033315,-0.397475,-0.004716,-0.030067,-0.397475,0.770586,-0.804785,0.861377,0.223975,0.976891,-3.971448
1790541845.2510,-0.015501,-0.044460,-0.423558,-0.012266,-0.040142,-0.423558,0.843435,0.540484,0.763032,6.126485,1.906391,-9.560259
1790541845.2650,-0.027197,-0.056846,-0.419290,-0.022717,-0.051835,-0.419290,0.876217,0.678897,0.691397,1.412143,1.088431,-10.220049
1790541845.2790,-0.044688,-0.066910,-0.407695,-0.038097,-0.062388,-0.407695,0.775443,1.130558,0.969436,0.415615,1.832031,-7.774944
1790541845.2927,-0.058771,-0.068389,-0.389460,-0.052569,-0.066588,-0.389460,0.215723,0.998216,1.070210,-0.810880,3.207691,-9.133336
1790541845.3064,-0.062186,-0.067733,-0.371706,-0.059301,-0.067390,-0.371706,-0.014964,0.179884,1.128489,-0.274288,2.092291,-8.589979
1790541845.3210,-0.065766,-0.069879,-0.357342,-0.063827,-0.069133,-0.357342,0.101594,0.114321,1.042285,0.798895,1.014071,-9.133336
1790541845.3349,-0.070348,-0.073321,-0.342780,-0.068392,-0.072064,-0.342780,0.214509,0.240591,1.028929,0.300631,1.311511,-9.909560
1790541845.3499,-0.055668,-0.074024,-0.327846,-0.059485,-0.073436,-0.327846,0.023889,-1.073110,0.868662,0.645583,2.092291,-14.799770
1790541845.3640,-0.043906,-0.060626,-0.319994,-0.048579,-0.064469,-0.319994,-1.012988,-1.108320,0.817668,4.670021,0.679451,-13.402567
1790541845.3780,-0.038846,-0.048728,-0.313890,-0.041766,-0.053450,-0.313890,-1.014203,-0.651803,0.691397,4.018446,-1.439808,-10.608161
1790541845.3919,-0.025133,-0.034038,-0.309693,-0.030123,-0.039862,-0.309693,-1.210894,-1.317153,0.436428,3.136902,-0.844929,-6.494175
1790541845.4060,-0.010249,-0.017282,-0.309829,-0.016211,-0.024056,-0.309829,-1.112548,-1.305012,0.433999,1.642111,1.757671,-5.795574
1790541845.4200,-0.012687,-0.013976,-0.312797,-0.013744,-0.017000,-0.312797,-0.170374,-0.070229,0.268876,3.251886,2.501271,-9.133336
1790541845.4339,-0.022560,-0.032641,-0.305382,-0.019915,-0.027949,-0.305382,1.174896,0.748103,-0.292058,0.377287,-1.291089,-10.220049
1790541845.4479,-0.013850,-0.036976,-0.313601,-0.015669,-0.034268,-0.313601,0.358992,-0.333698,-1.043612,-3.033903,2.649991,-11.927742
1790541845.4618,-0.016274,-0.043784,-0.330277,-0.016092,-0.040929,-0.330277,0.467051,0.313440,-1.173525,0.338959,1.014071,-10.142427
1790541845.4758,-0.024491,-0.053248,-0.344228,-0.021971,-0.049552,-0.344228,0.645530,0.470064,-0.590737,2.332014,0.382011,-6.688231
1790541845.4896,-0.013185,-0.061310,-0.346120,-0.015821,-0.057782,-0.346120,0.598178,-0.643304,-0.562811,-2.075704,1.534591,-10.996273
1790541845.5036,-0.001857,-0.073068,-0.354821,-0.006046,-0.068482,-0.354821,0.850720,-0.672443,-0.818995,-1.002520,1.199971,-9.482637
1790541845.5172,0.008213,-0.074915,-0.375632,0.003935,-0.072985,-0.375632,0.321354,-0.595953,-1.031470,-1.079176,4.620531,-10.103616
1790541845.5308,0.014031,-0.076863,-0.390598,0.011003,-0.075700,-0.390598,0.108879,-0.402904,-1.052111,0.798895,0.716631,-8.124245
1790541845.5448,0.016452,-0.079125,-0.405491,0.014817,-0.078097,-0.405491,0.131947,-0.135793,-0.998688,0.492271,0.753811,-7.774944
1790541845.5590,0.021729,-0.082981,-0.412540,0.019655,-0.081516,-0.412540,0.196297,-0.350696,-0.715793,0.453943,0.084571,-12.820399
1790541845.5733,0.000002,-0.080845,-0.424126,0.005898,-0.081046,-0.424126,-0.231081,1.470517,-0.797141,2.945262,-0.026969,-14.916203
1790541845.5873,-0.001809,-0.069325,-0.423395,0.000503,-0.072842,-0.423395,-0.898859,0.366862,-0.718222,-4.145415,0.010211,-14.256413
1790541845.6015,-0.004990,-0.055481,-0.416424,-0.003342,-0.060689,-0.416424,-1.155043,0.535628,-0.746147,-3.110559,-1.365448,-7.658511
1790541845.6154,-0.009694,-0.042256,-0.416767,-0.007788,-0.047786,-0.416767,-1.125904,0.619404,-0.730363,-2.420655,-1.253909,-7.542077
1790541845.6294,-0.019827,-0.027554,-0.422667,-0.016215,-0.033624,-0.422667,-1.163542,0.919297,-0.708508,-0.964192,-0.250049,-7.231588
1790541845.6434,-0.026403,-0.012604,-0.424882,-0.023347,-0.018910,-0.424882,-1.065197,0.688610,-0.505747,-1.692424,1.237151,-7.930189
1790541845.6574,-0.011728,-0.022533,-0.430169,-0.015213,-0.021446,-0.430169,0.485263,-0.895846,-0.360050,-4.030431,-5.046268,-21.087182
1790541845.6713,-0.021211,-0.030836,-0.464254,-0.019411,-0.028019,-0.464254,0.643101,0.253947,0.705967,6.739732,2.426911,-11.306763
1790541845.6852,-0.021610,-0.043512,-0.460194,-0.020951,-0.038864,-0.460194,0.968491,-0.195286,0.911157,1.297159,1.869211,-7.852567
1790541845.6990,-0.014308,-0.052446,-0.440577,-0.016301,-0.048371,-0.440577,0.751160,-0.447827,0.616121,-1.692424,1.906391,-6.067252
1790541845.7130,-0.028190,-0.059528,-0.449177,-0.024623,-0.056181,-0.449177,0.594536,0.737175,0.487422,2.255358,1.608951,-5.989630
1790541845.7269,-0.041878,-0.072475,-0.444304,-0.036701,-0.067587,-0.444304,0.938138,0.887729,0.625834,1.028863,1.646131,-12.703965
1790541845.7407,-0.065350,-0.083615,-0.444260,-0.056756,-0.078807,-0.444260,0.934495,1.515441,0.799456,2.178703,3.021791,-8.551168
1790541845.7543,-0.076908,-0.085624,-0.435362,-0.070863,-0.083579,-0.435362,0.265503,0.851305,0.773959,-0.504256,3.430771,-9.637881
1790541845.7678,-0.083171,-0.088894,-0.427103,-0.079479,-0.087299,-0.427103,0.246077,0.354721,0.852878,1.220503,1.757671,-9.870749
1790541845.7816,-0.087929,-0.091491,-0.420083,-0.085394,-0.090234,-0.420083,0.182941,0.228450,0.727822,1.488799,1.385871,-8.978091
1790541845.7955,-0.070345,-0.094136,-0.410661,-0.074860,-0.092966,-0.410661,0.207224,-1.295298,0.670757,-0.044320,2.315371,-12.315854
1790541845.8094,-0.060715,-0.088757,-0.393733,-0.064958,-0.090020,-0.393733,-0.461768,-0.982050,0.635547,5.091629,0.158931,-10.724595
1790541845.8237,-0.047621,-0.083342,-0.372851,-0.052822,-0.085346,-0.372851,-0.530974,-1.126533,0.731464,3.136902,-1.291089,-10.957462
1790541845.8378,-0.037476,-0.077143,-0.353198,-0.042080,-0.079603,-0.353198,-0.606251,-0.963838,0.644046,2.255358,-1.030829,-6.610609
1790541845.8518,-0.028068,-0.066434,-0.342621,-0.032272,-0.070385,-0.342621,-0.887932,-0.865492,0.359937,1.987063,-0.621849,-7.270399
1790541845.8657,-0.019484,-0.052319,-0.339610,-0.023320,-0.057739,-0.339610,-1.099193,-0.782930,0.104967,2.063719,-0.101329,-8.240679
1790541845.8799,-0.008870,-0.036367,-0.338009,-0.013205,-0.042779,-0.338009,-1.230320,-0.937126,-0.084439,3.443526,-0.547489,-10.220049
1790541845.8939,-0.012839,-0.026586,-0.343056,-0.012949,-0.031444,-0.343056,-0.762875,0.221165,-0.341837,2.485326,0.567911,-13.247322
1790541845.9080,-0.022835,-0.034498,-0.353046,-0.019869,-0.033582,-0.353046,0.493762,0.793026,-0.922197,1.948735,0.530731,-18.021098
1790541845.9227,-0.020378,-0.041641,-0.361108,-0.020226,-0.039223,-0.361108,0.521687,0.222379,-1.290082,-4.222071,2.203831,-10.918651
1790541845.9370,-0.021096,-0.046791,-0.400897,-0.020835,-0.044521,-0.400897,0.527758,-0.010736,-0.732791,1.948735,2.798711,-7.037532
1790541845.9514,-0.019273,-0.064461,-0.404145,-0.019741,-0.058479,-0.404145,1.182180,-0.059302,-0.638088,0.147319,0.233291,-7.348021
1790541845.9656,-0.000541,-0.079072,-0.427813,-0.006301,-0.072894,-0.427813,1.162754,-1.154458,-1.025399,-1.424128,3.133331,-9.754315
1790541845.9798,0.009450,-0.088008,-0.459193,0.004725,-0.083474,-0.459193,0.768158,-0.628734,-1.111604,0.070663,2.835891,-8.124245
1790541845.9933,0.015483,-0.091078,-0.489765,0.012256,-0.088797,-0.489765,0.407558,-0.453898,-1.036327,0.990535,3.207691,-7.503266
1790541846.0073,0.029779,-0.100275,-0.496737,0.024522,-0.096831,-0.496737,0.576324,-0.932270,-0.997474,-0.580912,0.047391,-8.279490
1790541846.0214,0.021879,-0.106005,-0.519908,0.022672,-0.103253,-0.519908,0.544756,0.573266,-0.632017,0.185647,3.319231,-9.715504
1790541846.0353,0.001233,-0.108360,-0.517274,0.007664,-0.106828,-0.517274,0.150160,1.324820,-0.598021,6.279797,1.608951,-18.525644
1790541846.0492,-0.004593,-0.092174,-0.507320,-0.000915,-0.096571,-0.507320,-1.257031,0.676468,-0.659943,-5.256926,-0.547489,-14.101168
1790541846.0633,-0.003606,-0.077577,-0.485374,-0.002799,-0.083275,-0.485374,-1.221821,0.222379,-0.661157,-3.992103,-1.774428,-9.288581
1790541846.0780,-0.014895,-0.058596,-0.474254,-0.011266,-0.066000,-0.474254,-1.498645,0.861018,-0.595593,-0.197632,-1.216729,-5.485084
1790541846.0919,-0.017836,-0.037683,-0.474220,-0.015865,-0.046178,-0.474220,-1.564209,0.495561,-0.506961,-2.267343,0.233291,-6.106063
1790541846.1059,-0.023877,-0.018255,-0.471176,-0.021473,-0.026632,-0.471176,-1.530213,0.740818,-0.418328,-2.650623,-0.659029,-6.338930
1790541846.1198,-0.027707,-0.008778,-0.472076,-0.025837,-0.014134,-0.472076,-0.819940,0.604834,-0.345480,-5.793518,-1.142369,-12.471098
1790541846.1337,-0.021361,-0.026119,-0.467270,-0.022704,-0.022523,-0.467270,1.155469,-0.458754,0.049116,-0.312616,-0.212869,-20.699071
1790541846.1475,-0.019851,-0.031309,-0.467844,-0.020707,-0.028673,-0.467844,0.372348,-0.336126,0.664686,2.446998,1.608951,-11.694875
1790541846.1613,-0.018477,-0.036672,-0.455466,-0.019146,-0.034272,-0.455466,0.408772,-0.167360,0.797028,-0.657568,1.646131,-9.172147
1790541846.1751,-0.017654,-0.047094,-0.448546,-0.018101,-0.043247,-0.448546,0.737804,-0.171003,0.580911,0.492271,0.902531,-9.055714
1790541846.1890,-0.031923,-0.053026,-0.469470,-0.027776,-0.050092,-0.469470,0.439125,0.664327,0.654973,3.136902,0.753811,-5.950818
1790541846.2025,-0.044497,-0.057862,-0.465827,-0.039481,-0.055531,-0.465827,0.435483,0.910798,0.622191,-0.427600,2.129471,-8.085434
1790541846.2162,-0.054438,-0.061210,-0.457523,-0.049951,-0.059507,-0.457523,0.263075,0.712893,0.664686,-0.504256,1.757671,-10.064805
1790541846.2296,-0.056344,-0.061754,-0.445603,-0.054426,-0.061080,-0.445603,0.028745,0.141032,0.705967,-0.849208,1.423051,-10.142427
1790541846.2436,-0.060730,-0.061273,-0.441971,-0.058839,-0.061215,-0.441971,0.015390,0.192026,0.732678,1.028863,2.241011,-9.094525
1790541846.2574,-0.064276,-0.062183,-0.438525,-0.062645,-0.061892,-0.438525,0.097952,0.094894,0.749676,1.757095,2.166651,-9.831937
1790541846.2713,-0.058565,-0.059802,-0.436095,-0.059789,-0.060429,-0.436095,-0.072028,-0.525532,0.722965,0.875551,3.170511,-9.210958
1790541846.2854,-0.049193,-0.057757,-0.430715,-0.052372,-0.058559,-0.430715,-0.120594,-0.832710,0.640403,2.332014,2.575631,-12.665154
1790541846.2995,-0.033786,-0.051991,-0.427097,-0.039362,-0.053961,-0.427097,-0.354923,-1.196953,0.472852,0.990535,3.096151,-12.820399
1790541846.3133,-0.027569,-0.042755,-0.421582,-0.031107,-0.046116,-0.421582,-0.682742,-0.665159,0.257949,4.095102,1.423051,-12.742777
1790541846.3277,-0.021703,-0.030141,-0.420075,-0.024524,-0.034933,-0.420075,-0.861221,-0.662730,-0.033445,4.095102,1.497411,-8.357112
1790541846.3417,-0.026506,-0.025670,-0.418924,-0.025911,-0.028449,-0.418924,-0.363422,0.170171,-0.270203,3.596838,0.679451,-9.133336
1790541846.3556,-0.033894,-0.027168,-0.425766,-0.031499,-0.027552,-0.425766,0.094309,0.731105,-0.734005,-1.270816,1.199971,-10.802217
1790541846.3696,-0.023765,-0.030000,-0.441870,-0.026085,-0.029266,-0.441870,0.274002,-0.381049,-1.192951,-3.072231,2.501271,-10.220049
1790541846.3834,-0.022692,-0.033894,-0.465381,-0.023710,-0.032506,-0.465381,0.373562,0.053613,-1.161383,0.530599,2.315371,-8.318301
1790541846.3975,-0.024995,-0.040873,-0.478460,-0.024610,-0.038363,-0.478460,0.510760,0.193240,-0.879702,1.718767,1.497411,-10.297672
1790541846.4115,-0.017131,-0.047616,-0.490867,-0.019375,-0.044840,-0.490867,0.458552,-0.338554,-1.188094,-1.194160,0.865351,-10.297672
1790541846.4255,-0.007474,-0.055566,-0.509092,-0.011044,-0.052348,-0.509092,0.570253,-0.453898,-1.367788,-1.040848,1.088431,-8.201867
1790541846.4391,-0.001763,-0.061839,-0.536519,-0.004547,-0.058992,-0.536519,0.542328,-0.283918,-1.514699,0.300631,1.794851,-6.688231
1790541846.4527,0.004071,-0.064415,-0.557275,0.001486,-0.062788,-0.557275,0.208438,-0.367694,-1.423638,1.067191,1.423051,-7.891378
1790541846.4667,0.006893,-0.067090,-0.577929,0.005271,-0.065800,-0.577929,0.185370,-0.101797,-1.399355,0.607255,1.423051,-9.637881
1790541846.4806,0.014802,-0.069993,-0.611009,0.011942,-0.068735,-0.611009,0.386917,-0.415045,-1.359289,-0.465928,4.323091,-9.055714
1790541846.4946,0.002267,-0.073059,-0.613769,0.005170,-0.071762,-0.613769,0.078525,0.926582,-1.271870,2.025391,-0.733389,-12.742777
1790541846.5086,-0.002640,-0.058189,-0.624993,-0.000297,-0.062261,-0.624993,-1.121047,0.740818,-1.149242,-6.253454,0.567911,-12.587532
1790541846.5225,-0.005774,-0.043706,-0.625349,-0.004131,-0.049273,-0.625349,-1.210894,0.595121,-1.033898,-3.877119,-1.328269,-8.745224
1790541846.5364,-0.011240,-0.029984,-0.629953,-0.009107,-0.035771,-0.629953,-1.161114,0.842806,-0.968335,-3.877119,-1.105189,-6.532986
1790541846.5502,-0.022094,-0.016022,-0.638387,-0.018198,-0.021947,-0.638387,-1.157471,1.014000,-0.880917,-0.772552,-0.510309,-5.912007
1790541846.5646,-0.022070,-0.017228,-0.641130,-0.020908,-0.018643,-0.641130,-0.106024,0.187169,-0.594379,-2.995575,-3.559068,-19.573546
1790541846.5791,-0.026846,-0.025871,-0.647024,-0.025065,-0.023703,-0.647024,0.652814,0.032973,0.429143,7.659604,4.397451,-16.817952
1790541846.5932,-0.035449,-0.037291,-0.641748,-0.032334,-0.033215,-0.641748,0.830079,0.349864,0.777602,4.210086,2.724351,-14.566903
1790541846.6071,-0.028036,-0.051874,-0.620662,-0.029326,-0.046276,-0.620662,0.964849,-0.512177,1.001004,-1.769080,0.158931,-7.192776
1790541846.6212,-0.025442,-0.062644,-0.607169,-0.026607,-0.057734,-0.607169,0.634602,-0.156433,0.447355,-1.040848,-0.807749,-8.279490
1790541846.6352,-0.044541,-0.072092,-0.606639,-0.039161,-0.067784,-0.606639,0.603035,1.108703,0.597909,4.401726,-0.138509,-11.888930
1790541846.6493,-0.055393,-0.084157,-0.603202,-0.050523,-0.079245,-0.603202,0.956350,0.698323,0.793385,0.338959,2.798711,-9.210958
1790541846.6629,-0.075963,-0.091921,-0.601439,-0.068331,-0.088118,-0.601439,0.658885,1.306608,0.964579,1.948735,1.980751,-6.688231
1790541846.6765,-0.087316,-0.097532,-0.594037,-0.081621,-0.094708,-0.594037,0.477978,0.817309,1.008289,-0.274288,2.687171,-9.327392
1790541846.6901,-0.086036,-0.101688,-0.579362,-0.084712,-0.099594,-0.579362,0.224222,-0.089655,0.928155,-0.542584,0.530731,-10.918651
1790541846.7040,-0.078506,-0.099829,-0.568695,-0.080368,-0.099758,-0.568695,-0.163089,-0.671229,0.863806,2.408670,1.757671,-14.062357
1790541846.7179,-0.065308,-0.096630,-0.556237,-0.069826,-0.097568,-0.556237,-0.306358,-1.000262,0.682898,0.530599,0.270471,-11.888930
1790541846.7318,-0.057532,-0.096234,-0.535317,-0.061220,-0.096634,-0.535317,-0.238366,-0.832710,0.673185,4.401726,-2.369308,-9.831937
1790541846.7457,-0.055019,-0.089559,-0.524753,-0.056879,-0.091682,-0.524753,-0.632962,-0.568027,0.637975,5.436581,-1.328269,-7.503266
1790541846.7597,-0.046433,-0.072497,-0.523737,-0.049567,-0.078253,-0.523737,-1.219393,-0.833924,0.544486,2.446998,1.088431,-7.852567
1790541846.7735,-0.041550,-0.054589,-0.507292,-0.043955,-0.061688,-0.507292,-1.453722,-0.650589,0.465567,2.945262,-0.882109,-6.183686
1790541846.7875,-0.030582,-0.036004,-0.497415,-0.034594,-0.043709,-0.497415,-1.437938,-0.994191,0.332011,2.332014,-0.175689,-8.201867
1790541846.8015,-0.019267,-0.021903,-0.493781,-0.023865,-0.028445,-0.493781,-1.060340,-1.016046,0.278589,2.523654,0.605091,-9.366203
1790541846.8154,-0.023765,-0.019268,-0.484022,-0.023795,-0.022021,-0.484022,-0.347639,0.170171,-0.024946,3.941790,-1.365448,-13.557812
1790541846.8300,-0.033724,-0.024166,-0.484199,-0.030746,-0.023522,-0.484199,0.294643,0.915654,-0.749789,-2.688951,1.311511,-16.507462
1790541846.8439,-0.028108,-0.039592,-0.513262,-0.028899,-0.034771,-0.513262,1.292667,-0.128508,-0.957407,-3.532167,5.847470,-13.713056
1790541846.8579,-0.037137,-0.050034,-0.545165,-0.034665,-0.045455,-0.545165,0.927211,0.578123,-0.344266,1.603783,2.947431,-7.348021
1790541846.8718,-0.037629,-0.062710,-0.553744,-0.036740,-0.057534,-0.553744,0.967277,0.128890,-0.369763,-0.504256,1.497411,-8.240679
1790541846.8858,-0.024635,-0.077323,-0.567405,-0.028266,-0.071386,-0.567405,1.122687,-0.810856,-0.655086,-0.964192,2.315371,-11.229140
1790541846.8994,-0.013152,-0.086996,-0.586208,-0.017686,-0.082313,-0.586208,0.776657,-0.706439,-1.060610,-0.657568,1.608951,-8.784035
1790541846.9130,-0.007320,-0.083351,-0.616558,-0.010430,-0.083039,-0.616558,-0.021034,-0.355552,-0.799569,-0.159304,4.397451,-8.512357
1790541846.9269,-0.001214,-0.088184,-0.624093,-0.003979,-0.086641,-0.624093,0.314069,-0.402904,-0.784999,0.377287,0.493551,-9.715504
1790541846.9408,0.010093,-0.093136,-0.638180,0.005872,-0.091187,-0.638180,0.420913,-0.677300,-0.647801,-1.539112,1.869211,-9.133336
1790541846.9547,-0.004708,-0.094193,-0.650508,-0.001534,-0.093291,-0.650508,0.122234,1.066208,-0.464466,0.760567,2.389731,-14.139979
1790541846.9687,-0.027045,-0.079005,-0.660210,-0.019392,-0.083291,-0.660210,-0.986277,1.816548,-0.352765,-3.685479,3.356411,-12.160609
1790541846.9829,-0.024506,-0.063232,-0.629416,-0.022972,-0.069250,-0.629416,-1.208465,0.212666,-0.505747,-7.020013,-0.621849,-10.258860
1790541846.9969,-0.036421,-0.047850,-0.626922,-0.032386,-0.054270,-0.626922,-1.204823,0.994574,-0.402545,-0.849208,-0.398769,-6.455364
1790541847.0110,-0.046105,-0.037521,-0.623532,-0.041989,-0.042546,-0.623532,-0.845437,0.777242,-0.298128,-0.274288,-0.398769,-6.688231
1790541847.0250,-0.052991,-0.029896,-0.616099,-0.049691,-0.033691,-0.616099,-0.664530,0.740818,-0.171858,-2.842263,-0.621849,-8.357112
1790541847.0389,-0.053058,-0.027650,-0.614589,-0.052048,-0.029462,-0.614589,-0.192228,0.125248,-0.106294,-2.343999,1.534591,-17.283686
1790541847.0530,-0.048242,-0.033649,-0.604235,-0.049384,-0.032393,-0.604235,0.352921,-0.456326,0.568769,1.028863,0.716631,-13.363756
1790541847.0671,-0.052085,-0.046315,-0.588790,-0.051274,-0.042138,-0.588790,0.776657,0.081539,0.981577,1.757095,-0.287229,-12.859210
1790541847.0815,-0.051720,-0.059886,-0.577595,-0.051586,-0.054562,-0.577595,0.889572,-0.224425,0.919656,1.642111,0.790991,-8.861658
1790541847.0956,-0.059203,-0.070347,-0.575591,-0.056918,-0.065612,-0.575591,0.894429,0.569624,0.719323,-0.772552,2.055111,-4.902916
1790541847.1095,-0.074530,-0.082853,-0.572319,-0.069247,-0.077681,-0.572319,0.952708,0.966648,0.701111,1.757095,2.241011,-9.637881
1790541847.1232,-0.095207,-0.092990,-0.569219,-0.087419,-0.088397,-0.569219,0.813081,1.313893,0.873519,2.561982,2.501271,-8.473546
1790541847.1368,-0.109792,-0.098281,-0.564851,-0.103080,-0.095316,-0.564851,0.473121,1.041925,0.946367,0.223975,3.096151,-9.016902
1790541847.1504,-0.110640,-0.106411,-0.553396,-0.108372,-0.103082,-0.553396,0.561754,0.071826,1.055640,-0.504256,1.980751,-11.423196
1790541847.1644,-0.100842,-0.109745,-0.539403,-0.103101,-0.107746,-0.539403,0.164729,-0.701583,1.037428,-0.427600,1.237151,-12.082986
1790541847.1783,-0.089747,-0.112301,-0.519904,-0.093753,-0.110935,-0.519904,0.000820,-0.849708,0.997361,0.645583,-1.142369,-11.500819
1790541847.1923,-0.079905,-0.117345,-0.493012,-0.084059,-0.115422,-0.493012,0.089453,-0.892203,1.060497,3.098574,-3.112908,-10.957462
1790541847.2062,-0.074431,-0.117685,-0.474717,-0.077319,-0.117006,-0.474717,-0.144877,-0.680942,1.064139,4.248414,-1.179549,-9.094525
1790541847.2200,-0.066027,-0.104446,-0.463904,-0.069414,-0.108214,-0.463904,-1.055483,-0.988120,0.946367,4.938317,-0.175689,-7.270399
1790541847.2340,-0.060348,-0.085356,-0.451181,-0.063068,-0.092213,-0.451181,-1.474362,-0.627520,0.682898,2.255358,-0.250049,-6.804665
1790541847.2478,-0.060672,-0.060615,-0.442911,-0.061390,-0.070094,-0.442911,-1.895670,-0.266920,0.455854,3.443526,-0.361589,-7.037532
1790541847.2617,-0.052070,-0.031463,-0.433340,-0.054866,-0.043052,-0.433340,-2.204062,-0.803571,0.290731,1.948735,-0.026969,-7.037532
1790541847.2757,-0.041219,-0.002465,-0.422276,-0.045313,-0.014641,-0.422276,-2.245343,-1.060969,0.220310,2.868606,-0.621849,-6.300119
1790541847.2895,-0.058606,0.005015,-0.413671,-0.054618,-0.000882,-0.413671,-0.755590,1.153626,-0.312698,7.736260,-4.488568,-21.281238
1790541847.3034,-0.059165,-0.025453,-0.402598,-0.057801,-0.018081,-0.402598,2.164421,0.446996,-0.136647,-9.473004,1.274331,-13.480189
1790541847.3173,-0.067248,-0.031813,-0.459600,-0.064414,-0.027694,-0.459600,0.845863,0.769957,-0.644159,-1.615768,8.152630,-9.948371
1790541847.3318,-0.082439,-0.047224,-0.436926,-0.077031,-0.041365,-0.436926,0.866503,1.261685,-0.458395,-1.692424,-2.629568,-10.414105
1790541847.3458,-0.076346,-0.055267,-0.449947,-0.076552,-0.051096,-0.449947,0.726877,-0.015593,-0.652658,-4.413711,2.352551,-6.959909
1790541847.3595,-0.066933,-0.075127,-0.436652,-0.069819,-0.067918,-0.436652,1.177324,-0.470896,-0.532458,-1.309144,-2.518028,-6.028441
1790541847.3730,-0.065990,-0.071782,-0.494431,-0.067139,-0.070623,-0.494431,0.150160,-0.146720,-0.588308,1.987063,5.438491,-6.494175
1790541847.3869,-0.064393,-0.069108,-0.508955,-0.065217,-0.069562,-0.508955,-0.081742,-0.098154,-0.545813,0.952207,2.092291,-8.551168
1790541847.4008,-0.047889,-0.074253,-0.503983,-0.053087,-0.072846,-0.503983,0.329853,-0.937126,-0.663585,-2.343999,0.047391,-8.706413
1790541847.4147,-0.033582,-0.075969,-0.517242,-0.039433,-0.075032,-0.517242,0.237578,-0.932270,-0.719436,-0.312616,2.203831,-8.357112
1790541847.4286,-0.033621,-0.072629,-0.538188,-0.035365,-0.073350,-0.538188,0.031174,-0.052017,-0.396474,1.450471,4.434631,-7.309210
1790541847.4428,-0.036063,-0.070055,-0.549950,-0.035853,-0.071043,-0.549950,-0.019820,0.346222,-0.476607,-3.187215,5.921830,-15.575993
1790541847.4568,-0.045572,-0.061519,-0.556754,-0.042656,-0.064376,-0.556754,-0.504263,0.870731,-0.304199,-3.608823,4.248731,-15.032637
1790541847.4707,-0.047885,-0.047612,-0.552374,-0.046316,-0.052641,-0.552374,-0.921928,0.480991,-0.146361,-4.873646,2.464091,-9.172147
1790541847.4847,-0.052591,-0.035701,-0.541795,-0.050709,-0.040783,-0.541795,-0.938926,0.661899,0.055187,-2.880591,-0.138509,-4.864105
1790541847.4986,-0.051742,-0.026823,-0.541185,-0.051432,-0.031011,-0.541185,-0.518833,0.181098,-0.084439,-1.462456,1.348691,-3.738581
1790541847.5127,-0.050063,-0.036689,-0.535074,-0.050474,-0.034986,-0.535074,0.577538,-0.163718,0.476494,-0.120976,-0.547489,-13.092077
1790541847.5266,-0.047313,-0.045635,-0.523375,-0.048261,-0.042440,-0.523375,0.600606,-0.253564,0.822525,-0.772552,1.385871,-12.742777
1790541847.5407,-0.048587,-0.046324,-0.506791,-0.048490,-0.045159,-0.506791,0.022675,-0.009522,1.172198,-0.657568,1.869211,-12.626343
1790541847.5545,-0.047841,-0.055255,-0.492789,-0.048036,-0.052226,-0.492789,0.560540,-0.110296,1.064139,-1.079176,0.419191,-11.500819
1790541847.5688,-0.059609,-0.069042,-0.475246,-0.056137,-0.063997,-0.475246,0.910213,0.501632,1.195266,3.251886,0.605091,-8.201867
1790541847.5832,-0.073867,-0.078177,-0.459591,-0.068548,-0.073923,-0.459591,0.655243,0.924153,1.113919,-0.082648,1.608951,-7.231588
1790541847.5968,-0.084266,-0.081643,-0.444042,-0.079550,-0.079327,-0.444042,0.310426,0.797883,1.076281,-1.155832,2.203831,-7.425644
1790541847.6105,-0.090275,-0.084950,-0.433024,-0.087058,-0.083263,-0.433024,0.184156,0.478563,0.918442,-1.462456,1.162791,-11.733686
1790541847.6244,-0.092528,-0.087214,-0.422565,-0.090887,-0.086029,-0.422565,0.138018,0.128890,0.726608,0.300631,1.646131,-12.005364
1790541847.6384,-0.074916,-0.085789,-0.411012,-0.079707,-0.085861,-0.411012,-0.197085,-1.289228,0.822525,-0.274288,0.530731,-14.295224
1790541847.6525,-0.071096,-0.080095,-0.401383,-0.073679,-0.081824,-0.401383,-0.523689,-0.462397,0.652545,3.060246,-0.473129,-11.073895
1790541847.6664,-0.064662,-0.076426,-0.391043,-0.067367,-0.078046,-0.391043,-0.529760,-0.738007,0.693826,3.865134,-2.964188,-9.055714
1790541847.6804,-0.057818,-0.068522,-0.380337,-0.060683,-0.071379,-0.380337,-0.733736,-0.873991,0.578482,3.903462,-1.030829,-5.562707
1790541847.6944,-0.046698,-0.057139,-0.374522,-0.050893,-0.061411,-0.374522,-0.907358,-0.991763,0.349009,2.102047,-0.175689,-6.998721
1790541847.7084,-0.038078,-0.045318,-0.372520,-0.041923,-0.050146,-0.372520,-0.907358,-0.827854,0.152318,3.213558,0.307651,-9.288581
1790541847.7225,-0.037147,-0.036046,-0.374226,-0.038580,-0.040276,-0.374226,-0.694883,-0.178288,-0.068655,4.133430,1.348691,-18.292777
1790541847.7365,-0.041370,-0.037828,-0.380877,-0.040533,-0.038562,-0.380877,0.180513,0.590264,-0.752217,-4.413711,3.021791,-15.226693
1790541847.7505,-0.029803,-0.039327,-0.394758,-0.033022,-0.039098,-0.394758,0.156230,-0.427187,-1.452777,-4.796990,2.352551,-13.596623
1790541847.7643,-0.023329,-0.040547,-0.401328,-0.026237,-0.040112,-0.401328,0.263075,0.085181,-1.015686,-3.685479,1.906391,-3.505713
1790541847.7780,-0.029485,-0.050846,-0.409697,-0.028510,-0.047626,-0.409697,0.719592,0.536842,-0.525173,-0.082648,0.382011,-5.834385
1790541847.7919,-0.014824,-0.063809,-0.418647,-0.018930,-0.058954,-0.418647,0.911427,-0.747720,-0.839636,-3.493839,0.567911,-9.210958
1790541847.8058,-0.005776,-0.077192,-0.431363,-0.009722,-0.071720,-0.431363,1.014629,-0.421116,-1.166240,-2.114032,2.092291,-10.608161
1790541847.8194,0.002998,-0.082541,-0.443445,-0.000818,-0.079295,-0.443445,0.555683,-0.429615,-1.327721,-1.577440,3.430771,-8.434735
1790541847.8338,0.007833,-0.084841,-0.454819,0.005238,-0.083177,-0.454819,0.257004,-0.338554,-1.039969,0.990535,2.055111,-6.727042
1790541847.8479,0.015454,-0.094992,-0.469069,0.012389,-0.091448,-0.469069,0.675883,-0.399262,-0.948908,-1.385800,0.456371,-10.025993
1790541847.8618,0.016121,-0.102557,-0.471977,0.015002,-0.099224,-0.471977,0.713522,0.051185,-0.474179,-1.615768,4.397451,-10.879840
1790541847.8758,-0.010870,-0.099785,-0.477992,-0.003109,-0.099617,-0.477992,-0.199513,1.855400,-0.375833,3.060246,1.608951,-18.215154
1790541847.8897,-0.014389,-0.082952,-0.499616,-0.011005,-0.087951,-0.499616,-1.278886,0.590264,-0.417114,-7.786573,-0.138509,-13.907112
1790541847.9035,-0.015607,-0.071244,-0.523604,-0.014227,-0.076256,-0.523604,-1.104049,0.307369,-0.428042,-2.420655,-2.629568,-7.580888
1790541847.9173,-0.028489,-0.056933,-0.541626,-0.024211,-0.062730,-0.541626,-1.281314,1.077135,-0.352765,-1.079176,-2.034688,-6.804665
1790541847.9311,-0.033272,-0.044265,-0.543313,-0.030554,-0.049805,-0.543313,-1.176898,0.689824,-0.332124,-3.417183,-2.443668,-5.912007
1790541847.9449,-0.050702,-0.029836,-0.551230,-0.044658,-0.035827,-0.551230,-1.071267,1.259257,-0.129363,0.530599,0.567911,-5.989630
1790541847.9587,-0.041549,-0.033005,-0.545139,-0.042481,-0.033852,-0.545139,0.138018,-0.439328,-0.056514,-4.145415,-0.287229,-11.850119
1790541847.9726,-0.031772,-0.038218,-0.528490,-0.034985,-0.036908,-0.528490,0.424556,-0.757433,0.573626,-0.350944,2.426911,-10.258860
1790541847.9866,-0.027752,-0.039985,-0.519099,-0.029922,-0.039062,-0.519099,0.083382,-0.463611,0.930583,0.913879,0.976891,-10.841028
1790541848.0023,-0.027226,-0.051428,-0.484579,-0.028035,-0.047718,-0.484579,0.875002,-0.021663,0.797028,-0.389272,0.753811,-1.836832
1790541848.0169,-0.038815,-0.060294,-0.477958,-0.035581,-0.056521,-0.477958,0.638245,0.556268,0.616121,3.175230,1.832031,-9.560259
1790541848.0315,-0.053405,-0.069884,-0.467747,-0.048058,-0.065875,-0.467747,0.698952,0.869517,0.589410,1.565455,1.869211,-9.327392
1790541848.0456,-0.072458,-0.077749,-0.453156,-0.065138,-0.074187,-0.453156,0.621247,1.264113,0.699896,0.875551,2.129471,-8.706413
1790541848.0604,-0.081167,-0.082829,-0.437073,-0.076359,-0.080236,-0.437073,0.354136,0.567196,0.804313,-0.350944,2.315371,-12.238231
1790541848.0747,-0.088134,-0.085677,-0.424145,-0.084601,-0.084045,-0.424145,0.172014,0.453066,0.794600,0.070663,1.014071,-7.813756
1790541848.0887,-0.086487,-0.087113,-0.405155,-0.085921,-0.086192,-0.405155,0.193869,-0.132150,0.654973,-0.044320,3.319231,-10.569350
1790541848.1026,-0.069125,-0.089449,-0.409379,-0.074164,-0.088472,-0.409379,-0.030748,-1.222450,0.741177,-1.232488,-1.737248,-12.626343
1790541848.1165,-0.058300,-0.083685,-0.409052,-0.063059,-0.085121,-0.409052,-0.551614,-0.961409,0.697468,3.021918,-0.844929,-12.703965
1790541848.1306,-0.053595,-0.075561,-0.410282,-0.056434,-0.078429,-0.410282,-0.702168,-0.646947,0.682898,4.899989,-0.659029,-10.142427
1790541848.1444,-0.046103,-0.063739,-0.412225,-0.049203,-0.068146,-0.412225,-0.957138,-0.761076,0.334440,2.791950,-0.287229,-8.318301
1790541848.1582,-0.039800,-0.048468,-0.412204,-0.042621,-0.054371,-0.412204,-1.124690,-0.700369,0.120751,3.328542,0.790991,-7.852567
1790541848.1723,-0.031602,-0.032574,-0.411776,-0.034907,-0.039113,-0.411776,-1.113762,-0.829068,-0.033445,3.865134,1.423051,-8.240679
1790541848.1861,-0.022024,-0.018711,-0.411633,-0.025889,-0.024832,-0.411633,-0.957138,-0.917700,-0.152431,3.405198,1.906391,-7.813756
1790541848.2000,-0.036372,-0.021880,-0.419194,-0.033227,-0.022765,-0.419194,0.266717,1.221618,-0.531244,-2.152360,3.170511,-15.614805
1790541848.2141,-0.025259,-0.029601,-0.429698,-0.027649,-0.027551,-0.429698,0.646744,-0.286346,-1.503771,-7.403293,3.839751,-13.557812
1790541848.2280,-0.024213,-0.042972,-0.444294,-0.025244,-0.038346,-0.444294,1.065623,0.289157,-1.395713,-2.382327,2.352551,-8.124245
1790541848.2419,-0.032210,-0.053476,-0.455700,-0.030120,-0.048937,-0.455700,0.836150,0.725034,-0.961050,-0.159304,1.608951,-6.843476
1790541848.2558,-0.018701,-0.064307,-0.470614,-0.022127,-0.059696,-0.470614,0.760873,-0.634805,-0.997474,-3.302199,0.567911,-8.434735
1790541848.2697,-0.007707,-0.079727,-0.485089,-0.012033,-0.073718,-0.485089,1.125116,-0.589882,-1.194165,-2.152360,1.794851,-14.644525
1790541848.2833,0.007046,-0.085401,-0.486018,0.001322,-0.081896,-0.486018,0.698952,-0.880062,-1.434565,-1.194160,4.137191,-6.300119
1790541848.2969,0.017082,-0.087913,-0.492749,0.012354,-0.086108,-0.492749,0.316497,-0.825425,-1.214806,1.680439,2.092291,-5.562707
1790541848.3107,0.024941,-0.097209,-0.507671,0.021165,-0.093879,-0.507671,0.628532,-0.581383,-1.219662,1.182175,0.642271,-8.357112
1790541848.3248,0.015100,-0.104998,-0.523326,0.016919,-0.101662,-0.523326,0.457338,0.712893,-0.867561,0.952207,-0.547489,-17.400119
1790541848.3392,-0.011028,-0.095494,-0.536086,-0.002644,-0.097345,-0.536086,-0.626891,1.869970,-0.908842,0.300631,3.505131,-21.281238
1790541848.3531,-0.006068,-0.075932,-0.576157,-0.005040,-0.082356,-0.576157,-1.452508,0.099751,-0.842064,-7.633261,0.456371,-9.443825
1790541848.3671,-0.006386,-0.062322,-0.606513,-0.005982,-0.068332,-0.606513,-1.199966,0.347436,-0.724292,-3.532167,-2.034688,-7.542077
1790541848.3810,-0.016843,-0.045187,-0.627707,-0.013585,-0.052130,-0.627707,-1.420940,0.848877,-0.454753,-0.312616,-0.844929,-4.708860
1790541848.3949,-0.027959,-0.030854,-0.636292,-0.023647,-0.037237,-0.636292,-1.099193,1.107489,-0.624733,-1.347472,0.047391,-3.777392
1790541848.4089,-0.046540,-0.016316,-0.621020,-0.039672,-0.022592,-0.621020,-0.801728,1.445020,-0.517888,-0.005993,2.315371,-4.204315
1790541848.4228,-0.038736,-0.019533,-0.641989,-0.039017,-0.020451,-0.641989,0.077311,-0.283918,-0.537314,-4.911974,-1.774428,-15.420749
1790541848.4367,-0.027430,-0.028482,-0.631693,-0.030906,-0.026072,-0.631693,0.666170,-0.915272,0.410931,0.913879,3.021791,-15.614805
1790541848.4507,-0.030841,-0.037819,-0.619883,-0.030861,-0.034295,-0.619883,0.651600,0.070611,0.929369,0.837223,1.237151,-9.599070
1790541848.4646,-0.024230,-0.047318,-0.604746,-0.026219,-0.043411,-0.604746,0.672241,-0.627520,1.008289,0.300631,1.237151,-9.443825
1790541848.4785,-0.024825,-0.061694,-0.584367,-0.025243,-0.056209,-0.584367,1.094762,0.155601,0.777602,-2.037376,1.237151,-5.756762
1790541848.4923,-0.044145,-0.074381,-0.563463,-0.038474,-0.068929,-0.563463,0.974562,1.108703,1.049569,3.060246,1.906391,-8.706413
1790541848.5059,-0.057579,-0.087319,-0.542944,-0.051848,-0.081802,-0.542944,0.991560,0.875588,1.079923,0.645583,2.017931,-9.948371
1790541848.5194,-0.073300,-0.094077,-0.519703,-0.066865,-0.090394,-0.519703,0.590893,1.181551,1.064139,-0.887536,2.389731,-8.085434
1790541848.5333,-0.083439,-0.096600,-0.504312,-0.078466,-0.094738,-0.504312,0.181727,0.784527,1.054426,-1.807408,1.980751,-10.802217
1790541848.5472,-0.069243,-0.093715,-0.488902,-0.072010,-0.094022,-0.488902,-0.201942,-0.950482,0.950010,-2.612295,2.575631,-13.169700
1790541848.5612,-0.063966,-0.084731,-0.486455,-0.066379,-0.087518,-0.486455,-0.789586,-0.563171,0.799456,2.715294,-0.770569,-11.190329
1790541848.5752,-0.063873,-0.082816,-0.494002,-0.064625,-0.084227,-0.494002,-0.399847,-0.291203,0.974293,4.363398,-3.001368,-10.646972
1790541848.5900,-0.056570,-0.078601,-0.494949,-0.058986,-0.080289,-0.494949,-0.509120,-0.728294,0.829810,2.293686,-1.662888,-7.153965
1790541848.6043,-0.043511,-0.072731,-0.487768,-0.048153,-0.074998,-0.487768,-0.555257,-1.145959,0.856521,1.795423,-0.584669,-6.571797
1790541848.6183,-0.042182,-0.061950,-0.473951,-0.043973,-0.065864,-0.473951,-0.833295,-0.451470,0.614907,3.826806,0.084571,-6.610609
1790541848.6324,-0.035545,-0.049162,-0.471249,-0.038073,-0.054173,-0.471249,-1.067625,-0.680942,0.511704,1.987063,-0.919289,-7.542077
1790541848.6464,-0.035597,-0.038904,-0.474005,-0.036340,-0.043485,-0.474005,-0.828439,-0.133364,0.064900,3.251886,-0.435949,-13.790679
1790541848.6605,-0.042494,-0.041147,-0.483822,-0.040648,-0.041848,-0.483822,0.119806,0.626689,-0.595593,-1.002520,0.716631,-17.283686
1790541848.6745,-0.040619,-0.046700,-0.474872,-0.040628,-0.045245,-0.474872,0.573895,0.252733,-1.020543,-2.190688,1.906391,-4.786483
1790541848.6884,-0.035764,-0.049454,-0.467749,-0.037223,-0.048191,-0.467749,0.458552,-0.283918,-0.659943,0.262303,3.282051,-5.640329
1790541848.7023,-0.027987,-0.060935,-0.476783,-0.030758,-0.057112,-0.476783,0.777871,-0.399262,-0.482678,-1.117504,0.196111,-6.921098
1790541848.7163,-0.011416,-0.076116,-0.486211,-0.017218,-0.070415,-0.486211,1.114188,-0.875205,-0.918555,-3.647151,1.237151,-9.133336
1790541848.7302,-0.001501,-0.086498,-0.490224,-0.006216,-0.081673,-0.490224,0.881073,-0.649375,-1.069109,0.377287,3.170511,-9.676693
1790541848.7438,0.002966,-0.092526,-0.495659,0.000212,-0.089270,-0.495659,0.556897,-0.294845,-1.033898,0.568927,2.501271,-8.473546
1790541848.7575,0.009524,-0.099457,-0.504711,0.006730,-0.096401,-0.504711,0.513188,-0.441756,-0.829923,0.147319,0.976891,-8.551168
1790541848.7714,0.021063,-0.107760,-0.502255,0.016763,-0.104352,-0.502255,0.740233,-0.815712,-0.479036,-0.082648,3.058971,-9.210958
1790541848.7853,-0.008726,-0.110210,-0.520373,-0.001079,-0.108453,-0.520373,0.055457,1.996241,-0.562811,4.976645,-1.700068,-15.304315
1790541848.7992,-0.012355,-0.095470,-0.535790,-0.008972,-0.099365,-0.535790,-1.008132,0.544127,-0.675727,-5.141942,2.203831,-12.044175
1790541848.8131,-0.014294,-0.080347,-0.565590,-0.012697,-0.086053,-0.565590,-1.292241,0.381432,-0.616234,-3.187215,-2.332128,-9.599070
1790541848.8271,-0.020877,-0.065529,-0.594722,-0.018423,-0.071686,-0.594722,-1.312882,0.823380,-0.666013,-3.570495,-2.443668,-6.261308
1790541848.8419,-0.033877,-0.049746,-0.607792,-0.029241,-0.056328,-0.607792,-1.179326,1.086848,-0.396474,-2.075704,-0.621849,-8.046623
1790541848.8558,-0.043914,-0.036277,-0.612319,-0.039512,-0.042292,-0.612319,-1.021487,0.970291,-0.355193,-2.152360,0.196111,-7.153965
1790541848.8696,-0.050305,-0.024771,-0.612126,-0.047067,-0.030027,-0.612126,-0.818726,0.688610,-0.353979,-2.267343,1.237151,-9.055714
1790541848.8834,-0.037284,-0.024112,-0.619124,-0.040219,-0.025887,-0.619124,-0.146091,-0.922557,0.001765,-0.619240,0.196111,-18.176343
1790541848.8973,-0.031930,-0.028845,-0.601969,-0.034417,-0.027958,-0.601969,0.399059,-0.552243,0.681684,0.990535,2.129471,-8.279490
1790541848.9111,-0.033065,-0.041361,-0.589310,-0.033471,-0.037340,-0.589310,0.885930,-0.174645,1.051998,2.025391,1.348691,-10.181238
1790541848.9251,-0.040733,-0.057289,-0.566715,-0.038554,-0.051304,-0.566715,1.231960,0.396002,0.889303,0.837223,2.278191,-7.852567
1790541848.9388,-0.055847,-0.065066,-0.543158,-0.050659,-0.060938,-0.543158,0.694095,0.950864,0.763032,1.450471,3.207691,-9.133336
1790541848.9527,-0.071489,-0.075498,-0.526060,-0.065240,-0.071130,-0.526060,0.790013,0.995788,0.848022,1.488799,2.389731,-10.996273
1790541848.9662,-0.093098,-0.081655,-0.505794,-0.084740,-0.078497,-0.505794,0.518045,1.485087,0.926941,0.952207,1.906391,-7.076343
1790541848.9798,-0.099766,-0.088537,-0.485599,-0.095258,-0.085525,-0.485599,0.525330,0.495561,1.058068,-0.772552,2.538451,-10.608161
1790541848.9937,-0.104712,-0.092411,-0.466956,-0.101876,-0.090345,-0.466956,0.244863,0.296442,1.047141,0.377287,1.608951,-9.482637
1790541849.0079,-0.092793,-0.099252,-0.477408,-0.095518,-0.096580,-0.477408,0.207224,-0.822997,0.922084,-1.194160,-3.001368,-13.557812
1790541849.0219,-0.082255,-0.097774,-0.464029,-0.086234,-0.097416,-0.464029,-0.187372,-0.877634,0.933012,1.948735,0.716631,-12.199420
1790541849.0358,-0.075072,-0.095255,-0.453645,-0.078421,-0.095903,-0.453645,-0.319713,-0.741650,1.084779,3.021918,-0.287229,-10.491728
1790541849.0497,-0.059379,-0.091114,-0.447539,-0.065091,-0.092550,-0.447539,-0.488479,-1.302583,1.105420,1.987063,-1.365448,-11.112707
1790541849.0636,-0.054211,-0.083865,-0.441405,-0.057475,-0.086471,-0.441405,-0.709453,-0.742864,0.969436,4.095102,-1.291089,-7.115154
1790541849.0778,-0.052815,-0.070705,-0.435170,-0.054213,-0.075435,-0.435170,-1.023916,-0.383478,0.620977,3.366870,-0.287229,-7.503266
1790541849.0925,-0.044447,-0.052046,-0.430124,-0.047377,-0.059063,-0.430124,-1.360233,-0.776860,0.495921,3.175230,0.010211,-11.035084
1790541849.1065,-0.034159,-0.030359,-0.429300,-0.038124,-0.038970,-0.429300,-1.607918,-0.909201,0.124393,2.830278,0.456371,-10.142427
1790541849.1204,-0.056973,-0.023446,-0.437017,-0.051318,-0.028103,-0.437017,-0.586825,1.595574,-0.078369,3.213558,-0.250049,-19.806413
1790541849.1345,-0.053860,-0.034453,-0.439925,-0.053097,-0.032548,-0.439925,0.768158,0.184741,-1.065466,-6.521750,0.456371,-16.119350
1790541849.1484,-0.041681,-0.035634,-0.419038,-0.045106,-0.034708,-0.419038,0.375990,-0.504892,-0.725506,-4.145415,5.029511,-7.076343
1790541849.1623,-0.056052,-0.045166,-0.438407,-0.052768,-0.042029,-0.438407,0.661313,0.763887,-0.449896,5.819861,0.419191,-8.046623
1790541849.1763,-0.043226,-0.054664,-0.445727,-0.046088,-0.050873,-0.445727,0.701380,-0.597167,-0.844492,-3.685479,1.199971,-10.414105
1790541849.1902,-0.030094,-0.068844,-0.454433,-0.034892,-0.063453,-0.454433,1.098405,-0.789001,-0.984119,-1.002520,2.501271,-12.898021
1790541849.2036,-0.019125,-0.076249,-0.454937,-0.023855,-0.072410,-0.454937,0.871360,-0.677300,-1.189309,-0.235960,3.839751,-5.562707
1790541849.2173,-0.011705,-0.075011,-0.459397,-0.015350,-0.074231,-0.459397,0.087024,-0.498821,-0.924626,0.338959,1.906391,-4.670049
1790541849.2312,-0.004082,-0.080881,-0.470463,-0.007462,-0.078886,-0.470463,0.416057,-0.493965,-0.867561,0.223975,0.716631,-7.774944
1790541849.2450,0.010245,-0.086476,-0.480277,0.004933,-0.084199,-0.480277,0.469479,-0.888561,-0.950123,-1.500784,2.464091,-10.957462
1790541849.2588,-0.000116,-0.084941,-0.484709,0.001399,-0.084719,-0.484709,0.206010,0.750531,-0.669656,0.913879,6.739790,-8.628791
1790541849.2726,-0.031555,-0.074292,-0.497891,-0.021669,-0.077420,-0.497891,-0.766518,2.379910,-0.718222,-0.197632,2.092291,-18.486833
1790541849.2865,-0.036980,-0.056249,-0.541382,-0.032387,-0.062600,-0.541382,-1.320166,0.830664,-0.630803,-6.981685,0.679451,-9.793126
1790541849.3004,-0.039000,-0.045463,-0.570115,-0.037016,-0.050604,-0.570115,-0.944997,0.497989,-0.424399,-4.107087,-1.328269,-7.852567
1790541849.3141,-0.049211,-0.029967,-0.582800,-0.045553,-0.036158,-0.582800,-1.181754,0.941151,-0.312698,-0.427600,0.084571,-2.030888
1790541849.3279,-0.058265,-0.020009,-0.598504,-0.054452,-0.024854,-0.598504,-0.850293,0.757816,-0.192498,-0.427600,-0.398769,-7.115154
1790541849.3424,-0.045826,-0.023126,-0.605789,-0.048413,-0.023644,-0.605789,0.111307,-0.812070,-0.040730,-1.002520,-0.175689,-19.340679
1790541849.3564,-0.042610,-0.028758,-0.577128,-0.044351,-0.027224,-0.577128,0.494976,-0.496393,0.879589,3.060246,3.951291,-11.772497
1790541849.3702,-0.043660,-0.037946,-0.559696,-0.043868,-0.034729,-0.559696,0.618818,-0.143078,1.268115,1.182175,1.571771,-12.820399
1790541849.3843,-0.035876,-0.051629,-0.550563,-0.038273,-0.046559,-0.550563,0.858004,-0.672443,1.058068,-0.159304,-0.101329,-8.395923
1790541849.3983,-0.048228,-0.064383,-0.535368,-0.045242,-0.059036,-0.535368,0.853148,0.581765,0.941511,2.063719,0.196111,-5.407462
1790541849.4122,-0.068966,-0.075570,-0.514134,-0.061848,-0.070610,-0.514134,0.858004,1.347889,1.061711,0.990535,2.315371,-9.055714
1790541849.4259,-0.086613,-0.083963,-0.496894,-0.079183,-0.079957,-0.496894,0.632174,1.293253,1.003432,-0.657568,1.646131,-7.969000
1790541849.4396,-0.099744,-0.091732,-0.479115,-0.093576,-0.088200,-0.479115,0.562968,0.952079,1.055640,-0.350944,1.497411,-7.813756
1790541849.4536,-0.099568,-0.092290,-0.465370,-0.097771,-0.091063,-0.465370,-0.021034,-0.032591,0.948796,-0.197632,1.683311,-14.838581
1790541849.4675,-0.097693,-0.091299,-0.452318,-0.097716,-0.091228,-0.452318,-0.172802,-0.225639,1.003432,1.335487,0.790991,-14.139979
1790541849.4813,-0.094933,-0.094168,-0.451944,-0.095768,-0.093286,-0.451944,-0.084170,-0.260849,1.047141,0.300631,-2.183408,-8.784035
1790541849.4952,-0.087174,-0.097217,-0.444678,-0.089752,-0.096038,-0.444678,-0.033176,-0.691870,1.162485,1.258831,-1.737248,-9.443825
1790541849.5092,-0.084357,-0.100318,-0.433588,-0.085975,-0.099034,-0.433588,-0.051388,-0.456326,1.110276,3.290214,-2.443668,-8.861658
1790541849.5231,-0.074085,-0.092742,-0.423868,-0.077652,-0.094629,-0.423868,-0.649960,-0.887347,0.804313,2.102047,-0.026969,-10.530539
1790541849.5369,-0.064962,-0.078557,-0.410638,-0.068769,-0.083379,-0.410638,-1.195110,-0.957767,0.755747,5.053301,-1.365448,-11.267951
1790541849.5508,-0.052009,-0.053963,-0.401983,-0.057037,-0.062788,-0.401983,-1.804609,-1.155672,0.359937,3.136902,0.716631,-8.822846
1790541849.5646,-0.043598,-0.028067,-0.389932,-0.047630,-0.038483,-0.389932,-1.950306,-0.929842,0.277375,3.328542,0.158931,-6.144874
1790541849.5788,-0.033666,-0.004982,-0.385523,-0.037855,-0.015032,-0.385523,-1.672268,-0.835139,0.267662,1.258831,0.939711,-8.124245
1790541849.5937,-0.052675,-0.013577,-0.389211,-0.048229,-0.014013,-0.389211,0.423342,1.180337,-0.111150,5.398253,-2.741108,-20.194525
1790541849.6078,-0.036241,-0.020004,-0.347072,-0.039837,-0.018207,-0.347072,0.828865,-0.690656,-0.886987,-5.563550,6.367990,-5.135783
1790541849.6218,-0.055863,-0.021223,-0.361352,-0.051055,-0.020318,-0.361352,0.310426,1.174267,-0.525173,4.478381,3.579491,-5.523895
1790541849.6357,-0.065295,-0.032768,-0.373603,-0.061023,-0.029033,-0.373603,0.809439,0.998216,-0.487535,-1.960720,0.307651,-5.291028
1790541849.6497,-0.044949,-0.050835,-0.381175,-0.049771,-0.044294,-0.381175,1.236817,-1.204238,-0.496034,-3.455511,0.010211,-10.918651
1790541849.6632,-0.035392,-0.067179,-0.389518,-0.039705,-0.060314,-0.389518,1.246530,-0.561957,-0.763145,-0.580912,1.125611,-7.658511
1790541849.6769,-0.027014,-0.068677,-0.388770,-0.030821,-0.066168,-0.388770,0.422127,-0.496393,-0.766787,-0.389272,4.025651,-5.756762
1790541849.6908,-0.016574,-0.072258,-0.399929,-0.020848,-0.070431,-0.399929,0.246077,-0.616593,-0.747361,-1.079176,0.790991,-10.414105
1790541849.7045,0.000275,-0.078197,-0.411146,-0.006062,-0.075867,-0.411146,0.460980,-0.985692,-0.798355,-2.382327,1.274331,-8.046623
1790541849.7183,0.006372,-0.082456,-0.414554,0.002642,-0.080479,-0.414554,0.375990,-0.389548,-0.566454,-0.312616,2.649991,-12.082986
1790541849.7322,-0.013965,-0.076675,-0.427354,-0.008983,-0.077816,-0.427354,-0.433843,1.574934,-0.726720,-0.887536,1.757671,-19.340679
1790541849.7459,-0.015901,-0.059512,-0.444064,-0.013825,-0.065003,-0.444064,-1.214536,0.506488,-0.594379,-5.716862,1.832031,-10.025993
1790541849.7599,-0.019357,-0.048494,-0.473857,-0.017698,-0.053447,-0.473857,-1.000847,0.576909,-0.522745,-3.953775,-1.997508,-8.085434
1790541849.7737,-0.024501,-0.030658,-0.481288,-0.022460,-0.037495,-0.481288,-1.362661,0.743246,-0.335767,-3.800463,0.047391,-6.338930
1790541849.7875,-0.035991,-0.009386,-0.492389,-0.031932,-0.017819,-0.492389,-1.594563,1.015214,-0.338195,-0.772552,0.344831,-4.437182
1790541849.8012,-0.036452,-0.000163,-0.492939,-0.035096,-0.005460,-0.492939,-0.662101,0.298870,-0.283559,-1.500784,0.716631,-4.243126
1790541849.8151,-0.026401,-0.007237,-0.493194,-0.029010,-0.006704,-0.493194,0.435483,-0.864278,0.347795,1.948735,1.088431,-16.002917
1790541849.8291,-0.032437,-0.012470,-0.478845,-0.031409,-0.010740,-0.478845,0.392988,0.183527,0.840737,2.561982,2.501271,-12.044175
1790541849.8436,-0.033742,-0.020513,-0.462342,-0.033042,-0.017581,-0.462342,0.588465,0.068183,0.733892,-1.615768,2.538451,-10.879840
1790541849.8579,-0.043535,-0.036946,-0.455499,-0.040387,-0.031136,-0.455499,1.097190,0.397216,0.724179,3.060246,0.567911,-8.357112
1790541849.8719,-0.054398,-0.056306,-0.439937,-0.050195,-0.048755,-0.439937,1.386156,0.555054,0.945153,1.948735,1.497411,-8.900469
1790541849.8855,-0.076521,-0.066061,-0.409842,-0.068623,-0.060870,-0.409842,0.851934,1.386741,1.117561,1.795423,2.538451,-6.222497
1790541849.8991,-0.084261,-0.070974,-0.390929,-0.079570,-0.067943,-0.390929,0.354136,0.569624,1.202551,-1.539112,2.315371,-10.879840
1790541849.9130,-0.087243,-0.072527,-0.371101,-0.084941,-0.071152,-0.371101,0.089453,0.172599,1.198909,-0.619240,1.906391,-9.521448
1790541849.9269,-0.095853,-0.076395,-0.360158,-0.092579,-0.074822,-0.360158,0.172014,0.551412,1.093278,0.262303,0.605091,-11.073895
1790541849.9408,-0.073271,-0.084653,-0.370269,-0.079063,-0.081703,-0.370269,0.259432,-1.572123,1.044713,-3.148887,-4.600108,-15.032637
1790541849.9547,-0.065957,-0.076897,-0.349566,-0.069889,-0.078339,-0.349566,-0.539473,-0.767147,0.759389,4.746677,2.761531,-13.984735
1790541849.9686,-0.057617,-0.063712,-0.336801,-0.061298,-0.068100,-0.336801,-1.017845,-0.843638,0.821311,3.826806,0.679451,-12.315854
1790541849.9825,-0.050392,-0.049399,-0.330529,-0.053664,-0.055009,-0.330529,-1.178112,-0.837567,0.663472,3.251886,-0.659029,-7.076343
1790541849.9965,-0.048095,-0.031082,-0.327049,-0.049766,-0.038260,-0.327049,-1.464649,-0.464825,0.465567,2.868606,-0.621849,-6.300119
1790541850.0104,-0.039589,-0.014828,-0.324333,-0.042642,-0.021857,-0.324333,-1.300740,-0.814498,0.400003,1.565455,-0.250049,-6.300119
1790541850.0244,-0.028386,-0.000296,-0.317810,-0.032663,-0.006764,-0.317810,-1.093122,-1.082824,0.260377,3.098574,0.605091,-7.348021
1790541850.0384,-0.035983,-0.001166,-0.310046,-0.034987,-0.002845,-0.310046,0.136804,0.331652,0.367222,2.868606,3.058971,-9.599070
1790541850.0525,-0.046375,-0.007653,-0.324116,-0.042959,-0.006211,-0.324116,0.443982,0.829450,-0.801997,2.293686,1.794851,-17.982287
1790541850.0664,-0.026783,-0.020095,-0.326355,-0.031636,-0.015930,-0.326355,1.126330,-1.002690,-1.240303,-3.417183,4.508991,-7.774944
1790541850.0816,-0.049165,-0.027488,-0.326975,-0.043906,-0.024021,-0.326975,0.668598,1.248329,-0.641731,3.481854,2.278191,-3.816203
1790541850.0973,-0.033755,-0.033283,-0.342310,-0.036800,-0.030504,-0.342310,0.339566,-0.663944,-0.747361,-3.110559,0.344831,-7.348021
1790541850.1117,-0.019772,-0.049509,-0.353432,-0.024881,-0.043807,-0.353432,1.099619,-0.833924,-0.791070,-0.772552,0.753811,-11.772497
1790541850.1255,-0.005971,-0.054127,-0.359515,-0.011644,-0.051031,-0.359515,0.559326,-0.889775,-1.070323,0.147319,3.728211,-6.765853
1790541850.1401,0.004889,-0.055489,-0.367333,-0.000071,-0.054152,-0.367333,0.182941,-0.693084,-0.883345,0.415615,2.092291,-6.921098
1790541850.1542,0.013063,-0.063382,-0.378498,0.009123,-0.060613,-0.378498,0.524115,-0.504892,-0.872418,0.108991,0.828171,-9.210958
1790541850.1682,0.024265,-0.071566,-0.389621,0.019722,-0.068280,-0.389621,0.596964,-0.678514,-0.868775,-0.810880,1.311511,-7.930189
1790541850.1824,-0.004551,-0.070184,-0.398314,0.002731,-0.069613,-0.398314,-0.067172,2.003526,-0.685440,2.446998,2.724351,-13.790679
1790541850.1966,-0.021932,-0.057379,-0.406469,-0.014533,-0.061049,-0.406469,-0.896431,1.249543,-0.530029,1.028863,1.794851,-13.751868
1790541850.2107,-0.025303,-0.042404,-0.429711,-0.022072,-0.047997,-0.429711,-1.258245,0.535628,-0.521530,-3.225543,-1.885968,-7.969000
1790541850.2246,-0.031761,-0.034182,-0.447153,-0.028855,-0.038326,-0.447153,-0.938926,0.674040,-0.225280,-2.075704,-3.484708,-6.532986
1790541850.2384,-0.037005,-0.011626,-0.434779,-0.034560,-0.019636,-0.434779,-1.465863,0.817309,-0.203425,-3.532167,1.980751,-3.777392
1790541850.2524,-0.049250,0.000796,-0.451093,-0.044843,-0.005334,-0.451093,-1.049413,1.067422,-0.157288,-1.385800,-0.659029,-6.106063
1790541850.2663,-0.037423,0.000639,-0.458490,-0.039649,-0.001153,-0.458490,-0.210441,-0.714938,0.155961,-5.601878,-3.596248,-19.534735
1790541850.2802,-0.024144,-0.008461,-0.443915,-0.028795,-0.006269,-0.443915,0.644315,-1.107106,0.833452,0.032335,2.315371,-13.053266
1790541850.2943,-0.024278,-0.017575,-0.430627,-0.025633,-0.014183,-0.430627,0.577538,-0.245065,1.274186,1.105519,0.790991,-13.286133
1790541850.3082,-0.023795,-0.032092,-0.422751,-0.024347,-0.026719,-0.422751,0.905356,-0.144292,1.065353,-0.542584,-0.435949,-6.727042
1790541850.3221,-0.032789,-0.043443,-0.409266,-0.030256,-0.038426,-0.409266,0.842221,0.440925,0.891731,1.297159,1.571771,-7.969000
1790541850.3361,-0.050117,-0.054249,-0.395025,-0.044159,-0.049502,-0.395025,0.807010,1.026141,0.930583,2.332014,2.278191,-10.802217
1790541850.3499,-0.068452,-0.060140,-0.375806,-0.061164,-0.056949,-0.375806,0.486477,1.220404,1.038642,0.415615,2.464091,-8.978091
1790541850.3639,-0.082590,-0.064595,-0.357495,-0.076162,-0.062301,-0.357495,0.328639,0.920511,1.085994,0.338959,2.352551,-10.724595
1790541850.4176,-0.030370,-0.043695,-0.321097,-0.044108,-0.049277,-0.321097,-0.435057,-1.088894,0.608836,2.523654,0.419191,-11.694875
1790541850.4320,-0.020802,-0.035010,-0.315310,-0.027794,-0.039290,-0.315310,-0.764089,-0.955339,0.702325,3.366870,-1.216729,-10.879840
1790541850.4462,-0.010911,-0.023381,-0.309808,-0.015976,-0.028154,-0.309808,-0.920714,-0.965052,0.508062,1.910407,-0.026969,-6.882287
1790541850.4602,-0.006613,-0.012129,-0.306633,-0.009422,-0.016937,-0.306633,-0.976564,-0.600809,0.361151,3.060246,-1.068009,-8.589979
1790541850.4743,-0.000931,-0.001569,-0.304553,-0.003479,-0.006179,-0.304553,-0.844223,-0.685799,0.211811,3.328542,0.196111,-9.327392
1790541850.4886,0.007467,0.009420,-0.303491,0.004183,0.004741,-0.303491,-0.793229,-0.846066,0.067328,3.788478,1.460231,-10.646972
1790541850.5028,0.007507,0.016550,-0.307879,0.006510,0.013007,-0.307879,-0.505477,-0.183144,-0.200997,2.983590,1.757671,-9.210958
1790541850.5168,0.001483,0.010281,-0.319583,0.002991,0.011099,-0.319583,0.339566,0.460351,-0.763145,2.293686,0.642271,-13.713056
1790541850.5310,0.004418,-0.004982,-0.328427,0.003990,-0.000158,-0.328427,1.027984,0.304941,-1.564479,-4.260399,1.497411,-10.841028
1790541850.5450,0.015542,-0.028374,-0.325560,0.012076,-0.019909,-0.325560,1.745542,-0.192857,-1.439422,-4.107087,1.943571,-5.368651
1790541850.5590,0.012324,-0.040182,-0.337100,0.012249,-0.034100,-0.337100,0.921140,0.351078,-0.854205,-0.197632,2.166651,-7.192776
1790541850.5726,0.025166,-0.051931,-0.343199,0.021291,-0.046582,-0.343199,0.837364,-0.661516,-0.840850,-3.915447,1.460231,-12.238231
1790541850.5862,0.040633,-0.067889,-0.352714,0.034830,-0.061497,-0.352714,1.133615,-0.881276,-1.033898,-3.915447,1.720491,-14.450469
1790541850.5999,0.056219,-0.078082,-0.363424,0.049802,-0.073106,-0.363424,0.712307,-0.871563,-1.160169,-2.497311,1.125611,-7.774944
1790541850.6139,0.056699,-0.081973,-0.367159,0.054630,-0.079313,-0.367159,0.447624,-0.021663,-0.585880,-0.044320,3.393591,-7.658511
1790541850.6279,0.041622,-0.089938,-0.392872,0.045524,-0.086751,-0.392872,0.229079,1.043139,-0.761931,1.335487,-4.414208,-11.850119
1790541850.6420,0.032836,-0.083446,-0.403564,0.036642,-0.084437,-0.403564,-0.665744,0.840378,-0.667228,-3.762135,-2.257768,-12.587532
1790541850.6561,0.026252,-0.073509,-0.416039,0.029369,-0.076787,-0.416039,-0.981421,0.691038,-0.630803,-3.417183,-3.447528,-10.879840
1790541850.6702,0.018402,-0.062950,-0.426238,0.021692,-0.067101,-0.426238,-1.005704,0.768743,-0.526387,-2.305671,-2.220588,-8.240679
1790541850.6840,0.008355,-0.042559,-0.417160,0.012356,-0.049922,-0.417160,-1.512001,1.041925,-0.268989,-2.229015,0.344831,-4.747672
1790541850.6980,0.003993,-0.022026,-0.419656,0.006502,-0.030395,-0.419656,-1.656484,0.584194,-0.120864,-2.190688,-0.807749,-4.980539
1790541850.7119,-0.003499,-0.009586,-0.428233,-0.000499,-0.015829,-0.428233,-1.009346,0.587836,-0.091724,-0.657568,-0.026969,-10.569350
1790541850.7258,0.009781,-0.022317,-0.431759,0.006697,-0.020370,-0.431759,0.961207,-1.229735,0.392719,4.056774,3.207691,-15.226693
1790541850.7399,0.009602,-0.026974,-0.423673,0.008730,-0.024993,-0.423673,0.442768,-0.355552,1.094493,3.251886,3.170511,-10.724595
1790541850.7542,0.003131,-0.034796,-0.419991,0.004811,-0.031855,-0.419991,0.561754,0.057256,1.207408,3.635166,1.311511,-10.724595
1790541850.7680,0.000436,-0.044068,-0.408185,0.001749,-0.040404,-0.408185,0.731734,0.104607,0.698682,-0.159304,1.683311,-7.969000
1790541850.7822,-0.014709,-0.053918,-0.408970,-0.009772,-0.049864,-0.408970,0.726877,0.766315,0.698682,3.980118,1.794851,-10.918651
1790541850.7963,-0.033025,-0.064566,-0.403123,-0.026049,-0.060155,-0.403123,0.799726,1.111131,0.792171,2.217030,2.352551,-12.277042
1790541850.8098,-0.048402,-0.071828,-0.382510,-0.041696,-0.068326,-0.382510,0.729305,1.023713,0.993719,0.453943,3.505131,-7.697322
1790541850.8236,-0.055711,-0.073951,-0.362050,-0.051506,-0.072264,-0.362050,0.283715,0.470064,0.998575,-0.120976,3.021791,-8.318301
1790541850.8377,-0.060424,-0.079162,-0.344971,-0.057749,-0.077092,-0.344971,0.368705,0.253947,1.092064,0.070663,1.534591,-9.405014
1790541850.8516,-0.049377,-0.080691,-0.328370,-0.051889,-0.079612,-0.328370,0.023889,-0.906773,1.173412,0.415615,0.567911,-15.459560
1790541850.8655,-0.042601,-0.072965,-0.316334,-0.045387,-0.074959,-0.316334,-0.605037,-0.682157,1.026501,2.140375,0.939711,-12.665154
1790541850.8793,-0.038542,-0.065283,-0.308024,-0.040595,-0.068186,-0.308024,-0.732522,-0.649375,1.011931,4.363398,-1.514168,-10.142427
1790541850.8931,-0.022461,-0.053797,-0.299602,-0.027901,-0.058114,-0.299602,-0.942568,-1.403357,0.777602,1.718767,-0.250049,-7.813756
1790541850.9069,-0.020301,-0.043218,-0.292621,-0.022581,-0.047686,-0.292621,-0.960780,-0.524318,0.602765,3.558510,-1.439808,-7.115154
1790541850.9209,-0.016293,-0.026933,-0.291203,-0.018180,-0.033159,-0.291203,-1.139259,-0.537674,0.503205,2.485326,1.683311,-8.784035
1790541850.9347,-0.005578,-0.010317,-0.290155,-0.009358,-0.017170,-0.290155,-1.202395,-1.005118,0.310157,2.561982,1.608951,-10.025993
1790541850.9485,-0.004641,0.003110,-0.296270,-0.006056,-0.002974,-0.296270,-0.930427,-0.268134,-0.084439,3.405198,2.426911,-10.103616
1790541850.9627,-0.017938,-0.006601,-0.302632,-0.014373,-0.005513,-0.302632,0.525330,0.886515,-0.729149,3.443526,-0.919289,-10.569350
1790541850.9767,-0.006539,-0.012616,-0.268678,-0.008889,-0.010485,-0.268678,0.571467,-0.092084,-1.502557,-5.601878,2.687171,-4.786483
1790541850.9910,-0.000161,-0.022206,-0.281990,-0.002779,-0.018690,-0.281990,1.034055,0.054828,-0.971977,-2.765607,3.244871,-2.302567
1790541851.0054,-0.006035,-0.037926,-0.285381,-0.005059,-0.032155,-0.285381,1.024342,0.647329,-0.445040,-2.765607,0.344831,-9.482637
1790541851.0194,0.006717,-0.046753,-0.290207,0.003185,-0.042374,-0.290207,0.644315,-0.665159,-0.724292,-3.072231,1.869211,-11.112707
1790541851.0331,0.009518,-0.060555,-0.306981,0.007618,-0.055100,-0.306981,0.929639,-0.174645,-0.981690,1.450471,0.419191,-13.402567
1790541851.0467,0.020790,-0.063322,-0.320469,0.016838,-0.060856,-0.320469,0.328639,-0.724652,-1.067894,-0.159304,2.910251,-7.930189
1790541851.0603,0.027431,-0.066338,-0.336613,0.024253,-0.064693,-0.336613,0.180513,-0.500035,-0.998688,0.952207,0.716631,-6.843476
1790541851.0743,0.033626,-0.073581,-0.348980,0.030814,-0.070914,-0.348980,0.503475,-0.366480,-0.899129,-0.235960,1.274331,-8.978091
1790541851.0882,0.031536,-0.077451,-0.359099,0.031319,-0.075490,-0.359099,0.269146,0.127676,-0.571310,1.143847,1.906391,-14.799770
1790541851.1022,0.005863,-0.066010,-0.368810,0.013500,-0.068854,-0.368810,-0.800514,1.798336,-0.346694,2.178703,3.133331,-18.253966
1790541851.1162,0.002113,-0.051109,-0.371303,0.005529,-0.056432,-0.371303,-1.127118,0.556268,-0.423185,-6.100142,0.307651,-14.372847
1790541851.1301,-0.007104,-0.039523,-0.375177,-0.003314,-0.044596,-0.375177,-1.031201,0.884087,-0.279916,-1.922392,-1.179549,-6.455364
1790541851.1440,-0.009976,-0.029110,-0.376328,-0.007977,-0.033756,-0.376328,-0.987492,0.522272,-0.123292,-2.612295,-1.439808,-4.747672
1790541851.1580,-0.021587,-0.016157,-0.383253,-0.017504,-0.021437,-0.383253,-0.884289,0.629117,0.177815,1.565455,1.199971,-5.019350
1790541851.1718,-0.017519,-0.021158,-0.376612,-0.017514,-0.021242,-0.376612,0.214509,-0.238995,0.329583,-3.302199,-1.551348,-19.185434
1790541851.1857,-0.007947,-0.029477,-0.366324,-0.010817,-0.027006,-0.366324,0.588465,-0.960195,1.014359,2.523654,1.906391,-15.498371
1790541851.1996,-0.008782,-0.035377,-0.354588,-0.009392,-0.032866,-0.354588,0.474336,-0.328841,1.401671,3.481854,2.352551,-11.617252
1790541851.2134,-0.008970,-0.041182,-0.337187,-0.009097,-0.038687,-0.337187,0.434269,-0.156433,1.245046,-0.044320,0.790991,-5.562707
1790541851.2272,-0.018056,-0.051598,-0.319344,-0.015368,-0.047725,-0.319344,0.780299,0.684967,0.895373,-1.424128,1.088431,-6.494175
1790541851.2412,-0.037437,-0.060352,-0.314289,-0.030817,-0.056564,-0.314289,0.654029,1.225261,0.741177,1.527127,1.571771,-9.405014
1790541851.2555,-0.051373,-0.067988,-0.304989,-0.045206,-0.064561,-0.304989,0.573895,0.891372,0.726608,0.530599,2.129471,-10.491728
1790541851.2693,-0.063494,-0.074196,-0.295072,-0.058008,-0.071306,-0.295072,0.499833,0.754173,0.837095,1.220503,2.464091,-10.569350
1790541851.2830,-0.063456,-0.080448,-0.281161,-0.061822,-0.077705,-0.281161,0.481620,-0.081156,0.929369,0.338959,2.352551,-11.384385
1790541851.2968,-0.058919,-0.083417,-0.269151,-0.059790,-0.081703,-0.269151,0.178085,-0.435686,0.877161,0.875551,1.051251,-10.608161
1790541851.3107,-0.053849,-0.086716,-0.259352,-0.055631,-0.085212,-0.259352,0.123449,-0.457540,0.761818,0.798895,-0.473129,-11.151518
1790541851.3246,-0.046749,-0.091681,-0.247882,-0.049413,-0.089740,-0.247882,0.163515,-0.643304,0.952438,1.143847,-1.923148,-10.918651
1790541851.3384,-0.038577,-0.091977,-0.240266,-0.041828,-0.091306,-0.240266,-0.155804,-0.781716,0.834666,2.370342,-1.923148,-11.345574
1790541851.3522,-0.035340,-0.087901,-0.237553,-0.037286,-0.088923,-0.237553,-0.487265,-0.481823,0.628262,3.060246,-1.997508,-8.978091
1790541851.3662,-0.034356,-0.076052,-0.240051,-0.035235,-0.079914,-0.240051,-0.965637,-0.394405,0.452211,4.478381,-0.844929,-8.784035
1790541851.3800,-0.029763,-0.058741,-0.240145,-0.031404,-0.065093,-0.240145,-1.379659,-0.619021,0.324727,3.443526,-0.770569,-7.891378
1790541851.3938,-0.019814,-0.036708,-0.241315,-0.023291,-0.045223,-0.241315,-1.663769,-0.946840,0.214240,2.332014,0.121751,-7.309210
1790541851.4077,-0.007579,-0.012608,-0.236992,-0.012293,-0.022393,-0.236992,-1.862888,-1.113177,0.204526,2.293686,-0.435949,-7.464455
1790541851.4217,-0.005869,0.003217,-0.237363,-0.007796,-0.004466,-0.237363,-1.215750,-0.311843,0.137749,2.868606,0.307651,-11.267951
1790541851.4358,-0.019129,-0.013476,-0.236423,-0.015729,-0.010773,-0.236423,1.021914,1.007929,-0.494819,1.603783,-2.109048,-21.281238
1790541851.4498,0.002819,-0.019606,-0.220219,-0.002745,-0.016956,-0.220219,0.723235,-1.137460,-0.860276,-6.483422,7.966730,-8.745224
1790541851.4636,-0.011781,-0.027568,-0.235215,-0.009070,-0.024385,-0.235215,0.543542,0.931438,-0.253205,2.753622,0.902531,-9.987182
1790541851.4775,-0.013921,-0.037581,-0.225009,-0.012466,-0.033622,-0.225009,0.662528,0.432426,-0.506961,-2.343999,0.419191,-7.309210
1790541851.4919,-0.001387,-0.052257,-0.227710,-0.004710,-0.046666,-0.227710,0.895643,-0.889775,-0.374619,1.028863,-0.956469,-11.850119
1790541851.5061,0.007596,-0.065464,-0.234647,0.003904,-0.059825,-0.234647,0.945423,-0.535245,-0.610163,-0.619240,1.385871,-8.784035
1790541851.5198,0.017911,-0.063690,-0.251270,0.013709,-0.062530,-0.251270,0.101594,-0.650589,-0.656300,-0.772552,3.876931,-6.998721
1790541851.5339,0.024866,-0.066119,-0.260417,0.021519,-0.065043,-0.260417,0.147731,-0.467253,-0.582238,0.108991,0.976891,-9.870749
1790541851.5478,0.032772,-0.070641,-0.266285,0.029396,-0.068962,-0.266285,0.301927,-0.498821,-0.543385,-0.657568,0.939711,-9.133336
1790541851.5617,0.029282,-0.067803,-0.272159,0.029316,-0.068151,-0.272159,-0.055030,0.403286,-0.374619,-2.114032,3.505131,-8.628791
1790541851.5756,0.008054,-0.055739,-0.274442,0.014432,-0.059463,-0.274442,-0.874576,1.633212,-0.225280,-2.612295,2.501271,-18.913756
1790541851.5895,0.005339,-0.036892,-0.261743,0.008067,-0.043663,-0.261743,-1.422154,0.538056,-0.306627,-6.828373,0.344831,-12.315854
1790541851.6034,0.001490,-0.029042,-0.252599,0.003463,-0.033428,-0.252599,-0.799299,0.542913,-0.142718,-3.685479,-2.294948,-8.512357
