t,imu_roll,imu_pitch,imu_yaw,lpf_roll,lpf_pitch,lpf_yaw,gyro_x,gyro_y,gyro_z,acc_x,acc_y,acc_z
1790538909.2676,-0.007042,-0.053001,-0.009220,-0.004929,-0.037101,-0.009220,0.009057,0.000239,-0.003719,0.070663,1.274331,-10.181238
1790538909.2832,-0.003622,-0.051666,-0.008280,-0.004014,-0.047297,-0.008280,-0.001870,0.001453,0.005994,-0.005993,1.274331,-9.831937
1790538909.2971,-0.007291,-0.051462,-0.009124,-0.006308,-0.050212,-0.009124,-0.017654,-0.003404,0.005994,0.147319,1.311511,-10.220049
1790538909.3106,-0.010152,-0.052308,-0.009646,-0.008999,-0.051680,-0.009646,-0.024938,-0.004618,0.004780,0.185647,1.237151,-9.987182
1790538909.3247,-0.015581,-0.051772,-0.011334,-0.013606,-0.051744,-0.011334,-0.041936,0.009952,-0.008575,0.377287,1.311511,-10.258860
1790538909.3386,-0.013144,-0.050539,-0.010657,-0.013283,-0.050901,-0.010657,-0.102644,0.013594,-0.012218,-0.005993,1.311511,-10.220049
1790538909.3527,-0.014208,-0.052115,-0.009371,-0.013931,-0.051751,-0.009371,-0.199775,0.026950,0.007208,0.185647,1.051251,-10.414105
1790538909.3671,-0.013556,-0.053775,-0.006242,-0.013669,-0.053168,-0.006242,-0.224058,-0.030115,0.073986,0.108991,0.939711,-10.297672
1790538909.3813,-0.017891,-0.051715,-0.007111,-0.016624,-0.052151,-0.007111,-0.307834,-0.011903,0.162619,0.492271,1.051251,-9.599070
1790538909.3952,-0.026148,-0.050609,-0.008568,-0.023291,-0.051072,-0.008568,-0.306619,0.076730,0.288889,0.837223,0.976891,-9.715504
1790538909.4092,-0.026709,-0.048708,-0.002616,-0.025684,-0.049417,-0.002616,-0.207060,-0.083537,0.433372,0.338959,1.162791,-9.482637
1790538909.4232,-0.027939,-0.048378,0.006151,-0.027262,-0.048690,0.006151,-0.181563,-0.068968,0.551144,0.377287,1.014071,-9.288581
1790538909.4371,-0.031410,-0.050068,0.015390,-0.030166,-0.049655,0.015390,-0.249555,-0.083537,0.566928,0.683911,0.642271,-9.210958
1790538909.4510,-0.015918,-0.043619,0.048525,-0.020192,-0.045430,0.048525,-0.327260,-0.258374,0.513506,-1.385800,1.497411,-9.055714
1790538909.4650,-0.012194,-0.039210,0.057822,-0.014593,-0.041076,0.057822,-0.214345,-0.160028,0.362952,-0.197632,1.683311,-10.375294
1790538909.4788,-0.012636,-0.042346,0.057641,-0.013224,-0.041965,0.057641,-0.040722,-0.220735,0.379950,0.645583,1.014071,-12.315854
1790538909.4927,-0.012223,-0.043748,0.062267,-0.012523,-0.043213,0.062267,-0.010369,-0.134531,0.404233,0.223975,1.125611,-10.025993
1790538909.5066,-0.013073,-0.042636,0.067004,-0.012908,-0.042809,0.067004,-0.103858,0.008738,0.350811,0.147319,1.423051,-10.724595
1790538909.5201,-0.008959,-0.035680,0.078057,-0.010144,-0.037819,0.078057,-0.243484,-0.054398,0.234253,-0.542584,1.906391,-8.939280
1790538909.5337,-0.006514,-0.027823,0.080511,-0.007603,-0.030821,0.080511,-0.307834,-0.247446,0.179617,0.147319,2.055111,-9.133336
1790538909.5476,-0.004406,-0.021780,0.079801,-0.005365,-0.024492,0.079801,-0.289621,-0.343364,0.115267,0.492271,1.906391,-9.521448
1790538909.5613,-0.003673,-0.013376,0.075572,-0.004181,-0.016711,0.075572,-0.344258,-0.452636,0.126194,1.067191,2.315371,-9.366203
1790538909.5753,-0.001412,-0.004366,0.073951,-0.002243,-0.008070,0.073951,-0.465672,-0.442923,0.115267,0.798895,2.315371,-9.909560
1790538909.5891,-0.006256,0.000322,0.065693,-0.005052,-0.002196,0.065693,-0.038294,0.173861,-0.025573,0.645583,2.724351,-9.715504
1790538909.6030,-0.013620,-0.005243,0.046464,-0.011050,-0.004328,0.046464,0.644054,0.878063,-0.349749,-1.002520,3.244871,-12.587532
1790538909.6175,-0.001419,0.000952,0.004776,-0.004309,-0.000632,0.004776,0.648910,0.461613,-0.652071,-3.877119,4.917971,-6.921098
1790538909.6315,0.005207,0.011963,0.063965,0.002352,0.008184,0.063965,0.725401,0.524748,-0.837835,-2.037376,3.839751,-3.855014
1790538909.6454,-0.003190,0.018778,0.098298,-0.001528,0.015600,0.098298,0.713260,0.727510,-0.699422,-0.159304,3.430771,-4.553616
1790538909.6595,0.014776,0.017767,0.012968,0.009885,0.017117,0.012968,0.279811,-0.529127,-0.919182,-2.152360,3.653851,-11.462007
1790538909.6733,0.020186,0.015329,-0.024009,0.017096,0.015865,-0.024009,-0.179135,-0.140602,-1.450976,0.108991,1.237151,-17.244875
1790538909.6873,0.020114,0.013222,-0.061684,0.019209,0.014015,-0.061684,-0.050435,0.342627,-1.569962,-0.235960,1.460231,-11.151518
1790538909.7013,0.018637,0.021380,-0.052823,0.018809,0.019171,-0.052823,-0.270195,0.360839,-1.288281,-0.235960,1.906391,-5.523895
1790538909.7151,0.004275,0.019288,-0.038484,0.008635,0.019253,-0.038484,-0.048007,0.916916,-1.185079,1.373815,1.088431,-10.142427
1790538909.7290,0.002146,0.017590,-0.099184,0.004093,0.018089,-0.099184,-0.046793,0.672873,-1.282211,-0.887536,1.423051,-10.025993
1790538909.7426,-0.004723,0.020666,-0.113282,-0.002078,0.019893,-0.113282,-0.300549,0.681372,-1.342918,0.568927,1.980751,-11.966553
1790538909.7561,-0.013541,0.024674,-0.130424,-0.010102,0.023240,-0.130424,-0.370969,0.839211,-1.216647,0.453943,1.608951,-9.754315
1790538909.7697,-0.024843,0.032564,-0.123165,-0.020421,0.029767,-0.123165,-0.538521,0.850138,-0.960463,0.798895,1.608951,-7.386832
1790538909.7836,-0.025355,0.033650,-0.181324,-0.023875,0.032485,-0.181324,-0.327260,0.460398,-0.728562,-0.772552,0.976891,-9.793126
1790538909.7975,-0.026599,0.037846,-0.196131,-0.025782,0.036238,-0.196131,-0.282337,0.286776,-0.479663,-0.159304,2.315371,-10.181238
1790538909.8115,-0.023011,0.039340,-0.198915,-0.023842,0.038409,-0.198915,-0.141496,-0.238947,-0.347321,0.683911,2.724351,-13.713056
1790538909.8254,-0.015770,0.026254,-0.189374,-0.018191,0.029900,-0.189374,0.771539,-0.757386,0.167475,1.718767,1.757671,-15.149070
1790538909.8393,-0.027695,0.015316,-0.013052,-0.024844,0.019691,-0.013052,1.136996,-0.457493,0.764833,4.899989,2.910251,-6.649420
1790538909.8536,-0.021788,-0.000265,0.017602,-0.022705,0.005722,0.017602,1.252339,-0.878800,0.823112,1.220503,1.869211,-6.338930
1790538909.8685,-0.017125,-0.009737,0.004372,-0.018799,-0.005099,0.004372,1.048363,-0.965004,0.733265,1.910407,2.203831,-4.592427
1790538909.8832,-0.010144,-0.018188,-0.019886,-0.012741,-0.014261,-0.019886,1.149137,-0.897012,0.755120,1.450471,3.207691,-5.562707
1790538909.8977,-0.033373,-0.019739,0.029374,-0.027183,-0.018096,0.029374,0.083120,1.111179,1.018589,3.366870,2.649991,-15.420749
1790538909.9118,-0.027874,-0.020771,-0.053705,-0.027667,-0.019969,-0.053705,-0.188848,0.068231,1.277201,-4.528694,-0.138509,-14.566903
1790538909.9262,-0.013155,-0.022189,-0.106573,-0.017509,-0.021523,-0.106573,-0.228914,-0.581335,1.201924,-3.685479,-0.473129,-10.025993
1790538909.9404,-0.017799,-0.028506,-0.073907,-0.017712,-0.026411,-0.073907,-0.241056,0.284348,0.910530,-0.465928,-2.369308,-7.658511
1790538909.9545,-0.018253,-0.032515,-0.080464,-0.018091,-0.030684,-0.080464,-0.049221,0.217570,0.673772,-1.462456,-0.584669,-8.939280
1790538909.9684,-0.014124,-0.038239,-0.083252,-0.015314,-0.035973,-0.083252,0.169324,-0.167313,0.600924,-1.232488,-0.101329,-9.715504
1790538909.9820,-0.014660,-0.038071,-0.084105,-0.014856,-0.037442,-0.084105,-0.142710,0.093728,0.479510,-0.695896,0.679451,-10.996273
1790538909.9956,-0.012136,-0.036392,-0.086093,-0.012952,-0.036707,-0.086093,-0.214345,-0.047113,0.393306,-1.155832,0.865351,-9.870749
1790538910.0097,-0.010006,-0.035663,-0.086455,-0.010890,-0.035976,-0.086455,-0.123284,-0.132103,0.267035,-0.274288,0.865351,-8.861658
1790538910.0239,-0.007259,-0.031907,-0.082847,-0.008348,-0.033127,-0.082847,-0.231343,-0.183097,0.202685,-0.197632,1.460231,-8.395923
1790538910.0379,-0.010645,-0.025168,-0.058017,-0.009956,-0.027556,-0.058017,-0.277480,0.034235,0.231825,1.143847,2.612811,-8.551168
1790538910.0519,-0.004860,-0.019997,-0.046890,-0.006389,-0.022265,-0.046890,-0.221629,-0.470849,0.145621,0.223975,2.649991,-9.715504
1790538910.0659,0.000613,-0.015273,-0.030615,-0.001488,-0.017371,-0.030615,-0.196133,-0.549768,0.009637,1.220503,3.096151,-11.345574
1790538910.0799,0.005646,-0.007986,-0.013858,0.003506,-0.010802,-0.013858,-0.449888,-0.571622,-0.196768,1.910407,2.575631,-11.306763
1790538910.0938,0.002992,-0.011516,-0.007102,0.003146,-0.011301,-0.007102,0.114688,0.050018,-0.444452,1.987063,0.790991,-12.626343
1790538910.1078,-0.000495,-0.012208,-0.015948,0.000597,-0.011936,-0.015948,0.288310,0.349912,-0.625360,0.032335,2.649991,-7.153965
1790538910.1220,0.000255,-0.014129,-0.031947,0.000358,-0.013471,-0.031947,0.137757,0.139865,-0.971390,-0.235960,1.646131,-9.754315
1790538910.1359,0.005432,-0.018116,-0.051569,0.003909,-0.016723,-0.051569,0.132900,-0.141816,-1.284639,-0.274288,0.493551,-11.656063
1790538910.1497,-0.000169,-0.021440,-0.043974,0.001055,-0.020024,-0.043974,0.185108,0.201786,-1.029669,3.098574,1.237151,-10.375294
1790538910.1634,0.006491,-0.020524,-0.068619,0.004860,-0.020374,-0.068619,-0.045579,-0.151529,-1.074592,-1.270816,1.646131,-9.172147
1790538910.1772,0.012708,-0.023642,-0.096259,0.010353,-0.022662,-0.096259,0.182680,-0.075038,-1.244572,-1.577440,1.274331,-9.831937
1790538910.1914,0.016070,-0.032591,-0.116733,0.014355,-0.029612,-0.116733,0.550565,-0.010689,-1.291924,-0.427600,0.976891,-10.142427
1790538910.2061,0.019833,-0.030951,-0.120383,0.018189,-0.030549,-0.120383,-0.016439,-0.285085,-1.174152,1.067191,1.757671,-6.765853
1790538910.2205,0.017424,-0.033024,-0.121311,0.017654,-0.032282,-0.121311,0.113474,0.077944,-1.007814,2.102047,1.534591,-10.996273
1790538910.2347,0.020799,-0.036063,-0.136075,0.019855,-0.034929,-0.136075,0.181466,-0.058040,-0.774699,-0.772552,1.237151,-9.637881
1790538910.2493,0.022609,-0.037563,-0.143376,0.021783,-0.036773,-0.143376,0.125615,-0.072610,-0.650857,0.108991,1.608951,-9.094525
1790538910.2634,0.017600,-0.032526,-0.152139,0.018855,-0.033800,-0.152139,-0.089288,0.329271,-0.608362,0.798895,3.653851,-8.589979
1790538910.2774,0.005895,-0.026156,-0.166813,0.009783,-0.028449,-0.166813,-0.394038,0.971552,-0.626574,-0.465928,2.761531,-12.703965
1790538910.2916,-0.006440,-0.017982,-0.180489,-0.001573,-0.021122,-0.180489,-0.681789,1.031045,-0.479663,-0.734224,0.828171,-12.781588
1790538910.3056,-0.009180,-0.012306,-0.207420,-0.006898,-0.014951,-0.207420,-0.642937,0.541746,-0.244119,-2.880591,-0.659029,-10.918651
1790538910.3194,0.001239,-0.018344,-0.206595,-0.001202,-0.017326,-0.206595,0.210605,-0.761029,0.069130,-0.159304,-0.510309,-10.918651
1790538910.3332,-0.008258,-0.022368,-0.168160,-0.006141,-0.020855,-0.168160,0.518997,0.131366,0.717481,3.251886,2.798711,-6.765853
1790538910.3469,-0.014670,-0.034968,-0.157292,-0.012111,-0.030734,-0.157292,0.704761,0.387550,0.920243,-0.389272,-0.473129,-10.414105
1790538910.3609,-0.020947,-0.043897,-0.136182,-0.018296,-0.039948,-0.136182,0.606415,0.183574,1.265060,0.952207,1.125611,-8.939280
1790538910.3752,-0.012969,-0.051013,-0.134611,-0.014567,-0.047694,-0.134611,0.503213,-0.452636,1.014946,-2.075704,1.385871,-9.016902
1790538910.3894,-0.020762,-0.058886,-0.113425,-0.018904,-0.055528,-0.113425,0.391512,0.273421,1.012518,1.527127,-0.250049,-9.016902
1790538910.4033,-0.030636,-0.069390,-0.098524,-0.027116,-0.065232,-0.098524,0.627056,0.559958,0.915387,0.913879,0.047391,-11.811308
1790538910.4171,-0.042286,-0.078971,-0.080911,-0.037735,-0.074849,-0.080911,0.610058,0.610952,1.082938,1.642111,0.567911,-10.258860
1790538910.4325,-0.051152,-0.086057,-0.075654,-0.047127,-0.082695,-0.075654,0.458290,0.657089,0.813399,-1.155832,1.237151,-9.676693
1790538910.4465,-0.052492,-0.087918,-0.073290,-0.050883,-0.086351,-0.073290,0.187536,0.195715,0.655560,-1.040848,1.720491,-9.443825
1790538910.4603,-0.050566,-0.093332,-0.063099,-0.050661,-0.091237,-0.063099,0.308951,-0.228020,0.626421,1.067191,0.456371,-13.053266
1790538910.4744,-0.046785,-0.092990,-0.054202,-0.047948,-0.092464,-0.054202,-0.095359,-0.354291,0.492865,1.143847,0.493551,-12.781588
1790538910.4883,-0.047148,-0.093929,-0.040519,-0.047388,-0.093489,-0.040519,-0.132997,-0.263230,0.508649,3.481854,-1.179549,-11.229140
1790538910.5023,-0.043981,-0.092058,-0.027698,-0.045003,-0.092488,-0.027698,-0.367327,-0.604404,0.565714,2.485326,-0.882109,-6.028441
1790538910.5160,-0.044243,-0.083817,-0.021279,-0.044471,-0.086418,-0.021279,-0.748567,-0.359147,0.484366,3.405198,-0.398769,-8.201867
1790538910.5300,-0.040296,-0.069629,-0.010714,-0.041548,-0.074666,-0.010714,-1.194157,-0.563123,0.365380,2.791950,-0.584669,-9.172147
1790538910.5439,-0.033474,-0.054361,-0.006157,-0.035897,-0.060452,-0.006157,-1.241509,-0.716105,0.020564,2.830278,-0.287229,-10.336483
1790538910.5578,-0.024625,-0.036555,-0.012815,-0.028006,-0.043724,-0.012815,-1.364137,-0.926152,-0.088709,3.021918,0.344831,-8.512357
1790538910.5718,-0.017379,-0.018164,-0.025442,-0.020568,-0.025832,-0.025442,-1.395705,-0.935865,-0.055927,2.600310,0.233291,-5.019350
1790538910.5857,-0.013474,-0.004948,-0.025787,-0.015602,-0.011213,-0.025787,-0.969541,-0.304511,-0.139703,0.645583,1.683311,-10.802217
1790538910.5996,-0.031181,-0.020501,-0.016063,-0.026508,-0.017715,-0.016063,0.970658,1.358864,-0.531871,1.105519,0.196111,-20.310959
1790538910.6136,-0.021257,-0.026554,-0.044374,-0.022832,-0.023902,-0.044374,0.597916,-0.251089,-1.348988,-2.957247,3.058971,-10.297672
1790538910.6278,-0.027176,-0.022116,-0.117450,-0.025873,-0.022652,-0.117450,-0.040722,0.000239,-0.774699,4.056774,2.129471,-4.747672
1790538910.6417,-0.024615,-0.028823,-0.130757,-0.024992,-0.026972,-0.130757,0.562706,0.024521,-0.550083,-0.887536,1.646131,-7.464455
1790538910.6557,-0.012508,-0.041929,-0.142392,-0.016253,-0.037442,-0.142392,1.052006,-0.550982,-0.630216,-2.497311,2.464091,-9.443825
1790538910.6693,0.003133,-0.048868,-0.173142,-0.002683,-0.045440,-0.173142,0.822533,-0.880014,-0.792911,-1.615768,3.691031,-7.425644
1790538910.6829,0.005667,-0.050787,-0.184614,0.003162,-0.049183,-0.184614,0.423080,-0.303297,-0.699422,2.102047,4.100011,-8.357112
1790538910.6968,0.012089,-0.057558,-0.194022,0.009411,-0.055045,-0.194022,0.466789,-0.357933,-0.832978,-0.159304,1.051251,-9.637881
1790538910.7106,0.018979,-0.064862,-0.208742,0.016108,-0.061917,-0.208742,0.549351,-0.410141,-0.862117,-0.044320,1.460231,-9.560259
1790538910.7244,0.007152,-0.065160,-0.235940,0.009839,-0.064187,-0.235940,0.210605,0.955768,-0.690923,-0.159304,3.988471,-11.772497
1790538910.7382,-0.006576,-0.051640,-0.247762,-0.001651,-0.055404,-0.247762,-0.965899,1.074754,-0.639929,0.185647,2.203831,-15.343126
1790538910.7521,-0.002314,-0.037208,-0.195583,-0.002115,-0.042667,-0.195583,-1.267006,0.143507,-0.467521,-5.065286,-1.068009,-9.366203
1790538910.7660,-0.007563,-0.021839,-0.194432,-0.005929,-0.028087,-0.194432,-1.216012,0.749364,-0.451737,-1.845736,0.121751,-5.058161
1790538910.7798,-0.016823,-0.010160,-0.201796,-0.013555,-0.015538,-0.201796,-0.850555,0.813714,-0.319396,-0.350944,0.642271,-4.204315
1790538910.7937,-0.012271,-0.008316,-0.212295,-0.012656,-0.010483,-0.212295,-0.065005,-0.149101,-0.292685,-1.577440,2.649991,-10.646972
1790538910.8076,-0.011910,-0.015422,-0.197071,-0.012134,-0.013940,-0.197071,0.447363,-0.208594,0.430944,1.565455,1.088431,-11.229140
1790538910.8216,-0.021903,-0.021445,-0.177709,-0.018972,-0.019194,-0.177709,0.333233,0.538104,0.997948,0.607255,0.753811,-12.432287
1790538910.8355,-0.025209,-0.026013,-0.155356,-0.023338,-0.023968,-0.155356,0.318664,-0.115105,1.409542,1.565455,1.497411,-8.163056
1790538910.8493,-0.014130,-0.036381,-0.143182,-0.016892,-0.032657,-0.143182,0.746042,-0.740388,1.091437,-2.305671,1.385871,-8.279490
1790538910.8637,-0.031630,-0.037221,-0.107758,-0.027208,-0.035852,-0.107758,0.191179,0.593954,0.939669,3.443526,1.646131,-3.699769
1790538910.8780,-0.040785,-0.047532,-0.090819,-0.036712,-0.044028,-0.090819,0.651339,0.500465,1.065940,0.377287,1.088431,-11.345574
1790538910.8917,-0.051712,-0.057741,-0.077225,-0.047212,-0.053627,-0.077225,0.727830,0.598811,1.133932,1.412143,1.646131,-10.685784
1790538910.9053,-0.058738,-0.062002,-0.075271,-0.055280,-0.059490,-0.075271,0.363587,0.443400,1.030730,0.032335,2.687171,-11.190329
1790538910.9190,-0.060569,-0.063513,-0.073882,-0.058982,-0.062306,-0.073882,0.162039,0.094942,1.025874,-0.350944,2.612811,-10.569350
1790538910.9329,-0.054678,-0.065026,-0.057625,-0.055969,-0.064210,-0.057625,-0.001870,-0.482990,0.832825,0.032335,0.493551,-11.733686
1790538910.9468,-0.047164,-0.064907,-0.035492,-0.049805,-0.064698,-0.035492,-0.153638,-0.685752,0.633706,1.527127,-0.175689,-11.888930
1790538910.9607,-0.041456,-0.062708,-0.008128,-0.043961,-0.063305,-0.008128,-0.340615,-0.643257,0.583926,2.638638,-0.733389,-10.608161
1790538910.9745,-0.038556,-0.058401,0.016184,-0.040178,-0.059872,0.016184,-0.513024,-0.496346,0.511077,3.060246,-0.919289,-9.210958
1790538910.9883,-0.034888,-0.052028,0.035068,-0.036475,-0.054382,0.035068,-0.636866,-0.462350,0.356881,1.795423,-0.547489,-7.774944
1790538911.0023,-0.031804,-0.045093,0.050540,-0.033205,-0.047880,0.050540,-0.675719,-0.377360,0.171118,1.642111,-0.621849,-7.969000
1790538911.0160,-0.025430,-0.035038,0.062082,-0.027762,-0.038891,0.062082,-0.862697,-0.521843,-0.046214,0.990535,-0.101329,-9.405014
1790538911.0299,-0.027195,-0.029989,0.070465,-0.027365,-0.032660,0.070465,-0.540949,0.104655,-0.320610,1.565455,-0.956469,-12.548721
1790538911.0438,-0.031217,-0.039725,0.071427,-0.030062,-0.037606,0.071427,0.617343,0.448257,-0.750416,-0.350944,0.270471,-14.450469
1790538911.0576,-0.021367,-0.049210,0.051535,-0.023975,-0.045729,0.051535,0.730258,-0.342149,-1.172938,-2.803935,1.460231,-10.181238
1790538911.0715,-0.027421,-0.045949,-0.030324,-0.026388,-0.045883,-0.030324,0.021199,0.200572,-0.700636,3.481854,2.687171,-6.765853
1790538911.0854,-0.023957,-0.051939,-0.032206,-0.024686,-0.050122,-0.032206,0.406082,-0.174598,-0.508802,0.108991,0.828171,-9.831937
1790538911.0991,-0.004310,-0.064572,-0.034922,-0.010423,-0.060237,-0.034922,0.902666,-1.098560,-0.744346,-4.030431,1.051251,-11.966553
1790538911.1137,0.004691,-0.072019,-0.072602,0.000157,-0.068484,-0.072602,0.724187,-0.487847,-0.852404,-0.580912,3.244871,-8.240679
1790538911.1276,0.017436,-0.075142,-0.111778,0.012252,-0.073144,-0.111778,0.491072,-0.837519,-0.814766,-0.044320,3.058971,-6.377742
1790538911.1413,0.023942,-0.082916,-0.117262,0.020435,-0.079985,-0.117262,0.525068,-0.485418,-0.783198,0.913879,0.679451,-10.336483
1790538911.1552,0.019152,-0.092739,-0.130490,0.019537,-0.088913,-0.130490,0.748470,0.348697,-0.546440,0.607255,2.166651,-13.829490
1790538911.1692,0.002007,-0.088726,-0.145458,0.007266,-0.088782,-0.145458,-0.232557,1.293300,-0.477234,-0.427600,3.170511,-18.913756
1790538911.1830,-0.002974,-0.081689,-0.123106,0.000098,-0.083817,-0.123106,-0.708500,0.657089,-0.389816,-4.030431,-1.737248,-10.957462
1790538911.1969,-0.000619,-0.074993,-0.103075,-0.000404,-0.077640,-0.103075,-0.706072,0.243067,-0.386174,-4.107087,-1.662888,-6.882287
1790538911.2109,-0.014711,-0.059440,-0.101174,-0.010418,-0.064900,-0.101174,-1.250008,1.216809,-0.400743,-1.002520,-0.361589,-4.980539
1790538911.2248,-0.018286,-0.043440,-0.100599,-0.015925,-0.049878,-0.100599,-1.280361,0.553887,-0.316968,-2.765607,-0.473129,-8.046623
1790538911.2389,-0.027575,-0.028830,-0.101613,-0.024080,-0.035144,-0.101613,-1.111596,0.794288,-0.296327,-0.772552,0.270471,-8.473546
1790538911.2528,-0.034964,-0.015795,-0.100035,-0.031699,-0.021600,-0.100035,-1.048460,0.623093,-0.114206,-0.619240,0.047391,-11.423196
1790538911.2668,-0.024298,-0.018101,-0.097096,-0.026518,-0.019150,-0.097096,0.022413,-0.816879,0.058202,1.067191,-0.435949,-14.605714
1790538911.2808,-0.030553,-0.023326,-0.116805,-0.029343,-0.022073,-0.116805,0.339304,0.008738,0.729623,4.899989,1.051251,-9.405014
1790538911.2949,-0.029224,-0.033168,-0.104346,-0.029259,-0.029840,-0.104346,0.620985,-0.262016,0.804900,1.067191,0.828171,-11.888930
1790538911.3087,-0.030463,-0.040624,-0.096718,-0.030102,-0.037389,-0.096718,0.483787,-0.004618,0.486794,0.453943,0.567911,-6.959909
1790538911.3226,-0.039350,-0.046290,-0.097009,-0.036575,-0.043620,-0.097009,0.419438,0.521106,0.426087,1.143847,1.497411,-9.016902
1790538911.3364,-0.051383,-0.055004,-0.098296,-0.046941,-0.051589,-0.098296,0.640411,0.733580,0.458869,1.718767,1.608951,-10.220049
1790538911.3502,-0.063758,-0.060539,-0.103768,-0.058713,-0.057854,-0.103768,0.525068,0.804001,0.548716,0.952207,2.798711,-8.512357
1790538911.3639,-0.071467,-0.064374,-0.103973,-0.067640,-0.062418,-0.103973,0.391512,0.544174,0.576641,0.032335,2.649991,-8.163056
1790538911.3783,-0.070884,-0.069991,-0.094452,-0.069911,-0.067719,-0.094452,0.393941,-0.009475,0.588782,-0.734224,1.794851,-10.258860
1790538911.3924,-0.069644,-0.070140,-0.091113,-0.069724,-0.069414,-0.091113,0.070979,-0.138174,0.579069,0.568927,2.910251,-11.267951
1790538911.4065,-0.058627,-0.070373,-0.078022,-0.061956,-0.070085,-0.078022,-0.062577,-0.820521,0.632492,0.108991,0.865351,-13.751868
1790538911.4204,-0.053542,-0.065543,-0.067492,-0.056066,-0.066906,-0.067492,-0.442603,-0.610475,0.625207,2.945262,0.270471,-9.560259
1790538911.4342,-0.047260,-0.062117,-0.050145,-0.049902,-0.063553,-0.050145,-0.424391,-0.572836,0.520790,0.952207,-0.659029,-7.619700
1790538911.4480,-0.044458,-0.057104,-0.042594,-0.046091,-0.059039,-0.042594,-0.454745,-0.319081,0.344740,0.952207,0.121751,-6.455364
1790538911.4620,-0.038094,-0.050217,-0.036634,-0.040494,-0.052864,-0.036634,-0.559161,-0.486632,0.100697,0.760567,0.530731,-12.199420
1790538911.4759,-0.031219,-0.036201,-0.043825,-0.034001,-0.041200,-0.043825,-1.029034,-0.652970,-0.151844,3.366870,1.162791,-11.656063
1790538911.4899,-0.028151,-0.022422,-0.055492,-0.029906,-0.028055,-0.055492,-0.993824,-0.327580,-0.461450,2.561982,1.125611,-8.978091
1790538911.5038,-0.039647,-0.024892,-0.055289,-0.036725,-0.025841,-0.055289,0.145041,1.108750,-0.822051,-1.692424,0.753811,-10.763406
1790538911.5177,-0.041743,-0.030862,-0.067133,-0.040237,-0.029356,-0.067133,0.504427,0.506536,-1.262784,-2.803935,2.687171,-14.528091
1790538911.5317,-0.031058,-0.028359,-0.089096,-0.033812,-0.028658,-0.089096,0.061266,-0.461135,-1.011457,-2.152360,4.546171,-9.288581
1790538911.5455,-0.031581,-0.034207,-0.088076,-0.032250,-0.032542,-0.088076,0.340518,0.230926,-0.630216,-1.155832,0.010211,-10.918651
1790538911.5593,-0.018602,-0.043005,-0.089174,-0.022696,-0.039866,-0.089174,0.599131,-0.679681,-0.828121,-2.497311,0.679451,-12.315854
1790538911.5732,-0.005533,-0.048297,-0.103422,-0.010682,-0.045768,-0.103422,0.483787,-0.735532,-0.999315,-1.117504,2.761531,-10.064805
1790538911.5866,-0.002039,-0.051245,-0.128401,-0.004632,-0.049602,-0.128401,0.384227,-0.191596,-1.118301,0.837223,2.873071,-7.813756
1790538911.6002,-0.004839,-0.052071,-0.148910,-0.004777,-0.051330,-0.148910,0.171753,0.252780,-0.968962,0.952207,2.278191,-7.930189
1790538911.6142,0.001798,-0.058015,-0.157409,-0.000174,-0.056010,-0.157409,0.409724,-0.270515,-0.839049,-1.347472,0.865351,-8.745224
1790538911.6283,0.005022,-0.064587,-0.171511,0.003463,-0.062013,-0.171511,0.527496,-0.150315,-0.790483,0.147319,2.055111,-9.521448
1790538911.6423,-0.004837,-0.064292,-0.184906,-0.002347,-0.063609,-0.184906,0.091619,0.726296,-0.493018,0.837223,3.616671,-12.548721
1790538911.6561,-0.017548,-0.049008,-0.196831,-0.012988,-0.053388,-0.196831,-1.036319,1.066255,-0.567081,-1.424128,3.467951,-15.731238
1790538911.6699,-0.019706,-0.036631,-0.195487,-0.017690,-0.041658,-0.195487,-1.001109,0.425188,-0.375246,-3.033903,-0.287229,-9.831937
1790538911.6837,-0.022326,-0.026312,-0.193103,-0.020935,-0.030916,-0.193103,-0.890622,0.535675,-0.338822,-2.152360,-0.435949,-4.864105
1790538911.6974,-0.029458,-0.019345,-0.196179,-0.026901,-0.022816,-0.196179,-0.516666,0.533247,-0.132418,0.223975,0.642271,-4.631238
1790538911.7115,-0.021954,-0.023048,-0.194729,-0.023438,-0.022978,-0.194729,0.242173,-0.469634,-0.059569,-1.117504,1.980751,-15.808861
1790538911.7255,-0.023459,-0.027304,-0.187745,-0.023452,-0.026006,-0.187745,0.336876,-0.162456,0.742978,3.826806,3.319231,-14.256413
1790538911.7394,-0.032863,-0.036884,-0.172357,-0.030040,-0.033620,-0.172357,0.654981,0.352340,1.330623,2.753622,1.646131,-11.578441
1790538911.7534,-0.030031,-0.047522,-0.152376,-0.030034,-0.043352,-0.152376,0.731472,-0.430782,1.442324,0.492271,1.088431,-6.804665
1790538911.7674,-0.028984,-0.060334,-0.131068,-0.029299,-0.055239,-0.131068,0.727830,-0.059254,1.046514,-1.424128,-0.882109,-7.153965
1790538911.7813,-0.047660,-0.065958,-0.121600,-0.042152,-0.062742,-0.121600,0.386656,1.204668,0.929956,1.220503,1.348691,-10.530539
1790538911.7952,-0.059492,-0.080835,-0.105994,-0.054290,-0.075407,-0.105994,0.993727,0.812500,1.055013,-0.619240,0.865351,-13.519000
1790538911.8090,-0.071852,-0.088451,-0.093386,-0.066583,-0.084538,-0.093386,0.628270,0.771219,1.169142,0.913879,2.984611,-9.172147
1790538911.8226,-0.082597,-0.095047,-0.080909,-0.077793,-0.091894,-0.080909,0.497143,0.784574,0.978522,-0.235960,1.869211,-9.172147
1790538911.8361,-0.077982,-0.102442,-0.066678,-0.077925,-0.099278,-0.066678,0.440078,-0.354291,0.960310,-0.197632,0.419191,-11.035084
1790538911.8499,-0.074195,-0.108072,-0.055970,-0.075314,-0.105434,-0.055970,0.279811,-0.328794,0.746621,0.837223,-0.398769,-11.850119
1790538911.8639,-0.068859,-0.107567,-0.045590,-0.070795,-0.106927,-0.045590,-0.136640,-0.478133,0.762405,1.450471,0.047391,-11.267951
1790538911.8782,-0.060951,-0.108046,-0.037033,-0.063904,-0.107710,-0.037033,-0.164565,-0.746459,0.752692,3.098574,-1.848788,-10.763406
1790538911.8923,-0.056629,-0.102723,-0.032680,-0.058811,-0.104219,-0.032680,-0.503310,-0.533984,0.598496,3.251886,-0.659029,-9.288581
1790538911.9062,-0.055354,-0.092762,-0.029325,-0.056391,-0.096199,-0.029325,-0.859054,-0.325152,0.458869,2.868606,-0.770569,-7.813756
1790538911.9201,-0.055264,-0.080310,-0.022406,-0.055602,-0.085077,-0.022406,-1.064244,-0.186739,0.403019,2.638638,-1.328269,-9.366203
1790538911.9340,-0.048564,-0.066376,-0.015020,-0.050675,-0.071987,-0.015020,-1.174731,-0.618974,0.260964,1.948735,-1.179549,-9.094525
1790538911.9478,-0.039559,-0.046346,-0.016610,-0.042894,-0.054038,-0.016610,-1.526832,-0.781669,0.050917,1.565455,0.196111,-7.270399
1790538911.9616,-0.026203,-0.026672,-0.017242,-0.031210,-0.034882,-0.017242,-1.547473,-1.184764,0.103126,2.370342,-0.287229,-7.192776
1790538911.9755,-0.030096,-0.015688,-0.029183,-0.030430,-0.021446,-0.029183,-0.753424,0.171433,-0.032858,2.600310,2.724351,-12.548721
1790538911.9893,-0.042101,-0.026878,-0.043275,-0.038600,-0.025249,-0.043275,0.834674,0.965482,-0.751630,1.297159,2.017931,-14.178791
1790538912.0031,-0.042135,-0.039702,-0.046017,-0.041074,-0.035366,-0.046017,1.079931,0.351126,-0.933752,-2.688951,3.021791,-8.939280
1790538912.0170,-0.038664,-0.037831,-0.077321,-0.039387,-0.037092,-0.077321,0.251886,-0.413784,-0.231978,2.025391,4.248731,-4.398371
1790538912.0309,-0.032726,-0.051940,-0.057197,-0.034724,-0.047485,-0.057197,0.924521,-0.203737,-0.252618,-3.340527,-0.250049,-12.665154
1790538912.0444,-0.005905,-0.072214,-0.044133,-0.014551,-0.064795,-0.044133,1.583800,-1.610928,-0.510016,-5.486894,2.464091,-9.793126
1790538912.0579,0.011026,-0.086535,-0.060002,0.003353,-0.080013,-0.060002,1.296048,-1.154411,-0.586507,-0.619240,3.653851,-7.348021
1790538912.0718,0.019891,-0.094193,-0.073436,0.014929,-0.089939,-0.073436,0.741185,-0.719748,-0.411671,1.527127,3.691031,-9.055714
1790538912.0856,0.016184,-0.107708,-0.081862,0.015807,-0.102377,-0.081862,1.026509,0.362053,-0.428669,-1.347472,1.943571,-12.354665
1790538912.0995,-0.001702,-0.107310,-0.092140,0.003551,-0.105830,-0.092140,-0.022510,1.311512,-0.610790,0.607255,1.460231,-16.235784
1790538912.1133,-0.003896,-0.099889,-0.086643,-0.001662,-0.101671,-0.086643,-0.700001,0.362053,-0.530657,-3.033903,-2.146228,-11.888930
1790538912.1275,-0.015655,-0.084880,-0.087612,-0.011457,-0.089917,-0.087612,-1.180802,1.004334,-0.553725,-1.385800,-0.882109,-7.386832
1790538912.1416,-0.021174,-0.070776,-0.080485,-0.018259,-0.076518,-0.080485,-1.233010,0.665588,-0.340036,-2.573967,-2.071868,-6.649420
1790538912.1554,-0.025926,-0.049856,-0.080346,-0.023626,-0.057855,-0.080346,-1.497693,0.625522,-0.381317,-1.385800,0.530731,-3.893825
1790538912.1693,-0.031905,-0.031104,-0.085855,-0.029421,-0.039129,-0.085855,-1.496479,0.651019,-0.383745,-1.730752,-0.882109,-7.542077
1790538912.1833,-0.026491,-0.033560,-0.088450,-0.027370,-0.035231,-0.088450,0.039411,-0.299655,-0.155487,-1.079176,-0.956469,-12.703965
1790538912.1970,-0.020304,-0.038401,-0.090036,-0.022424,-0.037450,-0.090036,0.569991,-0.697893,0.543859,1.948735,3.505131,-6.067252
1790538912.2110,-0.021940,-0.034612,-0.080854,-0.022085,-0.035464,-0.080854,-0.231343,-0.115105,0.932385,1.565455,2.092291,-8.589979
1790538912.2249,-0.013736,-0.035808,-0.072873,-0.016241,-0.035705,-0.072873,0.052767,-0.699107,0.553572,0.415615,0.865351,-7.891378
1790538912.2389,-0.020541,-0.044222,-0.075274,-0.019251,-0.041667,-0.075274,0.617343,0.205429,0.489223,3.366870,1.534591,-8.784035
1790538912.2547,-0.034243,-0.051880,-0.072049,-0.029745,-0.048816,-0.072049,0.511712,0.734795,0.515934,1.872079,2.241011,-11.384385
1790538912.2690,-0.046511,-0.056319,-0.066797,-0.041481,-0.054068,-0.066797,0.418223,0.776075,0.620350,0.607255,3.170511,-9.249770
1790538912.2841,-0.057140,-0.060612,-0.059895,-0.052442,-0.058649,-0.059895,0.350231,0.598811,0.682271,1.028863,2.687171,-9.288581
1790538912.2985,-0.061922,-0.064671,-0.051649,-0.059078,-0.062865,-0.051649,0.319878,0.233354,0.717481,0.913879,2.501271,-10.103616
1790538912.3130,-0.063889,-0.066944,-0.043780,-0.062446,-0.065720,-0.043780,0.158397,0.057303,0.616708,0.722239,1.608951,-9.055714
1790538912.3273,-0.059572,-0.066267,-0.035705,-0.060434,-0.066103,-0.035705,-0.011583,-0.343364,0.609423,0.108991,2.017931,-8.473546
1790538912.3415,-0.050738,-0.067414,-0.020678,-0.053647,-0.067021,-0.020678,-0.063791,-0.818093,0.689556,3.213558,-0.770569,-13.751868
1790538912.3552,-0.046126,-0.062359,-0.010703,-0.048382,-0.063758,-0.010703,-0.423177,-0.531556,0.630063,2.715294,0.902531,-11.345574
1790538912.3695,-0.039459,-0.054323,0.000750,-0.042136,-0.057154,0.000750,-0.644151,-0.689394,0.603352,3.021918,0.456371,-10.957462
1790538912.3838,-0.031382,-0.043104,0.008644,-0.034608,-0.047319,0.008644,-0.851769,-0.791382,0.332598,2.408670,0.344831,-7.270399
1790538912.3978,-0.021910,-0.029309,0.013951,-0.025719,-0.034712,0.013951,-1.043604,-0.853303,0.140764,2.063719,0.456371,-7.658511
1790538912.4118,-0.026721,-0.023101,0.011411,-0.026421,-0.026584,0.011411,-0.454745,0.311059,-0.133632,2.025391,2.278191,-17.322497
1790538912.4257,-0.029612,-0.026475,0.000214,-0.028655,-0.026508,0.000214,0.317450,0.515035,-0.831764,-2.688951,2.464091,-10.375294
1790538912.4396,-0.021489,-0.031408,-0.015135,-0.023639,-0.029938,-0.015135,0.435221,-0.168527,-1.328348,-3.800463,2.464091,-10.763406
1790538912.4536,-0.027310,-0.032628,-0.038924,-0.026209,-0.031821,-0.038924,0.334448,0.379051,-0.845119,1.297159,2.166651,-3.777392
1790538912.4677,-0.022935,-0.041693,-0.042043,-0.023917,-0.038732,-0.042043,0.601559,-0.039828,-0.582865,-2.152360,0.382011,-7.425644
1790538912.4818,-0.010844,-0.056700,-0.049992,-0.014766,-0.051309,-0.049992,1.009511,-0.646899,-0.924039,-1.999048,0.121751,-13.596623
1790538912.4958,0.004153,-0.065890,-0.069166,-0.001523,-0.061516,-0.069166,0.821319,-0.807166,-1.191150,-2.037376,3.505131,-8.822846
1790538912.5094,0.010302,-0.068193,-0.086791,0.006754,-0.066190,-0.086791,0.300452,-0.379788,-1.205720,0.760567,3.133331,-9.210958
1790538912.5229,0.008283,-0.068814,-0.100329,0.007824,-0.068027,-0.100329,0.136542,0.166576,-0.967748,1.067191,2.166651,-7.891378
1790538912.5369,0.017248,-0.073089,-0.114502,0.014421,-0.071570,-0.114502,0.328377,-0.474491,-0.868188,-1.232488,1.423051,-8.861658
1790538912.5507,0.019791,-0.077149,-0.123657,0.018180,-0.075475,-0.123657,0.485001,-0.132103,-0.455380,-0.274288,3.951291,-8.900469
1790538912.5645,-0.000746,-0.071156,-0.130873,0.004932,-0.072452,-0.130873,-0.421963,1.540985,-0.296327,-0.235960,1.832031,-13.480189
1790538912.5782,-0.009054,-0.057944,-0.140042,-0.004858,-0.062296,-0.140042,-1.039961,0.853780,-0.357034,-3.838791,-0.138509,-11.888930
1790538912.5920,-0.014461,-0.046320,-0.147947,-0.011580,-0.051113,-0.147947,-0.951329,0.663160,-0.403172,-2.190688,-0.361589,-6.416553
1790538912.6059,-0.026644,-0.034306,-0.153245,-0.022125,-0.039348,-0.153245,-0.930688,0.984908,-0.129990,-0.427600,0.121751,-4.126693
1790538912.6198,-0.032813,-0.023049,-0.154546,-0.029607,-0.027938,-0.154546,-0.776492,0.449471,-0.072925,0.415615,1.757671,-8.667602
1790538912.6340,-0.031207,-0.019009,-0.155991,-0.030727,-0.021688,-0.155991,-0.336973,-0.017974,0.021778,-2.152360,1.274331,-16.391028
1790538912.6479,-0.027472,-0.026943,-0.147312,-0.028448,-0.025367,-0.147312,0.440078,-0.357933,0.643419,0.032335,-0.435949,-18.215154
1790538912.6619,-0.029515,-0.036872,-0.131713,-0.029195,-0.033420,-0.131713,0.617343,-0.026473,1.171571,0.300631,0.530731,-10.724595
1790538912.6757,-0.024166,-0.052391,-0.117605,-0.025675,-0.046700,-0.117605,0.940304,-0.336079,0.830397,-1.347472,-0.733389,-5.368651
1790538912.6895,-0.037003,-0.071078,-0.110741,-0.033604,-0.063765,-0.110741,1.264480,0.796716,0.707768,0.952207,-0.101329,-7.309210
1790538912.7033,-0.055681,-0.088462,-0.101182,-0.049058,-0.081053,-0.101182,1.262052,1.245948,0.758762,1.220503,1.534591,-10.646972
1790538912.7173,-0.072556,-0.098932,-0.083346,-0.065506,-0.093568,-0.083346,0.841959,1.184027,0.934813,-0.082648,3.021791,-9.405014
1790538912.7312,-0.085421,-0.105931,-0.067232,-0.079446,-0.102222,-0.067232,0.539638,0.888991,0.959096,0.262303,2.538451,-10.181238
1790538912.7447,-0.086218,-0.114621,-0.054002,-0.084187,-0.110902,-0.054002,0.583347,0.068231,0.984593,-0.350944,1.051251,-10.414105
1790538912.7582,-0.083941,-0.120648,-0.042930,-0.084015,-0.117724,-0.042930,0.341732,-0.190382,0.900817,0.338959,0.196111,-11.035084
1790538912.7721,-0.080456,-0.126762,-0.032179,-0.081524,-0.124051,-0.032179,0.306522,-0.311796,0.875320,1.258831,-0.547489,-12.665154
1790538912.7859,-0.074890,-0.135348,-0.020623,-0.076880,-0.131959,-0.020623,0.400011,-0.580121,0.852251,3.673494,-2.703928,-12.277042
1790538912.7997,-0.065858,-0.137603,-0.006488,-0.069164,-0.135910,-0.006488,0.030912,-0.888513,0.858322,4.210086,-0.844929,-10.452916
1790538912.8136,-0.063417,-0.133746,0.012505,-0.065141,-0.134395,0.012505,-0.429248,-0.512129,0.974880,5.973173,-1.216729,-9.560259
1790538912.8275,-0.059973,-0.125396,0.024522,-0.061523,-0.128096,0.024522,-0.753424,-0.482990,0.732051,3.558510,-1.142369,-8.861658
1790538912.8414,-0.057190,-0.112366,0.032966,-0.058490,-0.117085,0.032966,-1.087313,-0.418640,0.446728,3.213558,-1.216729,-8.279490
1790538912.8552,-0.049114,-0.094865,0.036754,-0.051927,-0.101531,0.036754,-1.354424,-0.710035,0.202685,2.025391,-0.250049,-9.210958
1790538912.8692,-0.041109,-0.071656,0.034061,-0.044355,-0.080619,0.034061,-1.665244,-0.832663,0.166261,3.098574,0.642271,-6.494175
1790538912.8837,-0.029609,-0.045484,0.044316,-0.034033,-0.056024,0.044316,-1.912929,-1.092489,0.389663,3.596838,-0.324409,-7.309210
1790538912.8977,-0.014479,-0.019082,0.056003,-0.020345,-0.030165,0.056003,-1.996705,-1.303750,0.409089,1.833751,0.010211,-6.998721
1790538912.9116,-0.038024,-0.016217,0.066888,-0.032720,-0.020401,0.066888,-0.423177,1.604120,-0.123919,5.973173,-4.339848,-21.281238
1790538912.9254,-0.051370,-0.033173,0.057255,-0.045775,-0.029341,0.057255,1.274194,1.199811,-0.865760,-1.462456,2.575631,-16.313406
1790538912.9394,-0.035034,-0.032696,0.043062,-0.038256,-0.031689,0.043062,0.192393,-0.756172,-0.548869,-5.103614,4.248731,-7.037532
1790538912.9532,-0.038415,-0.041455,0.050261,-0.038368,-0.038525,0.050261,0.535995,0.328057,-0.145774,-0.389272,-0.212869,-7.813756
1790538912.9666,-0.017819,-0.059290,0.057285,-0.023984,-0.053061,0.057285,1.317903,-1.164124,-0.501517,-5.678534,0.976891,-10.724595
1790538912.9802,-0.000436,-0.078724,0.055210,-0.007500,-0.071025,0.055210,1.449030,-1.122843,-0.567081,-1.309144,0.976891,-8.007811
1790538912.9939,0.013052,-0.090714,0.027608,0.006886,-0.084807,0.027608,1.143066,-0.960148,-0.580436,0.185647,3.616671,-6.144874
1790538913.0077,0.025971,-0.101875,0.012122,0.020245,-0.096755,0.012122,0.964587,-0.905511,-0.633859,-0.005993,2.352551,-6.610609
1790538913.0217,0.004064,-0.102274,-0.001579,0.008919,-0.100619,-0.001579,0.040625,1.565268,-0.706707,1.527127,2.017931,-17.128441
1790538913.0356,-0.014656,-0.080433,-0.006632,-0.007583,-0.086488,-0.006632,-1.562042,1.624761,-0.499089,-5.716862,1.720491,-15.187882
1790538913.0495,-0.006779,-0.061676,-0.005159,-0.007020,-0.069120,-0.005159,-1.511048,-0.141816,-0.516087,-9.089724,-2.629568,-12.121798
1790538913.0634,-0.014655,-0.046694,-0.014958,-0.012365,-0.053422,-0.014958,-1.393277,0.789431,-0.397101,-1.807408,-2.852648,-5.989630
1790538913.0772,-0.036664,-0.023982,-0.035867,-0.029374,-0.032814,-0.035867,-1.334998,1.388003,-0.224693,1.565455,2.166651,-2.457811
1790538913.0911,-0.055109,-0.001126,-0.043605,-0.047389,-0.010632,-0.043605,-1.338640,1.447496,-0.448095,-0.005993,2.984611,-4.087881
1790538913.1050,-0.040407,-0.001815,-0.044262,-0.042501,-0.004460,-0.044262,-0.021296,-0.917653,-0.326681,-2.573967,1.051251,-21.281238
1790538913.1188,-0.015898,-0.020851,-0.039205,-0.023879,-0.015934,-0.039205,1.515808,-1.992169,0.107982,4.516709,5.996190,-13.907112
1790538913.1332,-0.029858,-0.017978,-0.031809,-0.028064,-0.017365,-0.031809,0.015128,0.581813,0.571784,6.931372,6.405170,-8.939280
1790538913.1473,-0.030618,-0.025703,-0.018209,-0.029852,-0.023201,-0.018209,0.463147,-0.041042,0.864393,-0.542584,0.828171,-14.101168
1790538913.1612,-0.030164,-0.038911,-0.006152,-0.030070,-0.034198,-0.006152,0.857743,-0.112677,0.718696,-0.197632,0.344831,-14.101168
1790538913.1751,-0.045019,-0.043516,0.003029,-0.040535,-0.040721,0.003029,0.322306,0.882920,0.797615,1.757095,1.497411,-9.288581
1790538913.1889,-0.052794,-0.049478,0.012923,-0.049116,-0.046851,0.012923,0.415795,0.518677,0.866821,-0.542584,1.571771,-9.210958
1790538913.2025,-0.051444,-0.052315,0.018065,-0.050746,-0.050676,0.018065,0.299237,-0.085966,0.654346,-0.887536,2.724351,-8.046623
1790538913.2162,-0.053073,-0.050347,0.025718,-0.052375,-0.050446,0.025718,-0.057720,-0.013117,0.668916,1.028863,2.538451,-7.580888
1790538913.2302,-0.048440,-0.048006,0.035935,-0.049621,-0.048738,0.035935,-0.168207,-0.436853,0.725980,0.683911,2.092291,-10.724595
1790538913.2442,-0.046507,-0.045511,0.046973,-0.047441,-0.046479,0.046973,-0.203417,-0.265659,0.718696,1.028863,1.608951,-10.646972
1790538913.2582,-0.041533,-0.041680,0.054058,-0.043306,-0.043120,0.054058,-0.265339,-0.413784,0.547502,0.147319,2.203831,-11.384385
1790538913.2722,-0.033724,-0.032304,0.060371,-0.036598,-0.035548,0.060371,-0.593157,-0.629901,0.556001,0.108991,2.612811,-8.124245
1790538913.2861,-0.021321,-0.023774,0.071149,-0.025904,-0.027306,0.071149,-0.720642,-0.986859,0.390877,0.607255,0.121751,-11.656063
1790538913.2999,-0.018352,-0.020274,0.074688,-0.020618,-0.022384,0.074688,-0.339401,-0.217093,0.066701,-0.005993,0.270471,-11.694875
1790538913.3138,-0.018286,-0.025759,0.063431,-0.018986,-0.024747,0.063431,0.414581,0.223641,-0.579222,-2.343999,1.906391,-11.151518
1790538913.3277,-0.015762,-0.031679,0.051438,-0.016729,-0.029599,0.051438,0.529924,-0.100535,-0.914325,0.837223,2.352551,-7.813756
1790538913.3416,-0.013030,-0.039906,0.037908,-0.014140,-0.036814,0.037908,0.610058,-0.084751,-1.085520,0.607255,1.088431,-7.386832
1790538913.3554,-0.016213,-0.044494,0.026959,-0.015591,-0.042190,0.026959,0.340518,0.274635,-1.000530,1.795423,1.311511,-10.414105
1790538913.3693,-0.013142,-0.046949,0.016299,-0.013877,-0.045521,0.016299,0.192393,-0.152743,-0.891257,1.028863,1.534591,-10.879840
1790538913.3838,-0.002206,-0.055205,-0.000360,-0.005707,-0.052300,-0.000360,0.561492,-0.537626,-1.089162,-1.347472,0.939711,-9.715504
1790538913.3980,0.009040,-0.062524,-0.022553,0.004616,-0.059457,-0.022553,0.573634,-0.529127,-1.329562,-1.769080,2.017931,-9.016902
1790538913.4118,0.020029,-0.072037,-0.038283,0.015405,-0.068263,-0.038283,0.687763,-0.668754,-1.217861,-0.082648,1.014071,-7.464455
1790538913.4253,0.029655,-0.080009,-0.051326,0.025380,-0.076485,-0.051326,0.574848,-0.634758,-1.112231,0.223975,1.199971,-10.181238
1790538913.4390,0.040621,-0.092209,-0.061200,0.036049,-0.087492,-0.061200,0.848030,-0.770742,-0.954392,0.453943,0.716631,-11.733686
1790538913.4528,0.039711,-0.102288,-0.071575,0.038613,-0.097849,-0.071575,0.769110,0.068231,-0.822051,0.875551,2.687171,-13.286133
1790538913.4667,0.025744,-0.101921,-0.079472,0.029604,-0.100699,-0.079472,-0.061363,0.997049,-0.690923,1.067191,0.902531,-14.256413
1790538913.4806,0.016979,-0.096965,-0.091624,0.020767,-0.098085,-0.091624,-0.516666,0.840425,-0.673925,-3.647151,-2.183408,-12.975644
1790538913.4945,0.019451,-0.092686,-0.106260,0.019845,-0.094306,-0.106260,-0.506953,0.161719,-0.807481,-4.605350,-2.257768,-8.706413
1790538913.5084,0.005455,-0.078882,-0.118490,0.009772,-0.083509,-0.118490,-1.109167,1.083253,-0.750416,-0.120976,-0.659029,-8.279490
1790538913.5224,0.000054,-0.063871,-0.127801,0.002970,-0.069762,-0.127801,-1.292503,0.644948,-0.621717,-2.305671,-1.848788,-6.998721
1790538913.5361,-0.006643,-0.044360,-0.135563,-0.003759,-0.051981,-0.135563,-1.513477,0.686229,-0.502731,-1.999048,-0.287229,-9.443825
1790538913.5500,-0.010572,-0.028007,-0.141748,-0.008528,-0.035199,-0.141748,-1.310715,0.546603,-0.456594,-3.225543,-0.882109,-10.064805
1790538913.5639,-0.010157,-0.008147,-0.143541,-0.009669,-0.016263,-0.143541,-1.455198,0.155649,-0.321824,-1.654096,0.939711,-7.852567
1790538913.5778,0.006310,-0.009112,-0.149300,0.001516,-0.011257,-0.149300,-0.109928,-1.190835,0.020564,-0.580912,-2.220588,-18.176343
1790538913.5918,0.008615,-0.019450,-0.152369,0.006485,-0.016992,-0.152369,0.633127,-0.459921,0.588782,3.251886,-0.324409,-10.414105
1790538913.6057,0.010721,-0.020790,-0.114956,0.009450,-0.019650,-0.114956,0.432793,-0.163671,0.559643,-0.849208,4.360271,-4.980539
1790538913.6196,0.011373,-0.023634,-0.105035,0.010796,-0.022439,-0.105035,0.307736,0.149578,0.122552,-1.692424,1.423051,-4.165504
1790538913.6339,0.000913,-0.032910,-0.107372,0.003878,-0.029769,-0.107372,0.635555,0.621879,0.157762,1.987063,1.571771,-12.587532
1790538913.6479,-0.016319,-0.041726,-0.104589,-0.010260,-0.038139,-0.104589,0.676836,1.063827,0.396948,2.638638,2.612811,-11.694875
1790538913.6615,-0.030145,-0.047168,-0.095318,-0.024180,-0.044459,-0.095318,0.535995,0.936342,0.462512,0.645583,3.207691,-8.473546
1790538913.6753,-0.037171,-0.051793,-0.086924,-0.033274,-0.049593,-0.086924,0.409724,0.471326,0.455227,0.108991,2.203831,-8.124245
1790538913.6893,-0.038909,-0.059418,-0.079276,-0.037218,-0.056470,-0.079276,0.562706,0.068231,0.462512,0.338959,1.571771,-8.861658
1790538913.7031,-0.031634,-0.059888,-0.067538,-0.033309,-0.058863,-0.067538,0.160825,-0.623830,0.472225,1.182175,4.397451,-11.733686
1790538913.7170,-0.017502,-0.055066,-0.058916,-0.022244,-0.056205,-0.058916,-0.384325,-1.170194,0.497722,1.987063,1.125611,-12.820399
1790538913.7310,-0.004448,-0.046418,-0.051615,-0.009787,-0.049354,-0.051615,-0.667220,-1.179908,0.519576,3.481854,0.753811,-11.966553
1790538913.7450,-0.000739,-0.037084,-0.054601,-0.003454,-0.040765,-0.054601,-0.757066,-0.652970,0.424873,4.056774,-0.212869,-6.455364
1790538913.7589,0.006589,-0.026930,-0.050628,0.003576,-0.031080,-0.050628,-0.788634,-0.719748,0.205114,1.603783,0.307651,-6.261308
1790538913.7728,0.009729,-0.019062,-0.049213,0.007883,-0.022667,-0.049213,-0.611369,-0.410141,0.086128,2.025391,0.605091,-7.464455
1790538913.7867,-0.002976,-0.023688,-0.052931,0.000281,-0.023382,-0.052931,0.290738,0.801572,-0.123919,3.596838,1.274331,-14.760958
1790538913.8006,0.002738,-0.029827,-0.066938,0.002001,-0.027893,-0.066938,0.497143,-0.105392,-0.807481,-4.222071,3.207691,-12.820399
1790538913.8145,0.008708,-0.040546,-0.082643,0.006696,-0.036750,-0.082643,0.769110,-0.259588,-1.175366,-0.197632,1.646131,-11.345574
1790538913.8283,0.007138,-0.047024,-0.095857,0.007005,-0.043942,-0.095857,0.498357,0.029378,-0.788055,2.676966,1.646131,-8.240679
1790538913.8422,0.017035,-0.050310,-0.103239,0.014026,-0.048399,-0.103239,0.238530,-0.637186,-0.595006,-0.197632,1.162791,-8.124245
1790538913.8561,0.033553,-0.061093,-0.110570,0.027695,-0.057285,-0.110570,0.766682,-1.081562,-0.639929,-1.040848,1.423051,-11.267951
1790538913.8703,0.045743,-0.074061,-0.127229,0.040328,-0.069028,-0.127229,1.048363,-0.703964,-0.760129,-1.309144,2.873071,-7.153965
1790538913.8844,0.056002,-0.081130,-0.142496,0.051300,-0.077499,-0.142496,0.641626,-0.688180,-0.856047,0.147319,2.910251,-6.843476
1790538913.8982,0.060835,-0.090545,-0.148656,0.057975,-0.086631,-0.148656,0.680478,-0.421069,-0.764986,1.373815,1.274331,-8.240679
1790538913.9122,0.051567,-0.101126,-0.154378,0.053490,-0.096778,-0.154378,0.678050,0.643734,-0.662998,0.990535,0.270471,-13.751868
1790538913.9261,0.041408,-0.103158,-0.165134,0.045032,-0.101244,-0.165134,0.128043,0.785789,-0.646000,-0.772552,1.534591,-15.110259
1790538913.9400,0.029900,-0.099024,-0.175150,0.034440,-0.099690,-0.175150,-0.352757,0.921772,-0.660570,-1.347472,0.530731,-15.187882
1790538913.9539,0.028516,-0.089638,-0.186164,0.030293,-0.092654,-0.186164,-0.784991,0.360839,-0.580436,-3.608823,-0.733389,-8.939280
1790538913.9679,0.027614,-0.075202,-0.194161,0.028418,-0.080437,-0.194161,-1.201442,0.372980,-0.455380,-3.570495,-1.253909,-6.882287
1790538913.9816,0.023035,-0.060238,-0.197493,0.024650,-0.066298,-0.197493,-1.282790,0.451899,-0.255046,-1.232488,-1.439808,-7.231588
1790538913.9956,0.019409,-0.043903,-0.201494,0.020981,-0.050622,-0.201494,-1.288860,0.539318,-0.315753,-3.493839,-0.510309,-7.891378
1790538914.0096,0.012008,-0.031214,-0.208518,0.014700,-0.037036,-0.208518,-1.092169,0.729938,-0.307254,-2.382327,-1.439808,-8.745224
1790538914.0235,0.004610,-0.013533,-0.210375,0.007637,-0.020584,-0.210375,-1.336212,0.712940,-0.165200,-2.114032,0.419191,-8.240679
1790538914.0375,0.011416,-0.009656,-0.213083,0.010282,-0.012935,-0.213083,-0.429248,-0.444137,0.046061,-2.305671,-1.774428,-21.125994
1790538914.0514,0.012767,-0.016643,-0.213120,0.012022,-0.015531,-0.213120,0.412153,-0.306939,0.553572,3.136902,0.047391,-18.215154
1790538914.0652,0.004115,-0.023640,-0.203184,0.006487,-0.021207,-0.203184,0.478930,0.380265,1.113292,1.565455,1.274331,-13.441378
1790538914.0792,0.011991,-0.024691,-0.148625,0.010340,-0.023646,-0.148625,0.191179,-0.181883,0.526861,-4.337055,1.423051,-3.466902
1790538914.0931,0.006238,-0.028375,-0.155274,0.007468,-0.026956,-0.155274,0.259171,0.179932,0.375093,2.715294,1.311511,-9.172147
1790538914.1070,-0.005622,-0.037384,-0.160385,-0.001695,-0.034256,-0.160385,0.637983,0.638877,0.388449,2.945262,1.311511,-10.336483
1790538914.1205,-0.019554,-0.045057,-0.150745,-0.014196,-0.041816,-0.150745,0.708403,0.925415,0.586354,0.607255,3.096151,-7.969000
1790538914.1346,-0.028266,-0.047657,-0.139283,-0.024045,-0.045905,-0.139283,0.333233,0.541746,0.591211,0.377287,3.802571,-9.055714
1790538914.1487,-0.032352,-0.052082,-0.129090,-0.029860,-0.050229,-0.129090,0.336876,0.238210,0.630063,-0.159304,1.943571,-9.754315
1790538914.1626,-0.037931,-0.055397,-0.120269,-0.035509,-0.053846,-0.120269,0.268884,0.286776,0.603352,1.182175,2.241011,-10.802217
1790538914.1766,-0.022560,-0.055790,-0.108883,-0.026445,-0.055207,-0.108883,0.034554,-1.183550,0.606995,0.377287,2.315371,-13.441378
1790538914.1904,-0.009331,-0.045870,-0.105256,-0.014465,-0.048671,-0.105256,-0.792276,-1.183550,0.496508,2.830278,0.307651,-10.879840
1790538914.2043,-0.002759,-0.037108,-0.105148,-0.006271,-0.040577,-0.105148,-0.743711,-0.762243,0.514720,2.868606,-0.398769,-7.774944
1790538914.2185,0.006188,-0.028841,-0.104428,0.002451,-0.032362,-0.104428,-0.652650,-0.867873,0.288889,2.293686,0.158931,-7.153965
1790538914.2328,0.015300,-0.020353,-0.106399,0.011445,-0.023956,-0.106399,-0.562803,-0.875158,0.114053,3.290214,1.906391,-9.016902
1790538914.2468,0.010213,-0.021362,-0.111789,0.010583,-0.022140,-0.111789,0.005415,0.273421,-0.280543,3.481854,0.828171,-15.808861
1790538914.2609,0.008033,-0.019376,-0.128710,0.008798,-0.020205,-0.128710,-0.043151,0.307417,-0.922824,-0.197632,4.323091,-12.315854
1790538914.2747,0.011602,-0.024583,-0.145461,0.010761,-0.023270,-0.145461,0.351446,0.047590,-1.376914,-1.730752,1.460231,-10.724595
1790538914.2885,0.010583,-0.032066,-0.164362,0.010636,-0.029427,-0.164362,0.628270,0.255208,-1.170509,-0.120976,2.203831,-6.882287
1790538914.3023,0.011353,-0.040056,-0.176523,0.011138,-0.036867,-0.176523,0.659838,-0.008260,-0.715206,0.377287,1.385871,-4.747672
1790538914.3162,0.020518,-0.053475,-0.186704,0.017704,-0.048493,-0.186704,0.907523,-0.499988,-0.926467,-1.194160,0.679451,-13.208511
1790538914.3301,0.036919,-0.059845,-0.203636,0.031154,-0.056439,-0.203636,0.534781,-1.043924,-1.186293,-0.504256,3.319231,-11.035084
1790538914.3435,0.043054,-0.063770,-0.221662,0.039484,-0.061571,-0.221662,0.339304,-0.414998,-1.327134,1.182175,2.389731,-8.434735
1790538914.3580,0.048971,-0.069611,-0.237889,0.046125,-0.067199,-0.237889,0.345375,-0.294798,-1.188722,-0.159304,0.828171,-8.085434
1790538914.3732,0.056109,-0.079492,-0.252113,0.053114,-0.075804,-0.252113,0.593060,-0.372503,-1.001744,-0.350944,0.642271,-7.309210
1790538914.3878,0.045102,-0.087208,-0.260008,0.047506,-0.083787,-0.260008,0.458290,0.699584,-0.726133,2.370342,0.605091,-13.557812
1790538914.4018,0.030411,-0.078177,-0.269895,0.035539,-0.079860,-0.269895,-0.697573,1.176742,-0.642358,-2.190688,0.939711,-16.080539
1790538914.4167,0.026621,-0.062803,-0.277459,0.029297,-0.067920,-0.277459,-1.117666,0.527176,-0.631430,-5.103614,0.010211,-12.665154
1790538914.4305,0.022559,-0.050448,-0.281017,0.024580,-0.055689,-0.281017,-1.112810,0.621879,-0.642358,-3.187215,-1.662888,-6.765853
1790538914.4441,0.012514,-0.037670,-0.286526,0.016134,-0.043076,-0.286526,-1.144377,0.851352,-0.391030,-0.734224,-1.365448,-7.231588
1790538914.4581,0.010133,-0.025139,-0.288348,0.011933,-0.030520,-0.288348,-1.014464,0.321986,-0.275687,-1.347472,-0.250049,-7.153965
1790538914.4721,0.008890,-0.014072,-0.288914,0.009803,-0.019006,-0.288914,-0.923404,0.279491,-0.234406,-3.340527,-0.770569,-12.665154
1790538914.4859,0.016173,-0.017101,-0.284486,0.014262,-0.017673,-0.284486,0.098904,-0.535198,0.302245,-1.845736,-0.844929,-19.030189
1790538914.4997,0.010970,-0.023296,-0.282806,0.011958,-0.021609,-0.282806,0.452219,0.022093,0.996734,3.711822,1.571771,-11.539630
1790538914.5135,0.011022,-0.034144,-0.274710,0.011303,-0.030383,-0.274710,0.833460,-0.320295,1.075653,2.102047,1.757671,-8.628791
1790538914.5274,0.013708,-0.039546,-0.254084,0.012987,-0.036797,-0.254084,0.620985,-0.115105,0.613065,-1.424128,2.501271,-4.204315
1790538914.5413,0.005589,-0.044273,-0.249064,0.007808,-0.042031,-0.249064,0.298023,0.478611,0.556001,0.722239,0.753811,-13.635434
1790538914.5551,-0.005892,-0.054591,-0.244697,-0.001782,-0.050823,-0.244697,0.729044,0.725081,0.528075,0.990535,1.348691,-13.635434
1790538914.5692,-0.021604,-0.062310,-0.239076,-0.015657,-0.058864,-0.239076,0.669551,0.825855,0.917815,3.251886,3.133331,-8.706413
1790538914.5828,-0.036187,-0.066437,-0.230232,-0.030028,-0.064165,-0.230232,0.424294,0.868350,0.955453,1.795423,3.282051,-8.861658
1790538914.5965,-0.037009,-0.072321,-0.217012,-0.034915,-0.069874,-0.217012,0.436436,0.050018,0.889890,-0.925864,1.497411,-8.667602
1790538914.6106,-0.038880,-0.077814,-0.207502,-0.037690,-0.075432,-0.207502,0.525068,0.081586,0.695627,0.032335,3.207691,-8.201867
1790538914.6246,-0.029596,-0.081651,-0.195497,-0.032024,-0.079785,-0.195497,0.239744,-0.680895,0.775760,-1.079176,1.199971,-13.790679
1790538914.6393,-0.019738,-0.076527,-0.182901,-0.023424,-0.077504,-0.182901,-0.423177,-0.886085,0.688342,3.405198,0.010211,-12.432287
1790538914.6535,-0.015258,-0.069402,-0.170034,-0.017708,-0.071833,-0.170034,-0.625939,-0.593477,0.650704,3.788478,-0.919289,-9.870749
1790538914.6674,-0.011776,-0.058995,-0.163170,-0.013556,-0.062846,-0.163170,-0.815345,-0.450208,0.409089,2.178703,0.084571,-8.124245
1790538914.6815,-0.003639,-0.044648,-0.159411,-0.006614,-0.050107,-0.159411,-1.069101,-0.763457,0.202685,2.561982,0.530731,-9.676693
1790538914.6953,0.000526,-0.028120,-0.160221,-0.001616,-0.034716,-0.160221,-1.243937,-0.546125,-0.045000,4.325070,0.605091,-9.870749
1790538914.7093,0.007523,-0.008952,-0.163022,0.004781,-0.016681,-0.163022,-1.381135,-0.662683,-0.119062,2.446998,1.237151,-8.357112
1790538914.7233,-0.009140,-0.011266,-0.161514,-0.004963,-0.012890,-0.161514,0.016342,1.094181,-0.404386,4.631693,-1.142369,-13.790679
1790538914.7372,-0.017782,-0.022645,-0.170574,-0.013937,-0.019719,-0.170574,0.816462,0.999478,-1.091590,-3.378855,1.460231,-11.073895
1790538914.7511,-0.016243,-0.035869,-0.200781,-0.015551,-0.031024,-0.200781,1.123640,-0.044685,-1.036954,1.527127,3.691031,-9.133336
1790538914.7648,-0.019872,-0.040140,-0.218361,-0.018576,-0.037405,-0.218361,0.413367,0.193287,-0.524586,1.872079,2.017931,-6.843476
1790538914.7787,-0.008710,-0.054651,-0.217003,-0.011670,-0.049477,-0.217003,0.971872,-0.654184,-0.673925,-1.270816,-0.026969,-12.626343
1790538914.7925,0.011994,-0.068674,-0.232357,0.004895,-0.062915,-0.232357,1.088430,-1.351102,-0.898542,-1.117504,2.501271,-10.841028
1790538914.8061,0.024256,-0.074483,-0.259479,0.018448,-0.071013,-0.259479,0.600345,-0.839948,-1.050309,0.338959,2.910251,-6.882287
1790538914.8197,0.030603,-0.077612,-0.278233,0.026956,-0.075632,-0.278233,0.330805,-0.491489,-0.925253,1.488799,2.724351,-8.784035
1790538914.8335,0.040949,-0.087948,-0.282115,0.036751,-0.084253,-0.282115,0.618557,-0.627473,-1.022384,-0.619240,-0.398769,-7.774944
1790538914.8474,0.050874,-0.098763,-0.293770,0.046637,-0.094410,-0.293770,0.732686,-0.667540,-0.965319,-0.005993,0.605091,-8.473546
1790538914.8613,0.026619,-0.097871,-0.299704,0.032624,-0.096833,-0.299704,-0.170636,1.726749,-0.873045,2.063719,-0.287229,-15.459560
1790538914.8755,0.020362,-0.081336,-0.307111,0.024041,-0.085985,-0.307111,-1.194157,0.759077,-0.779556,-6.598406,1.125611,-13.751868
1790538914.8900,0.015132,-0.063212,-0.297012,0.017804,-0.070044,-0.297012,-1.439414,0.612166,-0.536727,-3.455511,-2.034688,-9.288581
1790538914.9041,0.011837,-0.045127,-0.295808,0.013627,-0.052602,-0.295808,-1.443056,0.562386,-0.527014,-4.068759,-1.142369,-8.357112
1790538914.9181,0.000024,-0.024820,-0.304581,0.004105,-0.033154,-0.304581,-1.430915,1.079611,-0.489376,-1.424128,1.088431,-5.368651
1790538914.9320,-0.005552,-0.012601,-0.312618,-0.002655,-0.018767,-0.312618,-1.072743,0.824641,-0.446881,-3.493839,-1.216729,-5.058161
1790538914.9458,-0.008935,-0.008431,-0.314617,-0.007051,-0.011532,-0.314617,-0.366112,0.292847,-0.160343,-0.274288,0.939711,-14.722147
1790538914.9597,0.003227,-0.016210,-0.311561,0.000144,-0.014806,-0.311561,0.585775,-1.047566,0.382378,2.561982,3.467951,-16.468651
1790538914.9736,-0.011792,-0.025936,-0.314676,-0.008211,-0.022597,-0.314676,0.765468,0.623093,1.108435,7.237996,3.505131,-12.626343
1790538914.9874,-0.010089,-0.036986,-0.298027,-0.009525,-0.032669,-0.298027,0.824961,-0.302083,1.251704,-0.044320,1.794851,-8.784035
1790538915.0014,-0.007493,-0.047641,-0.283902,-0.008103,-0.043150,-0.283902,0.817676,-0.118747,0.759976,-1.999048,1.683311,-6.765853
1790538915.0156,-0.022155,-0.053075,-0.279485,-0.017939,-0.050097,-0.279485,0.392726,0.789431,0.705340,2.025391,1.051251,-6.688231
1790538915.0295,-0.033319,-0.064043,-0.273458,-0.028705,-0.059860,-0.273458,0.818890,0.686229,0.689556,1.105519,2.315371,-11.733686
1790538915.0432,-0.049153,-0.072395,-0.270557,-0.043019,-0.068635,-0.270557,0.753327,0.964267,0.813399,1.795423,2.947431,-7.192776
1790538915.0569,-0.056583,-0.076762,-0.264714,-0.052514,-0.074323,-0.264714,0.427937,0.525962,0.807328,-0.465928,3.170511,-8.861658
1790538915.0709,-0.057847,-0.079460,-0.257327,-0.056247,-0.077919,-0.257327,0.291953,0.029378,0.818255,0.223975,3.356411,-9.482637
1790538915.0847,-0.048214,-0.084154,-0.235048,-0.050624,-0.082283,-0.235048,0.135328,-0.778026,1.007661,0.185647,-2.034688,-13.984735
1790538915.0987,-0.041126,-0.079731,-0.221674,-0.043975,-0.080497,-0.221674,-0.366112,-0.663897,0.832825,2.293686,1.199971,-14.334035
1790538915.1126,-0.033984,-0.074280,-0.200416,-0.036981,-0.076145,-0.200416,-0.556733,-0.782883,0.770904,3.596838,-1.291089,-9.754315
1790538915.1266,-0.019330,-0.064658,-0.185756,-0.024626,-0.068104,-0.185756,-0.814131,-1.210261,0.534146,1.412143,-0.510309,-7.891378
1790538915.1413,-0.008971,-0.051479,-0.173300,-0.013668,-0.056467,-0.173300,-1.058173,-0.922509,0.309530,2.446998,-1.142369,-7.503266
1790538915.1552,-0.004264,-0.033416,-0.175202,-0.007085,-0.040331,-0.175202,-1.333784,-0.566766,0.134693,2.983590,0.679451,-8.279490
1790538915.1691,-0.000910,-0.017745,-0.179534,-0.002763,-0.024521,-0.179534,-1.138307,-0.388287,-0.078996,2.791950,1.497411,-10.608161
1790538915.1829,-0.012393,-0.016493,-0.193337,-0.009504,-0.018902,-0.193337,-0.080789,0.763934,-0.513659,3.750150,2.203831,-13.014455
1790538915.1967,-0.016385,-0.022018,-0.205289,-0.014321,-0.021083,-0.205289,0.412153,0.613380,-1.123158,-2.803935,2.017931,-12.975644
1790538915.2107,-0.003984,-0.025223,-0.222892,-0.007085,-0.023981,-0.222892,0.342947,-0.537626,-1.036954,-2.803935,2.761531,-7.969000
1790538915.2249,-0.010274,-0.033844,-0.225633,-0.009318,-0.030885,-0.225633,0.555421,0.335342,-0.325467,2.446998,0.419191,-8.357112
1790538915.2390,-0.000050,-0.046850,-0.224430,-0.002830,-0.042061,-0.224430,0.856529,-0.469634,-0.730990,-3.072231,0.233291,-11.306763
1790538915.2530,0.013359,-0.056445,-0.241546,0.008502,-0.052130,-0.241546,0.766682,-0.824164,-0.881544,-0.810880,3.244871,-12.199420
1790538915.2666,0.017914,-0.065524,-0.268380,0.015091,-0.061506,-0.268380,0.810391,-0.292370,-1.022384,0.760567,2.612811,-6.882287
1790538915.2802,0.025925,-0.072797,-0.286310,0.022675,-0.069410,-0.286310,0.619771,-0.499988,-0.813552,-0.197632,1.720491,-6.338930
1790538915.2941,0.035433,-0.081611,-0.297969,0.031606,-0.077951,-0.297969,0.625842,-0.605618,-0.808695,-0.235960,0.902531,-7.270399
1790538915.3082,0.041363,-0.096241,-0.310984,0.038436,-0.090754,-0.310984,1.113927,-0.382216,-0.505160,-0.542584,3.393591,-14.838581
1790538915.3221,0.018183,-0.093539,-0.321285,0.024259,-0.092703,-0.321285,-0.181563,1.687896,-0.449309,0.147319,2.835891,-21.203616
1790538915.3360,0.017176,-0.078713,-0.326963,0.019301,-0.082910,-0.326963,-1.061816,0.295275,-0.444452,-4.873646,1.794851,-14.644525
1790538915.3499,0.016418,-0.064309,-0.302198,0.017283,-0.069889,-0.302198,-1.257293,0.433687,-0.437168,-2.573967,-1.142369,-3.699769
1790538915.3638,0.003666,-0.048281,-0.301420,0.007751,-0.054763,-0.301420,-1.332570,1.069898,-0.357034,-0.810880,-0.770569,-4.670049
1790538915.3780,-0.009636,-0.033916,-0.311713,-0.004420,-0.040170,-0.311713,-0.967113,0.920558,-0.383745,0.760567,1.162791,-5.174595
1790538915.3927,-0.016680,-0.021684,-0.324465,-0.013002,-0.027230,-0.324465,-0.700001,0.615809,-0.394673,-1.194160,4.285911,-10.685784
1790538915.4071,-0.001112,-0.028657,-0.318922,-0.004679,-0.028229,-0.318922,0.355088,-0.994144,-0.102064,-2.880591,-1.439808,-20.543826
1790538915.4210,-0.005020,-0.024746,-0.315720,-0.004918,-0.025791,-0.315720,-0.230128,-0.062897,0.610637,3.405198,1.794851,-7.231588
1790538915.4349,0.000614,-0.032198,-0.296940,-0.001045,-0.030276,-0.296940,0.434007,-0.555838,0.934813,0.070663,-0.175689,-11.811308
1790538915.4489,-0.001497,-0.046978,-0.279361,-0.001361,-0.041968,-0.279361,0.885668,-0.115105,0.871678,1.182175,-0.807749,-4.747672
1790538915.4628,-0.010225,-0.061417,-0.276095,-0.007566,-0.055582,-0.276095,1.088430,0.490752,0.657989,0.913879,1.832031,-8.706413
1790538915.4770,-0.026216,-0.071000,-0.273455,-0.020621,-0.066375,-0.273455,0.744828,1.021332,0.715053,0.837223,2.612811,-10.685784
1790538915.4910,-0.040784,-0.076416,-0.268467,-0.034735,-0.073404,-0.268467,0.443720,0.959411,0.818255,0.453943,2.575631,-10.879840
1790538915.5045,-0.050768,-0.079994,-0.262291,-0.045958,-0.078017,-0.262291,0.304094,0.665588,0.840110,0.377287,1.943571,-8.978091
1790538915.5180,-0.051886,-0.084909,-0.253603,-0.050108,-0.082841,-0.253603,0.378157,0.054875,0.858322,-0.427600,2.166651,-11.462007
1790538915.5319,-0.053932,-0.089297,-0.242494,-0.052785,-0.087360,-0.242494,0.268884,0.077944,0.781831,0.492271,0.790991,-9.909560
1790538915.5457,-0.052573,-0.090857,-0.234926,-0.052637,-0.089808,-0.234926,0.123187,-0.140602,0.715053,0.147319,1.534591,-9.210958
1790538915.5595,-0.049621,-0.091530,-0.225954,-0.050526,-0.091013,-0.225954,0.019985,-0.254731,0.643419,0.223975,0.939711,-9.793126
1790538915.5734,-0.042081,-0.085674,-0.222049,-0.044614,-0.087276,-0.222049,-0.330902,-0.565552,0.610637,-0.159304,2.724351,-9.094525
1790538915.5872,-0.034817,-0.081363,-0.209715,-0.037756,-0.083137,-0.209715,-0.391609,-0.654184,0.543859,2.063719,0.084571,-13.363756
1790538915.6010,-0.032249,-0.071827,-0.196668,-0.033901,-0.075220,-0.196668,-0.782563,-0.419855,0.310744,4.095102,-0.324409,-10.685784
1790538915.6150,-0.025046,-0.059817,-0.188030,-0.027703,-0.064438,-0.188030,-0.969541,-0.671182,0.001138,2.293686,-0.435949,-8.163056
1790538915.6287,-0.015924,-0.043883,-0.186418,-0.019458,-0.050049,-0.186418,-1.212369,-0.849661,-0.139703,2.025391,0.233291,-5.640329
1790538915.6429,-0.002002,-0.024535,-0.188807,-0.007239,-0.032189,-0.188807,-1.373850,-1.110701,-0.233192,1.527127,0.753811,-5.679140
1790538915.6570,-0.018770,-0.027143,-0.190039,-0.015310,-0.028657,-0.190039,0.074621,1.147603,-0.578008,3.826806,-0.547489,-13.713056
1790538915.6708,-0.015400,-0.033905,-0.203111,-0.015373,-0.032330,-0.203111,0.505642,-0.003404,-1.057594,-2.037376,2.464091,-16.546273
1790538915.6848,-0.019693,-0.028573,-0.240516,-0.018397,-0.029700,-0.240516,-0.219201,0.414261,-1.410910,1.757095,3.244871,-8.512357
1790538915.6987,-0.022454,-0.027142,-0.247975,-0.021237,-0.027909,-0.247975,-0.142710,0.148364,-0.939822,2.332014,0.382011,-6.416553
1790538915.7125,-0.020091,-0.034574,-0.246267,-0.020435,-0.032575,-0.246267,0.431579,0.054875,-0.993245,-1.117504,-0.473129,-10.646972
1790538915.7260,-0.004592,-0.045794,-0.254595,-0.009345,-0.041828,-0.254595,0.822533,-0.853303,-1.006600,-2.650623,1.014071,-9.831937
1790538915.7395,0.008606,-0.053598,-0.278112,0.003221,-0.050067,-0.278112,0.668337,-0.774384,-1.181437,-0.964192,2.538451,-9.288581
1790538915.7534,0.013653,-0.055996,-0.304602,0.010523,-0.054218,-0.304602,0.260385,-0.326366,-1.140156,1.527127,2.724351,-9.560259
1790538915.7673,0.016336,-0.059202,-0.324459,0.014592,-0.057707,-0.324459,0.262813,-0.088394,-1.079449,0.262303,1.943571,-9.793126
1790538915.7813,0.023928,-0.063345,-0.344403,0.021127,-0.061654,-0.344403,0.341732,-0.354291,-1.009029,-1.270816,1.794851,-8.279490
1790538915.7950,0.009758,-0.063560,-0.360044,0.013169,-0.062988,-0.360044,0.052767,1.044401,-0.743131,1.527127,2.612811,-13.053266
1790538915.8089,0.002782,-0.052416,-0.371186,0.005898,-0.055588,-0.371186,-0.816559,0.754221,-0.745560,-4.682006,1.906391,-17.206063
1790538915.8229,-0.000861,-0.036414,-0.371927,0.001167,-0.042166,-0.371927,-1.229367,0.621879,-0.626574,-4.835318,0.047391,-9.715504
1790538915.8366,-0.008805,-0.022972,-0.368021,-0.005813,-0.028730,-0.368021,-1.152876,0.804001,-0.545226,-0.964192,-0.584669,-4.475993
1790538915.8504,-0.011381,-0.018520,-0.376294,-0.009710,-0.021583,-0.376294,-0.264124,0.268564,-0.308469,-0.235960,1.497411,-5.912007
1790538915.8643,-0.008137,-0.027587,-0.365295,-0.008609,-0.025786,-0.365295,0.520211,-0.272943,0.182045,0.185647,-0.547489,-9.094525
1790538915.8783,-0.019535,-0.038799,-0.357618,-0.016257,-0.034895,-0.357618,0.833460,0.551459,0.971237,3.060246,2.873071,-12.975644
1790538915.8929,-0.022251,-0.049082,-0.339587,-0.020453,-0.044826,-0.339587,0.654981,0.102227,1.091437,-0.772552,0.716631,-9.094525
1790538915.9069,-0.011612,-0.057665,-0.320783,-0.014265,-0.053813,-0.320783,0.509284,-0.606832,0.876534,-3.953775,-0.287229,-8.201867
1790538915.9208,-0.018056,-0.063168,-0.310467,-0.016919,-0.060361,-0.310467,0.366015,0.286776,0.837682,1.258831,0.753811,-8.589979
1790538915.9347,-0.036888,-0.075617,-0.298306,-0.030897,-0.071040,-0.298306,0.833460,1.060185,1.204352,3.290214,0.382011,-9.870749
1790538915.9486,-0.047207,-0.092723,-0.287907,-0.042314,-0.086218,-0.287907,1.287549,0.649805,1.277201,0.032335,2.203831,-8.279490
1790538915.9622,-0.060332,-0.097271,-0.284055,-0.054926,-0.093955,-0.284055,0.482573,0.869564,1.275987,0.453943,3.802571,-8.512357
1790538915.9757,-0.063101,-0.100822,-0.269292,-0.060648,-0.098762,-0.269292,0.222747,0.236996,1.199496,-1.769080,1.608951,-12.121798
1790538915.9896,-0.053456,-0.101447,-0.252585,-0.055614,-0.100642,-0.252585,-0.074718,-0.678467,0.894746,-1.232488,-0.361589,-13.169700
1790538916.0037,-0.046013,-0.097960,-0.241172,-0.048893,-0.098765,-0.241172,-0.334545,-0.616546,0.592425,1.373815,-0.138509,-12.393476
1790538916.0176,-0.044198,-0.095094,-0.224994,-0.045606,-0.096195,-0.224994,-0.366112,-0.356719,0.750263,3.865134,-1.588528,-11.694875
1790538916.0316,-0.035254,-0.089252,-0.212901,-0.038359,-0.091335,-0.212901,-0.548234,-0.837519,0.562071,2.676966,-0.844929,-9.443825
1790538916.0455,-0.027602,-0.081169,-0.201134,-0.030829,-0.084218,-0.201134,-0.704858,-0.714891,0.517148,1.373815,-0.510309,-6.183686
1790538916.0595,-0.025894,-0.070321,-0.197442,-0.027375,-0.074491,-0.197442,-0.879695,-0.388287,0.410304,3.366870,-0.473129,-7.969000
1790538916.0734,-0.018651,-0.057435,-0.193456,-0.021268,-0.062551,-0.193456,-0.981682,-0.644471,0.192972,1.757095,0.344831,-9.599070
1790538916.0874,-0.011318,-0.041764,-0.193008,-0.014303,-0.048001,-0.193008,-1.207513,-0.672396,-0.087495,2.332014,-0.026969,-8.628791
1790538916.1013,-0.005216,-0.024892,-0.192316,-0.007942,-0.031825,-0.192316,-1.292503,-0.560695,-0.123919,1.910407,0.121751,-8.124245
1790538916.1151,-0.024524,-0.027063,-0.193805,-0.019549,-0.028492,-0.193805,0.055195,1.415928,-0.452951,2.523654,-0.398769,-18.021098
1790538916.1290,-0.029325,-0.037598,-0.200000,-0.026393,-0.034866,-0.200000,0.754541,0.658304,-1.108588,-3.378855,1.571771,-16.313406
1790538916.1434,-0.018771,-0.033340,-0.258098,-0.021057,-0.033798,-0.258098,0.086763,-0.336079,-0.973818,-2.229015,3.244871,-2.923546
1790538916.1574,-0.019504,-0.038061,-0.257433,-0.019970,-0.036782,-0.257433,0.260385,0.103441,-0.459022,0.338959,0.047391,-7.037532
1790538916.1715,-0.005919,-0.056740,-0.248727,-0.010134,-0.050753,-0.248727,1.249911,-0.696679,-0.650857,-4.107087,-0.212869,-12.859210
1790538916.1850,0.015660,-0.072982,-0.254788,0.007921,-0.066313,-0.254788,1.265695,-1.345031,-0.773485,-2.842263,1.943571,-8.939280
1790538916.1986,0.019547,-0.082532,-0.280386,0.016060,-0.077667,-0.280386,0.814034,-0.410141,-0.758915,2.868606,2.724351,-8.667602
1790538916.2126,0.028461,-0.091976,-0.296557,0.024741,-0.087683,-0.296557,0.708403,-0.628687,-0.853618,0.683911,1.460231,-8.589979
1790538916.2267,0.035888,-0.101398,-0.306516,0.032544,-0.097284,-0.306516,0.647696,-0.502416,-0.705493,0.223975,1.088431,-13.907112
1790538916.2407,0.012456,-0.094852,-0.320464,0.018483,-0.095582,-0.320464,-0.463244,1.764387,-0.744346,-1.079176,2.724351,-21.281238
1790538916.2546,0.010437,-0.079326,-0.325775,0.012850,-0.084203,-0.325775,-1.139521,0.323200,-0.676354,-3.685479,1.237151,-17.982287
1790538916.2687,0.014019,-0.064357,-0.298069,0.013669,-0.070311,-0.298069,-1.231796,0.280705,-0.621717,-6.406766,-1.588528,-4.980539
1790538916.2828,0.000020,-0.046805,-0.303016,0.004114,-0.053857,-0.303016,-1.433343,1.017690,-0.360677,0.185647,-0.584669,-3.389280
1790538916.2966,-0.010641,-0.023849,-0.312095,-0.006214,-0.032851,-0.312095,-1.565685,0.963053,-0.450523,-0.964192,1.608951,-4.980539
1790538916.3104,-0.021272,-0.005020,-0.325569,-0.016754,-0.013369,-0.325569,-1.185658,1.006762,-0.446881,-1.577440,2.984611,-6.028441
1790538916.3242,-0.002119,-0.008278,-0.324573,-0.006510,-0.009805,-0.324573,0.104975,-1.255184,-0.325467,-3.378855,-1.068009,-21.281238
1790538916.3381,0.001066,-0.009834,-0.319127,-0.001207,-0.009826,-0.319127,0.113474,-0.388287,0.517148,1.795423,2.835891,-16.391028
1790538916.3519,-0.001985,-0.011827,-0.307078,-0.001752,-0.011227,-0.307078,0.098904,-0.028901,1.047728,1.373815,1.014071,-11.190329
1790538916.3657,0.007501,-0.022395,-0.290903,0.004725,-0.019045,-0.290903,0.650125,-0.844804,0.938455,-0.082648,-0.212869,-5.795574
1790538916.3797,0.000078,-0.033143,-0.299283,0.001472,-0.028913,-0.299283,0.863814,0.216356,0.603352,2.906934,2.166651,-6.998721
1790538916.3941,-0.018807,-0.041445,-0.296819,-0.012723,-0.037686,-0.296819,0.628270,1.107536,0.767261,2.523654,2.873071,-12.121798
1790538916.4082,-0.031063,-0.051224,-0.286413,-0.025561,-0.047163,-0.286413,0.714474,0.788217,0.897175,-0.274288,2.389731,-12.044175
1790538916.4218,-0.044385,-0.054516,-0.281108,-0.038738,-0.052310,-0.281108,0.374514,0.857423,0.949383,0.453943,3.282051,-7.969000
1790538916.4361,-0.043494,-0.055755,-0.268250,-0.042067,-0.054721,-0.268250,0.091619,-0.092036,0.886247,-0.964192,2.017931,-10.064805
1790538916.4512,-0.038033,-0.054229,-0.254806,-0.039244,-0.054377,-0.254806,-0.078361,-0.446566,0.933599,-0.197632,2.166651,-9.016902
1790538916.4657,-0.033035,-0.050346,-0.241999,-0.034898,-0.051555,-0.241999,-0.278694,-0.439281,0.865607,-0.005993,1.720491,-10.258860
1790538916.4798,-0.025525,-0.045605,-0.229690,-0.028337,-0.047390,-0.229690,-0.304191,-0.718534,0.923886,1.297159,2.389731,-10.025993
1790538916.4953,-0.020089,-0.039940,-0.219232,-0.022564,-0.042175,-0.219232,-0.349114,-0.470849,0.695627,0.683911,2.315371,-11.462007
1790538916.5094,-0.010704,-0.035180,-0.212532,-0.014262,-0.037279,-0.212532,-0.316333,-0.735532,0.443085,0.108991,2.129471,-10.918651
1790538916.5230,-0.008677,-0.030872,-0.208889,-0.010352,-0.032794,-0.208889,-0.336973,-0.285085,0.132265,2.293686,1.423051,-11.811308
1790538916.5370,-0.008087,-0.029474,-0.211511,-0.008767,-0.030470,-0.211511,-0.092930,-0.139388,-0.256260,2.830278,1.906391,-11.888930
1790538916.5509,-0.005187,-0.028980,-0.225888,-0.006261,-0.029427,-0.225888,0.039411,-0.122390,-0.834192,0.645583,2.575631,-9.521448
1790538916.5648,-0.004166,-0.038474,-0.240726,-0.004794,-0.035760,-0.240726,0.650125,0.196930,-1.221503,-1.309144,0.679451,-8.861658
1790538916.5786,0.002019,-0.045371,-0.261145,-0.000025,-0.042488,-0.261145,0.589417,-0.254731,-1.276140,-0.274288,1.943571,-6.843476
1790538916.5925,0.005457,-0.050682,-0.268224,0.003813,-0.048224,-0.268224,0.374514,-0.306939,-0.831764,1.910407,0.865351,-6.882287
1790538916.6064,0.016649,-0.056868,-0.278851,0.012798,-0.054274,-0.278851,0.395155,-0.622616,-0.985960,-1.309144,0.605091,-10.569350
1790538916.6202,0.025035,-0.066003,-0.297674,0.021364,-0.062484,-0.297674,0.668337,-0.462350,-1.310136,-0.159304,1.869211,-10.918651
1790538916.6343,0.035024,-0.078948,-0.318154,0.030926,-0.074009,-0.318154,0.865028,-0.507273,-1.527467,-0.964192,0.753811,-9.016902
1790538916.6481,0.040939,-0.085180,-0.337643,0.037935,-0.081829,-0.337643,0.511712,-0.429568,-1.324706,1.182175,1.906391,-6.688231
1790538916.6617,0.048986,-0.094683,-0.348041,0.045671,-0.090827,-0.348041,0.605201,-0.559481,-1.103732,0.607255,0.158931,-11.462007
1790538916.6755,0.043011,-0.105299,-0.363816,0.043809,-0.100958,-0.363816,0.823747,0.462827,-0.790483,0.108991,2.501271,-10.685784
1790538916.6895,0.026253,-0.100340,-0.377301,0.031519,-0.100525,-0.377301,-0.340615,1.258090,-0.701851,-0.465928,2.241011,-15.149070
1790538916.7034,0.021555,-0.091918,-0.385077,0.024545,-0.094500,-0.385077,-0.735212,0.558744,-0.853618,-3.225543,-1.105189,-11.772497
1790538916.7173,0.022589,-0.084766,-0.385588,0.023176,-0.087686,-0.385588,-0.724284,0.224855,-0.738275,-3.953775,-2.294948,-8.784035
1790538916.7313,0.007214,-0.070797,-0.390758,0.012002,-0.075864,-0.390758,-1.200228,1.362506,-0.644786,-1.155832,-0.770569,-3.389280
1790538916.7450,0.000995,-0.053616,-0.395804,0.004297,-0.060291,-0.395804,-1.400561,0.771219,-0.537941,-1.999048,-0.659029,-4.398371
1790538916.7588,-0.015096,-0.035739,-0.405842,-0.009278,-0.043105,-0.405842,-1.364137,1.258090,-0.557368,0.070663,0.270471,-10.879840
1790538916.7727,-0.016636,-0.024001,-0.412822,-0.014429,-0.029732,-0.412822,-0.997466,0.362053,-0.610790,-3.455511,-1.774428,-13.829490
1790538916.7865,-0.006831,-0.025464,-0.417549,-0.009110,-0.026745,-0.417549,0.040625,-0.798667,-0.144559,2.102047,0.567911,-12.665154
1790538916.8002,-0.011708,-0.031102,-0.420865,-0.010929,-0.029795,-0.420865,0.288310,0.084014,0.432158,2.830278,-0.473129,-7.774944
1790538916.8142,-0.010640,-0.038601,-0.413673,-0.010727,-0.035959,-0.413673,0.477716,-0.187953,0.551144,0.415615,0.382011,-6.921098
1790538916.8281,-0.008432,-0.051009,-0.408307,-0.009120,-0.046494,-0.408307,0.742399,-0.201309,0.229396,0.185647,-0.919289,-7.619700
1790538916.8420,-0.020862,-0.060919,-0.410905,-0.017340,-0.056591,-0.410905,0.696262,0.745722,0.347168,2.293686,1.051251,-11.190329
1790538916.8559,-0.033842,-0.072117,-0.406526,-0.028892,-0.067459,-0.406526,0.831032,0.870778,0.506221,0.568927,1.906391,-11.229140
1790538916.8698,-0.049447,-0.078810,-0.404258,-0.043281,-0.075405,-0.404258,0.613700,0.942413,0.787902,2.255358,3.542311,-9.249770
1790538916.8835,-0.064368,-0.081552,-0.397669,-0.058042,-0.079708,-0.397669,0.358730,0.988550,0.800043,0.722239,3.021791,-6.649420
1790538916.8979,-0.068869,-0.085668,-0.385594,-0.065621,-0.083880,-0.385594,0.308951,0.298918,0.810970,-0.427600,2.464091,-10.918651
1790538916.9121,-0.066088,-0.089400,-0.375336,-0.065948,-0.087744,-0.375336,0.249458,-0.237733,0.704126,0.300631,1.720491,-11.500819
1790538916.9260,-0.058213,-0.087998,-0.366641,-0.060534,-0.087922,-0.366641,-0.113571,-0.682109,0.677415,1.948735,1.980751,-13.596623
1790538916.9400,-0.044808,-0.084826,-0.354864,-0.049526,-0.085755,-0.354864,-0.349114,-1.108273,0.611851,2.446998,-0.659029,-11.966553
1790538916.9538,-0.029952,-0.076088,-0.344736,-0.035824,-0.078988,-0.344736,-0.702430,-1.343817,0.639776,3.328542,0.270471,-8.939280
1790538916.9676,-0.029268,-0.066132,-0.331712,-0.031235,-0.069989,-0.331712,-0.839628,-0.400428,0.591211,4.631693,-0.584669,-8.201867
1790538916.9816,-0.022622,-0.053408,-0.321146,-0.025206,-0.058382,-0.321146,-1.032676,-0.695465,0.429730,2.370342,-0.473129,-7.736133
1790538916.9953,-0.017556,-0.040309,-0.319129,-0.019851,-0.045731,-0.319129,-1.015678,-0.569194,0.180831,2.485326,0.307651,-8.046623
1790538917.0091,-0.011539,-0.024657,-0.322959,-0.014033,-0.030979,-0.322959,-1.152876,-0.600762,-0.043786,2.523654,1.051251,-8.706413
1790538917.0231,-0.024996,-0.023794,-0.328781,-0.021707,-0.025950,-0.328781,-0.118427,0.930271,-0.432311,3.558510,0.753811,-16.468651
1790538917.0369,-0.023234,-0.033888,-0.331511,-0.022776,-0.031506,-0.331511,0.755755,0.255208,-1.115873,-5.180270,2.426911,-15.187882
1790538917.0509,-0.013707,-0.037989,-0.343539,-0.016428,-0.036044,-0.343539,0.357516,-0.325152,-1.300423,-3.378855,2.575631,-11.694875
1790538917.0649,-0.015833,-0.043205,-0.360491,-0.016011,-0.041057,-0.360491,0.419438,0.026950,-0.425026,2.446998,1.423051,-7.270399
1790538917.0788,-0.007035,-0.055425,-0.356569,-0.009728,-0.051115,-0.356569,0.829818,-0.410141,-0.597434,-2.688951,0.456371,-11.267951
1790538917.0927,0.012942,-0.069385,-0.362250,0.006141,-0.063904,-0.362250,1.038650,-1.200548,-0.825693,-3.187215,2.055111,-11.772497
1790538917.1064,0.022598,-0.074956,-0.391393,0.017661,-0.071640,-0.391393,0.631912,-0.626259,-0.965319,0.032335,3.542311,-6.610609
1790538917.1199,0.027802,-0.079582,-0.410781,0.024760,-0.077200,-0.410781,0.461932,-0.405285,-0.769843,0.952207,2.352551,-7.153965
1790538917.1339,0.034287,-0.088694,-0.420075,0.031429,-0.085245,-0.420075,0.595488,-0.398000,-0.854833,-0.120976,0.419191,-10.025993
1790538917.1484,0.038912,-0.098737,-0.435610,0.036667,-0.094689,-0.435610,0.764254,-0.296012,-0.633859,0.185647,3.282051,-13.324944
1790538917.1625,0.020227,-0.096896,-0.444343,0.025159,-0.096234,-0.444343,-0.149995,1.388003,-0.517301,-0.734224,1.423051,-17.322497
1790538917.1764,0.012724,-0.082315,-0.448766,0.016455,-0.086491,-0.448766,-1.069101,0.760292,-0.568295,-4.413711,1.274331,-14.799770
1790538917.1903,0.011385,-0.066486,-0.431008,0.012906,-0.072488,-0.431008,-1.337426,0.426402,-0.461450,-3.838791,-1.848788,-7.037532
1790538917.2044,0.005676,-0.049945,-0.425825,0.007845,-0.056708,-0.425825,-1.379921,0.757863,-0.409242,-3.148887,-1.402628,-5.407462
1790538917.2183,-0.011483,-0.034510,-0.432466,-0.005684,-0.041170,-0.432466,-1.037533,1.345508,-0.299970,-0.542584,1.571771,-5.912007
1790538917.2325,-0.025111,-0.016316,-0.443351,-0.019283,-0.023772,-0.443351,-1.061816,1.065041,-0.228335,-0.580912,4.025651,-6.843476
1790538917.2463,-0.009762,-0.019386,-0.438823,-0.012619,-0.020702,-0.438823,0.091619,-1.009928,0.036348,-3.877119,-1.105189,-20.970749
1790538917.2607,-0.007402,-0.021546,-0.427939,-0.008967,-0.021293,-0.427939,0.176609,-0.373717,0.849823,1.450471,2.426911,-11.190329
1790538917.2749,-0.011744,-0.024277,-0.411778,-0.010911,-0.023382,-0.411778,0.126829,0.030592,1.258989,1.603783,0.679451,-11.073895
1790538917.2889,-0.003266,-0.037084,-0.394181,-0.005560,-0.032974,-0.394181,0.716902,-0.504845,0.861964,-2.267343,-1.105189,-5.329839
1790538917.3029,-0.014079,-0.045501,-0.394105,-0.011523,-0.041743,-0.394105,0.627056,0.479825,0.728409,3.213558,1.683311,-8.900469
1790538917.3169,-0.033094,-0.055228,-0.388532,-0.026623,-0.051182,-0.388532,0.729044,1.164601,0.851037,2.293686,2.241011,-11.073895
1790538917.3309,-0.046381,-0.066331,-0.375625,-0.040454,-0.061786,-0.375625,0.787323,0.829498,1.064726,0.492271,1.832031,-10.918651
1790538917.3445,-0.056931,-0.069010,-0.363862,-0.051988,-0.066843,-0.363862,0.295595,0.677730,1.084152,0.262303,3.765391,-10.181238
1790538917.3580,-0.055969,-0.072243,-0.349198,-0.054775,-0.070623,-0.349198,0.259171,-0.102963,1.052585,-0.734224,2.203831,-9.249770
1790538917.3720,-0.054337,-0.074499,-0.336038,-0.054469,-0.073336,-0.336038,0.165682,-0.235305,0.967595,0.760567,1.906391,-9.249770
1790538917.3862,-0.052677,-0.076268,-0.323537,-0.053214,-0.075388,-0.323537,0.104975,-0.162456,0.860750,-0.235960,1.497411,-10.103616
1790538917.4006,-0.048260,-0.073708,-0.311204,-0.049746,-0.074212,-0.311204,-0.083217,-0.453851,0.888676,1.412143,3.467951,-9.521448
1790538917.4147,-0.047831,-0.070363,-0.300522,-0.048406,-0.071517,-0.300522,-0.216773,-0.172170,0.763619,1.680439,2.315371,-11.151518
1790538917.4287,-0.039418,-0.066309,-0.293667,-0.042115,-0.067872,-0.293667,-0.285979,-0.661469,0.440657,0.722239,2.129471,-13.635434
1790538917.4427,-0.036098,-0.057733,-0.287443,-0.037903,-0.060775,-0.287443,-0.684218,-0.434424,0.171118,4.325070,0.196111,-12.820399
1790538917.4566,-0.024754,-0.043465,-0.282805,-0.028699,-0.048658,-0.282805,-1.114024,-1.063350,-0.087495,3.328542,-0.175689,-6.843476
1790538917.4706,-0.016201,-0.025109,-0.289566,-0.019950,-0.032173,-0.289566,-1.201442,-0.854517,-0.171271,1.795423,1.237151,-3.389280
1790538917.4845,-0.026127,-0.026905,-0.291760,-0.024274,-0.028486,-0.291760,0.067336,0.694728,-0.432311,1.642111,0.307651,-8.861658
1790538917.4984,-0.029091,-0.037614,-0.310558,-0.027646,-0.034875,-0.310558,0.851672,0.513821,-1.009029,-3.647151,3.691031,-16.196973
1790538917.5123,-0.018223,-0.040850,-0.332543,-0.021050,-0.039058,-0.332543,0.317450,-0.560695,-1.450976,-0.312616,2.910251,-12.820399
1790538917.5261,-0.025591,-0.038240,-0.344290,-0.024228,-0.038485,-0.344290,-0.165779,0.468897,-1.032097,4.286742,1.571771,-10.569350
1790538917.5399,-0.020884,-0.041361,-0.350140,-0.021887,-0.040499,-0.350140,0.151112,-0.237733,-0.951964,0.683911,-0.138509,-10.530539
1790538917.5537,-0.015769,-0.050578,-0.362761,-0.017605,-0.047554,-0.362761,0.612486,-0.144244,-1.265213,-0.695896,0.084571,-8.822846
1790538917.5672,-0.005652,-0.063137,-0.380343,-0.009238,-0.058462,-0.380343,0.960945,-0.533984,-1.300423,-0.810880,1.125611,-8.201867
1790538917.5808,0.008451,-0.069304,-0.405846,0.003144,-0.066052,-0.405846,0.557850,-0.813237,-1.467974,-0.810880,1.980751,-6.921098
1790538917.5947,0.007215,-0.071258,-0.429199,0.005994,-0.069696,-0.429199,0.226389,0.115582,-1.393912,1.718767,2.278191,-8.163056
1790538917.6085,0.001123,-0.074418,-0.449862,0.002584,-0.073002,-0.449862,0.291953,0.578170,-1.119515,-0.235960,1.943571,-8.939280
1790538917.6224,-0.013179,-0.068140,-0.468988,-0.008450,-0.069598,-0.468988,-0.435319,1.175528,-1.196006,-0.120976,2.203831,-17.555364
1790538917.6364,-0.016689,-0.053729,-0.483469,-0.014217,-0.058489,-0.483469,-1.081242,0.558744,-0.967748,-4.298727,0.233291,-13.907112
1790538917.6508,-0.018376,-0.039248,-0.492133,-0.017128,-0.045020,-0.492133,-1.123737,0.477396,-0.769843,-4.796990,-1.179549,-10.375294
1790538917.6649,-0.022069,-0.022207,-0.504570,-0.020587,-0.029051,-0.504570,-1.208727,0.590312,-0.687281,-1.807408,0.605091,-4.825294
1790538917.6788,-0.022048,-0.013750,-0.512522,-0.021610,-0.018341,-0.512522,-0.703644,0.141079,-0.637501,-0.274288,-0.138509,-6.571797
1790538917.6927,-0.004475,-0.030703,-0.512924,-0.009616,-0.026995,-0.512924,1.121212,-1.181122,-0.281757,-1.692424,-0.435949,-18.409210
1790538917.7067,-0.017433,-0.041516,-0.501918,-0.015088,-0.037160,-0.501918,0.807963,0.678944,0.902031,3.098574,2.873071,-13.286133
1790538917.7207,-0.017636,-0.051401,-0.486561,-0.016871,-0.047129,-0.486561,0.715688,0.001453,1.113292,-1.615768,1.348691,-7.580888
1790538917.7346,-0.004783,-0.055777,-0.473941,-0.008409,-0.053183,-0.473941,0.363587,-0.835091,0.798829,-2.918919,1.943571,-8.434735
1790538917.7486,-0.017948,-0.059174,-0.465591,-0.015087,-0.057376,-0.465591,0.185108,0.740865,0.643419,2.063719,0.270471,-8.784035
1790538917.7625,-0.039357,-0.073054,-0.456075,-0.032076,-0.068351,-0.456075,0.936662,1.349150,0.806114,2.025391,0.344831,-9.443825
1790538917.7763,-0.045993,-0.091770,-0.442393,-0.041818,-0.084745,-0.442393,1.304547,0.423974,1.030730,-0.197632,0.679451,-10.336483
1790538917.7901,-0.065271,-0.099044,-0.427845,-0.058235,-0.094754,-0.427845,0.617343,1.347936,1.181284,-0.159304,3.319231,-9.715504
1790538917.8036,-0.073884,-0.106204,-0.413472,-0.069189,-0.102769,-0.413472,0.499571,0.697156,1.195853,-1.577440,1.423051,-9.094525
1790538917.8172,-0.070917,-0.113344,-0.399858,-0.070399,-0.110172,-0.399858,0.426722,-0.156386,1.108435,-1.500784,0.344831,-9.521448
1790538917.8311,-0.072999,-0.119301,-0.389033,-0.072219,-0.116562,-0.389033,0.329591,0.131366,0.861964,0.147319,-0.026969,-10.763406
1790538917.8450,-0.066196,-0.125531,-0.377613,-0.068003,-0.122841,-0.377613,0.305308,-0.515772,0.911744,0.223975,-0.844929,-11.229140
1790538917.8587,-0.063530,-0.129732,-0.365510,-0.064872,-0.127665,-0.365510,0.181466,-0.323937,0.911744,2.293686,-0.659029,-11.423196
1790538917.8726,-0.058712,-0.125690,-0.351899,-0.060560,-0.126283,-0.351899,-0.442603,-0.564337,0.960310,2.983590,-0.919289,-8.589979
1790538917.8867,-0.057934,-0.119831,-0.338894,-0.058722,-0.121766,-0.338894,-0.583444,-0.272943,0.898389,4.363398,-1.848788,-12.277042
1790538917.9014,-0.051402,-0.104214,-0.329527,-0.053598,-0.109480,-0.329527,-1.173517,-0.589834,0.620350,2.446998,-0.621849,-10.530539
1790538917.9155,-0.040950,-0.081342,-0.325110,-0.044744,-0.089784,-0.325110,-1.704097,-0.923724,0.294960,2.868606,-0.250049,-9.133336
1790538917.9294,-0.028599,-0.055631,-0.321863,-0.033443,-0.065876,-0.321863,-1.946925,-1.070635,0.138336,2.523654,-0.212869,-8.395923
1790538917.9432,-0.013350,-0.028510,-0.319393,-0.019378,-0.039720,-0.319393,-2.048913,-1.386312,0.094627,2.676966,0.010211,-5.601518
1790538917.9570,-0.019888,-0.016043,-0.315160,-0.019735,-0.023146,-0.315160,-1.083670,0.352340,-0.145774,3.865134,-2.034688,-13.868301
1790538917.9710,-0.032276,-0.027160,-0.314367,-0.028514,-0.025956,-0.314367,0.748470,1.193740,-0.720063,-4.030431,0.567911,-15.187882
1790538917.9848,-0.024191,-0.022531,-0.341159,-0.025488,-0.023559,-0.341159,0.009057,-0.237733,-1.198435,-2.803935,6.665430,-7.813756
1790538917.9985,-0.033192,-0.022669,-0.353782,-0.030881,-0.022936,-0.353782,0.006629,0.569671,-0.557368,2.676966,0.939711,-7.891378
1790538918.0125,-0.034124,-0.032784,-0.356105,-0.033151,-0.029830,-0.356105,0.695048,0.321986,-0.682424,-2.650623,0.716631,-12.354665
1790538918.0260,-0.019552,-0.043046,-0.362643,-0.023631,-0.039081,-0.362643,0.877169,-0.775598,-0.785626,-3.033903,2.798711,-9.016902
1790538918.0396,-0.004136,-0.046961,-0.379235,-0.009985,-0.044597,-0.379235,0.512926,-0.871515,-1.089162,-1.040848,2.538451,-4.708860
1790538918.0537,-0.004628,-0.048841,-0.397227,-0.006235,-0.047568,-0.397227,0.328377,-0.027687,-0.904612,2.485326,3.542311,-6.959909
1790538918.0677,0.006183,-0.053456,-0.410478,0.002457,-0.051690,-0.410478,0.410939,-0.615331,-0.858475,-0.887536,2.352551,-8.822846
1790538918.0816,0.006426,-0.060088,-0.423726,0.005235,-0.057568,-0.423726,0.521425,0.080372,-0.864546,0.070663,2.241011,-10.918651
1790538918.0955,-0.003394,-0.057822,-0.439475,-0.000805,-0.057746,-0.439475,0.056409,0.879277,-0.687281,-1.769080,5.959010,-10.996273
1790538918.1093,-0.019700,-0.042766,-0.455245,-0.014031,-0.047260,-0.455245,-1.067887,1.438997,-0.734632,-4.413711,2.984611,-18.758511
1790538918.1231,-0.023390,-0.027684,-0.466071,-0.020583,-0.033557,-0.466071,-1.123737,0.658304,-0.603505,-6.100142,0.679451,-11.462007
1790538918.1371,-0.030093,-0.016425,-0.476737,-0.027240,-0.021565,-0.476737,-0.804418,0.796716,-0.517301,-2.458983,0.865351,-6.532986
1790538918.1516,-0.018628,-0.024902,-0.482508,-0.021212,-0.023901,-0.482508,0.455862,-0.736746,-0.361891,0.108991,-1.030829,-13.208511
1790538918.1657,-0.015547,-0.042721,-0.463455,-0.017246,-0.037075,-0.463455,1.328830,-0.523057,0.599710,3.405198,2.241011,-8.434735
1790538918.1796,-0.032573,-0.054199,-0.437534,-0.027975,-0.049062,-0.437534,0.909951,0.796716,1.108435,6.969700,3.988471,-11.462007
1790538918.1935,-0.028740,-0.062958,-0.424020,-0.028511,-0.058789,-0.424020,0.608844,-0.302083,1.172785,-1.692424,1.423051,-10.064805
1790538918.2076,-0.025624,-0.072771,-0.410067,-0.026490,-0.068576,-0.410067,0.641626,-0.322723,0.974880,0.108991,0.642271,-10.802217
1790538918.2216,-0.039043,-0.078969,-0.396289,-0.035277,-0.075851,-0.396289,0.471646,0.810071,0.976094,0.990535,1.571771,-7.891378
1790538918.2355,-0.051747,-0.091173,-0.379900,-0.046806,-0.086576,-0.379900,0.841959,0.772433,1.190997,1.143847,1.162791,-10.608161
1790538918.2494,-0.060703,-0.100010,-0.366122,-0.056534,-0.095980,-0.366122,0.708403,0.572100,1.147288,0.223975,2.352551,-7.658511
1790538918.2629,-0.065942,-0.102276,-0.351602,-0.063119,-0.100387,-0.351602,0.238530,0.290419,1.118148,0.952207,3.542311,-11.267951
1790538918.2764,-0.059017,-0.103250,-0.333857,-0.060248,-0.102391,-0.333857,0.035769,-0.627473,1.226207,1.258831,2.017931,-13.945924
1790538918.2904,-0.053101,-0.100523,-0.316032,-0.055245,-0.101084,-0.316032,-0.333331,-0.542483,1.062298,1.450471,-0.659029,-13.635434
1790538918.3043,-0.046749,-0.095324,-0.297656,-0.049298,-0.097052,-0.297656,-0.514238,-0.615331,0.929956,1.910407,-0.770569,-10.530539
1790538918.3182,-0.040210,-0.088166,-0.278579,-0.042936,-0.090832,-0.278579,-0.633224,-0.724604,0.793972,2.945262,-0.398769,-8.395923
1790538918.3321,-0.037337,-0.079320,-0.262813,-0.039017,-0.082774,-0.262813,-0.749781,-0.441709,0.657989,2.715294,-0.435949,-8.163056
1790538918.3461,-0.033268,-0.069623,-0.249959,-0.034992,-0.073568,-0.249959,-0.831129,-0.401642,0.511077,1.067191,-0.770569,-8.628791
1790538918.3601,-0.028433,-0.059541,-0.241555,-0.030401,-0.063750,-0.241555,-0.843270,-0.441709,0.229396,1.220503,-0.584669,-8.900469
1790538918.3739,-0.021281,-0.047121,-0.238148,-0.024017,-0.052110,-0.238148,-0.987753,-0.601976,-0.065640,1.565455,-0.175689,-9.210958
1790538918.3880,-0.013613,-0.034319,-0.237910,-0.016734,-0.039656,-0.237910,-0.990181,-0.666325,-0.161557,2.255358,0.010211,-8.939280
1790538918.4024,-0.018165,-0.030767,-0.241627,-0.017736,-0.033433,-0.241627,-0.369755,0.278277,-0.485733,2.638638,-0.956469,-12.277042
1790538918.4164,-0.019128,-0.041199,-0.255931,-0.018710,-0.038869,-0.255931,0.750898,0.331699,-1.032097,-2.420655,1.646131,-14.101168
1790538918.4303,-0.017198,-0.042679,-0.322446,-0.017651,-0.041536,-0.322446,0.540852,0.001453,-1.164439,0.300631,4.694891,-4.281937
1790538918.4441,-0.016764,-0.043170,-0.330982,-0.017030,-0.042680,-0.330982,0.102546,-0.051970,-0.511230,0.990535,1.385871,-5.834385
1790538918.4580,-0.004671,-0.055844,-0.336204,-0.008379,-0.051895,-0.336204,0.885668,-0.591049,-0.542798,-3.723807,0.642271,-9.909560
1790538918.4719,0.011555,-0.072912,-0.351486,0.005575,-0.066607,-0.351486,1.370111,-0.946792,-0.649643,-2.535639,3.282051,-8.900469
1790538918.4854,0.021936,-0.076960,-0.362818,0.017027,-0.073854,-0.362818,0.601559,-0.735532,-0.746774,0.338959,4.174371,-5.717951
1790538918.4990,0.028235,-0.083427,-0.369267,0.024872,-0.080555,-0.369267,0.568777,-0.499988,-0.701851,1.258831,2.538451,-9.055714
1790538918.5131,0.033977,-0.092199,-0.384739,0.031245,-0.088706,-0.384739,0.688977,-0.282657,-0.636287,-1.692424,2.649991,-11.423196
1790538918.5281,0.021072,-0.091309,-0.392345,0.024124,-0.090528,-0.392345,-0.115999,0.895061,-0.650857,0.262303,0.419191,-16.817952
1790538918.5424,0.012654,-0.079993,-0.398411,0.016095,-0.083153,-0.398411,-0.937973,0.756649,-0.551297,-2.650623,-1.700068,-12.781588
1790538918.5566,0.010691,-0.063447,-0.408048,0.012312,-0.069359,-0.408048,-1.279147,0.468897,-0.579222,-3.723807,-0.659029,-7.231588
1790538918.5723,0.002168,-0.049143,-0.401437,0.005211,-0.055208,-0.401437,-1.201442,0.784574,-0.358248,-1.577440,-1.885968,-3.622147
1790538918.5876,-0.003647,-0.030468,-0.411935,-0.000990,-0.037890,-0.411935,-1.240295,0.654661,-0.466307,-2.497311,0.716631,-6.377742
1790538918.6015,-0.013858,-0.015644,-0.421675,-0.009998,-0.022318,-0.421675,-1.042390,0.933914,-0.485733,-1.769080,2.017931,-10.103616
1790538918.6158,0.002002,-0.013217,-0.425389,-0.001598,-0.015948,-0.425389,-0.293264,-0.982002,-0.219836,-3.608823,-0.993649,-20.543826
1790538918.6297,0.001766,-0.011555,-0.409799,0.000756,-0.012873,-0.409799,-0.043151,-0.293584,0.508649,4.133430,3.133331,-10.220049
1790538918.6439,-0.001543,-0.015833,-0.393309,-0.000853,-0.014945,-0.393309,0.317450,-0.061683,0.951811,2.063719,1.646131,-8.589979
1790538918.6581,0.001950,-0.028607,-0.377205,0.001109,-0.024508,-0.377205,0.889311,-0.485418,0.968809,0.760567,0.716631,-5.640329
1790538918.6719,-0.002669,-0.037286,-0.372960,-0.001535,-0.033453,-0.372960,0.675622,0.325629,0.423659,-0.504256,1.385871,-6.106063
1790538918.6859,-0.015227,-0.044606,-0.367494,-0.011119,-0.041260,-0.367494,0.583347,0.800358,0.445514,0.837223,2.278191,-9.366203
1790538918.6997,-0.028567,-0.054229,-0.359289,-0.023332,-0.050339,-0.359289,0.767896,0.844067,0.655560,0.990535,2.575631,-9.637881
1790538918.7131,-0.039259,-0.057778,-0.348139,-0.034481,-0.055546,-0.348139,0.404868,0.631592,0.843752,1.373815,3.505131,-8.589979
1790538918.7261,-0.042520,-0.061602,-0.337858,-0.040108,-0.059785,-0.337858,0.398797,0.131366,0.887461,0.568927,2.835891,-8.201867
1790538918.7389,-0.040949,-0.064657,-0.330386,-0.040697,-0.063196,-0.330386,0.248243,-0.140602,0.903245,-0.772552,1.571771,-8.395923
1790538918.7520,-0.044615,-0.067622,-0.318421,-0.043440,-0.066294,-0.318421,0.189965,0.159291,0.842538,0.875551,1.162791,-10.491728
1790538918.7658,-0.031533,-0.069508,-0.307061,-0.035105,-0.068544,-0.307061,0.072193,-0.999000,0.861964,-0.657568,0.828171,-12.936833
1790538918.7797,-0.024604,-0.061138,-0.290611,-0.027754,-0.063360,-0.290611,-0.528807,-0.700321,0.742978,2.408670,3.133331,-10.918651
1790538918.7936,-0.018073,-0.054109,-0.272277,-0.020978,-0.056884,-0.272277,-0.635652,-0.680895,0.614279,2.178703,-0.621849,-9.443825
1790538918.8075,-0.011876,-0.044298,-0.259032,-0.014606,-0.048073,-0.259032,-0.721856,-0.665111,0.396948,1.795423,0.753811,-6.222497
1790538918.8213,-0.004127,-0.035502,-0.251751,-0.007271,-0.039274,-0.251751,-0.639294,-0.680895,0.200257,1.412143,1.385871,-9.637881
1790538918.8352,-0.002283,-0.027979,-0.246617,-0.003779,-0.031367,-0.246617,-0.547020,-0.308154,-0.071711,4.248414,1.980751,-13.402567
1790538918.8491,-0.008867,-0.030431,-0.246223,-0.007340,-0.030712,-0.246223,0.092833,0.408190,-0.478448,4.095102,0.158931,-16.740329
1790538918.8630,-0.011078,-0.033057,-0.270205,-0.009956,-0.032354,-0.270205,0.194821,0.487110,-1.058808,-2.497311,1.199971,-9.172147
1790538918.8769,-0.008216,-0.040921,-0.293170,-0.008738,-0.038351,-0.293170,0.596702,0.085229,-1.225146,-1.500784,1.311511,-7.969000
1790538918.8910,-0.008264,-0.045411,-0.307893,-0.008406,-0.043293,-0.307893,0.442506,-0.014331,-0.937394,1.757095,2.278191,-6.416553
1790538918.9056,0.000522,-0.053922,-0.317712,-0.002157,-0.050733,-0.317712,0.542066,-0.457493,-0.672711,-1.347472,0.605091,-12.471098
1790538918.9196,0.015333,-0.063682,-0.329827,0.010086,-0.059797,-0.329827,0.680478,-0.940722,-1.002958,-0.312616,1.348691,-13.480189
1790538918.9334,0.025500,-0.068710,-0.354474,0.020876,-0.066036,-0.354474,0.487429,-0.592263,-1.341703,-0.159304,3.802571,-10.220049
1790538918.9471,0.033271,-0.076178,-0.370795,0.029552,-0.073135,-0.370795,0.612486,-0.523057,-1.249429,0.837223,2.203831,-8.046623
1790538918.9606,0.040090,-0.084518,-0.390363,0.036929,-0.081103,-0.390363,0.644054,-0.354291,-1.075806,-0.695896,1.311511,-6.377742
1790538918.9746,0.041741,-0.094152,-0.398541,0.040297,-0.090237,-0.398541,0.701118,-0.102963,-0.694566,0.300631,1.348691,-8.978091
1790538918.9884,0.027279,-0.094877,-0.413426,0.031185,-0.093485,-0.413426,0.017556,1.184027,-0.648428,-2.573967,1.125611,-16.779140
1790538919.0022,0.020467,-0.088244,-0.428028,0.023683,-0.089817,-0.428028,-0.583444,0.698370,-0.574366,-3.723807,-0.807749,-13.713056
1790538919.0161,0.019513,-0.078117,-0.441882,0.020764,-0.081627,-0.441882,-0.889408,0.319558,-0.624146,-3.992103,-1.885968,-11.345574
1790538919.0299,0.012375,-0.064699,-0.454136,0.014892,-0.069777,-0.454136,-1.149234,0.748150,-0.644786,-2.037376,-1.253909,-7.231588
1790538919.0436,0.000123,-0.050793,-0.457464,0.004554,-0.056488,-0.457464,-1.182016,0.913273,-0.400743,0.377287,-1.030829,-6.959909
1790538919.0575,-0.007313,-0.038035,-0.464727,-0.003753,-0.043571,-0.464727,-1.035105,0.688657,-0.384960,-1.079176,-0.398769,-7.153965
1790538919.0713,-0.007944,-0.030487,-0.467239,-0.006687,-0.034412,-0.467239,-0.662363,0.128938,-0.142131,-1.500784,-0.659029,-16.158161
1790538919.0851,-0.000923,-0.031519,-0.460575,-0.002652,-0.032387,-0.460575,-0.037080,-0.575265,0.390877,0.070663,-0.435949,-12.898021
1790538919.0989,-0.010413,-0.030723,-0.442451,-0.008085,-0.031222,-0.442451,-0.041936,0.300132,1.074439,4.171758,1.794851,-9.676693
1790538919.1128,-0.001047,-0.033508,-0.426117,-0.003158,-0.032822,-0.426117,0.187536,-0.430782,0.795187,-3.455511,0.605091,-4.553616
1790538919.1268,0.006991,-0.036521,-0.420412,0.003946,-0.035411,-0.420412,0.237316,-0.533984,0.325314,-1.424128,1.534591,-8.551168
1790538919.1407,-0.006383,-0.041439,-0.412758,-0.003284,-0.039631,-0.412758,0.313807,0.691085,0.565714,3.711822,0.716631,-10.608161
1790538919.1550,-0.011921,-0.046391,-0.403794,-0.009330,-0.044363,-0.403794,0.404868,0.318344,0.644633,-0.120976,2.315371,-9.482637
1790538919.1691,-0.018130,-0.051974,-0.395940,-0.015490,-0.049690,-0.395940,0.425508,0.380265,0.597281,-0.044320,1.534591,-8.007811
1790538919.1827,-0.022729,-0.056697,-0.388542,-0.020557,-0.054595,-0.388542,0.359945,0.275849,0.572999,0.108991,1.608951,-9.948371
1790538919.1963,-0.025388,-0.062098,-0.381858,-0.023939,-0.059847,-0.381858,0.393941,0.137437,0.507435,0.223975,1.311511,-9.987182
1790538919.2103,-0.030054,-0.065713,-0.374152,-0.028219,-0.063953,-0.374152,0.302880,0.226069,0.496508,1.182175,2.092291,-9.909560
1790538919.2244,-0.025254,-0.067281,-0.367550,-0.026143,-0.066282,-0.367550,0.143827,-0.381002,0.423659,0.108991,2.538451,-13.402567
1790538919.2384,-0.024503,-0.064697,-0.358411,-0.024995,-0.065173,-0.358411,-0.199775,-0.221949,0.469796,2.983590,1.460231,-13.596623
1790538919.2524,-0.021387,-0.057244,-0.351715,-0.022469,-0.059623,-0.351715,-0.590729,-0.374931,0.277962,2.370342,0.419191,-10.918651
1790538919.2664,-0.016432,-0.047682,-0.345815,-0.018243,-0.051264,-0.345815,-0.718214,-0.586192,0.134693,3.251886,0.605091,-8.240679
1790538919.2804,-0.010586,-0.035831,-0.343696,-0.012884,-0.040461,-0.343696,-0.872410,-0.581335,-0.071711,2.332014,0.790991,-7.736133
1790538919.2943,-0.004235,-0.022863,-0.343230,-0.006830,-0.028143,-0.343230,-0.965899,-0.634758,-0.206481,3.136902,0.865351,-8.745224
1790538919.3082,-0.009455,-0.019067,-0.343633,-0.008667,-0.021790,-0.343633,-0.411036,0.355982,-0.444452,2.638638,-1.179549,-15.847672
1790538919.3221,-0.016776,-0.021719,-0.364753,-0.014343,-0.021741,-0.364753,0.253100,0.839211,-1.162010,-2.037376,2.575631,-10.957462
1790538919.3360,-0.013112,-0.024500,-0.385101,-0.013481,-0.023672,-0.385101,0.213033,0.092513,-1.389055,-2.382327,1.497411,-10.608161
1790538919.3499,-0.019781,-0.021817,-0.404944,-0.017891,-0.022374,-0.404944,-0.099001,0.292847,-0.862117,4.171758,1.943571,-5.989630
1790538919.3638,-0.015900,-0.025459,-0.412662,-0.016497,-0.024533,-0.412662,0.221532,-0.031329,-0.647214,-2.343999,0.679451,-9.987182
1790538919.3778,-0.005699,-0.034575,-0.423394,-0.008939,-0.031563,-0.423394,0.617343,-0.480562,-0.928895,-2.612295,0.902531,-13.402567
1790538919.3919,0.005399,-0.038434,-0.443692,0.001097,-0.036373,-0.443692,0.355088,-0.576479,-1.282211,-0.657568,2.873071,-10.103616
1790538919.4061,0.006428,-0.037354,-0.460307,0.004829,-0.037060,-0.460307,-0.021296,0.007523,-1.061237,0.952207,2.092291,-8.318301
1790538919.4198,0.009230,-0.037919,-0.476194,0.007910,-0.037662,-0.476194,0.147470,-0.147887,-0.937394,0.837223,2.426911,-7.153965
1790538919.4339,0.016933,-0.046175,-0.485970,0.014226,-0.043621,-0.485970,0.548137,-0.405285,-0.786841,-0.925864,0.976891,-11.384385
1790538919.4477,0.023057,-0.052613,-0.497390,0.020408,-0.049916,-0.497390,0.492286,-0.338507,-0.741917,-0.465928,2.092291,-10.763406
1790538919.4617,0.014461,-0.051023,-0.509636,0.016245,-0.050691,-0.509636,-0.044365,0.653447,-0.655713,0.990535,3.876931,-14.178791
1790538919.4757,0.001943,-0.045584,-0.522709,0.006234,-0.047116,-0.522709,-0.392824,1.071112,-0.627788,-2.152360,2.092291,-15.110259
1790538919.4894,-0.004148,-0.037209,-0.532307,-0.001034,-0.040181,-0.532307,-0.663577,0.665588,-0.497875,-3.110559,0.605091,-12.703965
1790538919.5033,-0.005126,-0.029739,-0.538119,-0.003898,-0.032872,-0.538119,-0.650222,0.387550,-0.335180,-3.110559,-0.398769,-6.494175
1790538919.5172,-0.008665,-0.024853,-0.539714,-0.007235,-0.027259,-0.539714,-0.391609,0.320772,-0.029216,-0.389272,0.382011,-4.398371
1790538919.5310,-0.008260,-0.026562,-0.537135,-0.007953,-0.026771,-0.537135,0.114688,-0.050755,0.186901,-0.044320,1.237151,-8.745224
1790538919.5449,-0.002512,-0.037029,-0.524318,-0.004144,-0.033952,-0.524318,0.675622,-0.503630,0.861964,-1.002520,0.233291,-14.101168
1790538919.5588,-0.015101,-0.044146,-0.505396,-0.011814,-0.041087,-0.505396,0.527496,0.614594,1.341551,2.025391,1.757671,-9.831937
1790538919.5726,-0.003296,-0.050223,-0.487437,-0.005851,-0.047483,-0.487437,0.436436,-0.846018,1.257775,-2.727279,1.311511,-8.822846
1790538919.5864,0.001922,-0.054571,-0.475930,-0.000410,-0.052445,-0.475930,0.291953,-0.362790,0.857108,-2.037376,0.828171,-9.443825
1790538919.6003,-0.016550,-0.056768,-0.463505,-0.011708,-0.055471,-0.463505,0.118330,1.072326,0.853465,2.791950,0.567911,-9.405014
1790538919.6142,-0.027224,-0.067302,-0.453815,-0.022569,-0.063752,-0.453815,0.713260,0.703227,0.793972,-0.159304,0.828171,-13.053266
1790538919.6282,-0.040584,-0.071814,-0.441916,-0.035179,-0.069395,-0.441916,0.438864,0.825855,0.860750,1.028863,3.282051,-9.094525
1790538919.6416,-0.048018,-0.074940,-0.432177,-0.044167,-0.073276,-0.432177,0.270098,0.523534,0.837682,-0.427600,2.389731,-10.802217
1790538919.6556,-0.049471,-0.078321,-0.422423,-0.047880,-0.076808,-0.422423,0.236102,0.065802,0.751477,-0.159304,1.571771,-10.258860
1790538919.6696,-0.046307,-0.082701,-0.411640,-0.046779,-0.080933,-0.411640,0.234888,-0.334865,0.679843,1.373815,0.270471,-12.160609
1790538919.6836,-0.041451,-0.083385,-0.399342,-0.043049,-0.082649,-0.399342,-0.003084,-0.541269,0.613065,3.136902,0.642271,-11.656063
1790538919.6974,-0.036966,-0.081170,-0.386850,-0.038791,-0.081614,-0.386850,-0.275052,-0.555838,0.526861,3.558510,-0.659029,-10.297672
1790538919.7114,-0.029402,-0.075664,-0.375787,-0.032219,-0.077449,-0.375787,-0.515452,-0.791382,0.412732,3.980118,-0.844929,-10.181238
1790538919.7253,-0.019617,-0.065627,-0.367235,-0.023397,-0.069174,-0.367235,-0.843270,-0.892156,0.263392,2.485326,-0.696209,-8.745224
1790538919.7392,-0.016262,-0.050310,-0.364719,-0.018403,-0.055969,-0.364719,-1.192943,-0.543697,0.141978,4.401726,-0.324409,-8.046623
1790538919.7531,-0.008178,-0.031306,-0.363112,-0.011245,-0.038705,-0.363112,-1.422416,-0.754958,-0.032858,2.523654,0.419191,-8.279490
1790538919.7669,0.002370,-0.013491,-0.362698,-0.001714,-0.021055,-0.362698,-1.360495,-0.969861,-0.134846,2.791950,0.344831,-7.503266
1790538919.7807,-0.001050,-0.004154,-0.367974,-0.001249,-0.009224,-0.367974,-0.704858,0.128938,-0.253832,2.332014,1.051251,-8.279490
1790538919.7946,-0.010031,-0.016808,-0.379813,-0.007396,-0.014533,-0.379813,0.926949,0.978837,-0.830550,-3.493839,2.092291,-11.694875
1790538919.8083,-0.001720,-0.024702,-0.399953,-0.003423,-0.021651,-0.399953,0.629484,-0.175812,-1.369629,-3.378855,2.129471,-8.822846
1790538919.8223,0.000469,-0.022466,-0.437298,-0.000698,-0.022221,-0.437298,0.146256,-0.032543,-1.022384,0.415615,4.694891,-5.950818
1790538919.8362,0.002073,-0.030587,-0.449951,0.001242,-0.028077,-0.449951,0.614914,0.114368,-0.734632,-2.305671,2.315371,-11.345574
1790538919.8501,0.015195,-0.045443,-0.460531,0.011009,-0.040234,-0.460531,1.048363,-0.682109,-0.926467,-3.110559,1.311511,-12.160609
1790538919.8636,0.031131,-0.058076,-0.477487,0.025095,-0.052723,-0.477487,1.030151,-0.920081,-1.006600,-2.573967,3.058971,-9.443825
1790538919.8772,0.032446,-0.063806,-0.488943,0.030241,-0.060481,-0.488943,0.566349,-0.124818,-0.836620,1.297159,2.910251,-6.921098
1790538919.8910,0.041233,-0.072849,-0.500961,0.037936,-0.069139,-0.500961,0.619771,-0.501202,-0.873045,-0.849208,0.716631,-7.503266
1790538919.9056,0.049653,-0.084947,-0.508378,0.046138,-0.080204,-0.508378,0.753327,-0.558267,-0.871831,0.607255,0.307651,-9.482637
1790538919.9195,0.035312,-0.093703,-0.514044,0.038560,-0.089653,-0.514044,0.583347,0.958197,-0.739489,3.175230,1.237151,-16.002917
1790538919.9335,0.018701,-0.077923,-0.525928,0.024658,-0.081442,-0.525928,-1.158947,1.397716,-0.564653,-4.682006,1.348691,-16.817952
1790538919.9474,0.021610,-0.061721,-0.527904,0.022524,-0.067637,-0.527904,-1.273077,0.161719,-0.429883,-4.452038,-0.547489,-6.688231
1790538919.9612,0.014951,-0.045743,-0.531385,0.017223,-0.052311,-0.531385,-1.355638,0.788217,-0.489376,-1.999048,-0.919289,-4.475993
1790538919.9750,0.000595,-0.031464,-0.532548,0.005583,-0.037718,-0.532548,-1.124951,0.902346,-0.219836,1.028863,0.010211,-3.350469
1790538919.9888,-0.010186,-0.019074,-0.539209,-0.005455,-0.024667,-0.539209,-0.927046,0.863494,-0.409242,-0.120976,0.939711,-9.366203
1790538920.0026,0.008167,-0.024648,-0.536772,0.004080,-0.024654,-0.536772,0.319878,-1.324390,-0.166414,-0.082648,0.344831,-21.281238
1790538920.0166,0.007267,-0.026046,-0.529630,0.006311,-0.025629,-0.529630,0.183894,-0.146673,0.647061,2.523654,3.951291,-13.557812
1790538920.0305,0.003504,-0.027632,-0.513537,0.004346,-0.027031,-0.513537,0.141399,0.052447,1.218922,0.530599,1.869211,-10.025993
1790538920.0444,0.015127,-0.038704,-0.492207,0.011893,-0.035202,-0.492207,0.637983,-0.812022,0.991878,-1.692424,-0.807749,-5.135783
1790538920.0582,-0.000001,-0.047708,-0.487775,0.003567,-0.043957,-0.487775,0.680478,0.833140,0.634920,2.791950,1.534591,-8.784035
1790538920.0720,-0.017254,-0.059981,-0.478247,-0.011007,-0.055174,-0.478247,0.846816,1.094181,0.796401,1.872079,0.790991,-14.566903
1790538920.0858,-0.031153,-0.069288,-0.471004,-0.025109,-0.065053,-0.471004,0.749684,0.845281,0.911744,1.182175,2.315371,-8.512357
1790538920.0994,-0.042963,-0.074305,-0.465164,-0.037607,-0.071530,-0.465164,0.478930,0.749364,0.880177,0.837223,2.910251,-8.551168
1790538920.1129,-0.045216,-0.078587,-0.456208,-0.042933,-0.076470,-0.456208,0.373300,0.142293,0.929956,-0.734224,2.687171,-10.142427
1790538920.1270,-0.039671,-0.082124,-0.442146,-0.040650,-0.080428,-0.442146,0.174181,-0.455065,0.870463,-0.120976,0.382011,-12.393476
1790538920.1410,-0.035253,-0.082367,-0.430011,-0.036872,-0.081785,-0.430011,-0.049221,-0.431996,0.706554,1.488799,0.419191,-13.247322
1790538920.1556,-0.028508,-0.080271,-0.412210,-0.031017,-0.080725,-0.412210,-0.285979,-0.646899,0.779403,2.370342,-1.179549,-10.996273
1790538920.1695,-0.026112,-0.076013,-0.397385,-0.027583,-0.077426,-0.397385,-0.452316,-0.382216,0.672558,2.485326,-1.068009,-9.327392
1790538920.1834,-0.020976,-0.070192,-0.385491,-0.022958,-0.072362,-0.385491,-0.578587,-0.474491,0.337455,1.105519,-1.179549,-8.124245
1790538920.1973,-0.017707,-0.061555,-0.380388,-0.019282,-0.064798,-0.380388,-0.765565,-0.370075,0.076414,2.370342,-1.291089,-10.258860
1790538920.2114,-0.011839,-0.048735,-0.381647,-0.014072,-0.053554,-0.381647,-1.019321,-0.512129,-0.250190,2.408670,-0.621849,-10.918651
1790538920.2254,-0.004985,-0.030473,-0.389905,-0.007711,-0.037397,-0.389905,-1.366565,-0.591049,-0.442024,2.523654,0.270471,-9.133336
1790538920.2394,-0.006594,-0.021347,-0.395696,-0.006929,-0.026162,-0.395696,-0.803204,0.088871,-0.712778,3.481854,-1.402628,-14.256413
1790538920.2534,-0.011594,-0.028226,-0.401421,-0.010194,-0.027607,-0.401421,0.419438,0.670445,-1.187507,-2.305671,0.270471,-12.315854
1790538920.2673,-0.003837,-0.035103,-0.413762,-0.005744,-0.032854,-0.413762,0.511712,-0.224378,-1.313778,-2.803935,1.906391,-11.772497
1790538920.2812,-0.005341,-0.035705,-0.429128,-0.005462,-0.034850,-0.429128,0.043053,0.109511,-0.671497,1.182175,0.976891,-7.270399
1790538920.2951,-0.001116,-0.047356,-0.428572,-0.002420,-0.043604,-0.428572,0.755755,-0.085966,-0.749202,-2.343999,-0.101329,-12.548721
1790538920.3089,0.014040,-0.056132,-0.436374,0.009102,-0.052374,-0.436374,0.628270,-0.918867,-0.907041,-1.539112,1.608951,-12.587532
1790538920.3226,0.024305,-0.062932,-0.458386,0.019745,-0.059764,-0.458386,0.569991,-0.628687,-1.169295,-0.120976,2.278191,-8.551168
1790538920.3361,0.028361,-0.065566,-0.486447,0.025776,-0.063826,-0.486447,0.319878,-0.281442,-0.922824,0.722239,2.389731,-6.688231
1790538920.3497,0.030437,-0.068087,-0.513853,0.029039,-0.066808,-0.513853,0.355088,-0.119961,-0.802624,0.415615,3.096151,-7.115154
1790538920.3636,0.040893,-0.076416,-0.523470,0.037337,-0.073534,-0.523470,0.620985,-0.656612,-0.602291,-1.040848,1.832031,-10.569350
1790538920.3774,0.025270,-0.077703,-0.529375,0.028890,-0.076452,-0.529375,0.046696,1.118463,-0.381317,1.067191,0.790991,-14.799770
