t,imu_roll,imu_pitch,imu_yaw,lpf_roll,lpf_pitch,lpf_yaw,gyro_x,gyro_y,gyro_z,acc_x,acc_y,acc_z
1790543537.3528,-0.047365,-0.026636,-0.015492,-0.033156,-0.018645,-0.015492,-0.000835,0.002801,-0.005969,0.377287,1.274331,-9.909560
1790543537.3683,-0.022436,-0.026167,-0.009221,-0.025652,-0.023910,-0.009221,0.010092,0.004015,0.003744,-0.159304,1.311511,-9.987182
1790543537.3820,-0.023798,-0.027799,-0.009631,-0.024354,-0.026632,-0.009631,-0.009334,-0.006912,0.002530,0.147319,1.237151,-9.870749
1790543537.3957,-0.017741,-0.029305,-0.007962,-0.019725,-0.028503,-0.007962,-0.019047,-0.020268,-0.002327,-0.120976,1.237151,-10.142427
1790543537.4097,-0.023917,-0.027475,-0.009916,-0.022659,-0.027784,-0.009916,-0.022690,-0.010555,-0.002327,0.377287,1.348691,-9.948371
1790543537.4235,-0.025677,-0.026861,-0.010542,-0.024772,-0.027138,-0.010542,-0.029975,0.016157,-0.009612,0.223975,1.348691,-10.297672
1790543537.4377,-0.028086,-0.025386,-0.011223,-0.027092,-0.025912,-0.011223,-0.050615,0.016157,0.004958,0.300631,1.385871,-10.181238
1790543537.4523,-0.026984,-0.022396,-0.011039,-0.027016,-0.023451,-0.011039,-0.114965,0.038011,0.017099,0.032335,1.460231,-10.142427
1790543537.4665,-0.023853,-0.018121,-0.009976,-0.024802,-0.019720,-0.009976,-0.153817,-0.053050,0.068093,-0.082648,1.534591,-9.831937
1790543537.4807,-0.024552,-0.014638,-0.007389,-0.024627,-0.016162,-0.007389,-0.158674,-0.084617,0.165225,0.262303,1.497411,-9.715504
1790543537.4946,-0.026831,-0.014978,-0.001978,-0.026170,-0.015333,-0.001978,-0.104037,-0.128326,0.324277,0.492271,1.237151,-9.948371
1790543537.5086,-0.033836,-0.017213,0.005215,-0.031536,-0.016649,0.005215,0.018591,-0.042122,0.468760,0.913879,1.125611,-9.482637
1790543537.5225,-0.041111,-0.022514,0.015072,-0.038239,-0.020754,0.015072,0.150932,0.007658,0.568320,0.913879,0.865351,-8.861658
1790543537.5364,-0.033255,-0.019516,0.021706,-0.034750,-0.019887,0.021706,-0.021476,-0.045765,0.527039,-0.849208,1.720491,-9.754315
1790543537.5504,-0.022013,-0.025298,0.033942,-0.025834,-0.023675,0.033942,-0.034831,-0.314090,0.354631,-1.155832,0.530731,-12.044175
1790543537.5644,-0.022986,-0.029748,0.035353,-0.023840,-0.027926,0.035353,-0.094324,-0.006912,0.252643,0.223975,0.456371,-11.306763
1790543537.5784,-0.021759,-0.032362,0.040246,-0.022384,-0.031031,0.040246,0.086583,-0.074904,0.268427,-0.005993,1.014071,-9.909560
1790543537.5923,-0.021849,-0.033960,0.041911,-0.022009,-0.033081,0.041911,0.075656,-0.089474,0.252643,0.262303,1.199971,-10.530539
1790543537.6059,-0.025864,-0.032536,0.038935,-0.024708,-0.032700,0.038935,-0.042116,0.099932,0.167653,0.530599,1.311511,-9.366203
1790543537.6195,-0.024173,-0.031139,0.041365,-0.024333,-0.031607,0.041365,0.010092,-0.068833,0.075378,-0.044320,1.534591,-9.870749
1790543537.6335,-0.027000,-0.029015,0.036352,-0.026200,-0.029793,0.036352,-0.057900,-0.004484,0.011029,0.722239,1.534591,-9.948371
1790543537.6473,-0.026955,-0.025862,0.032859,-0.026728,-0.027041,0.032859,-0.073684,-0.111328,-0.004755,0.453943,1.720491,-9.754315
1790543537.6614,-0.023114,-0.017748,0.028974,-0.024198,-0.020536,0.028974,-0.220595,-0.274023,0.003744,0.108991,2.575631,-10.181238
1790543537.6755,-0.018336,-0.005777,0.026513,-0.020095,-0.010205,0.026513,-0.407573,-0.542349,0.087520,0.645583,2.798711,-9.288581
1790543537.6893,-0.019222,0.002545,0.033110,-0.019484,-0.001280,0.033110,-0.396646,-0.352943,0.113017,1.527127,2.501271,-10.802217
1790543537.7036,-0.021704,-0.003650,0.023477,-0.021038,-0.002939,0.023477,0.534601,0.330619,-0.131026,-0.542584,2.798711,-14.877392
1790543537.7176,-0.024503,-0.001568,-0.007913,-0.023463,-0.001980,-0.007913,0.583167,0.572234,-0.345929,-1.079176,4.620531,-10.414105
1790543537.7316,-0.010871,0.010879,-0.032795,-0.014649,0.007021,-0.032795,0.087797,-0.269167,-0.727170,-2.075704,4.880791,-8.007811
1790543537.7456,0.002617,0.007571,-0.067810,-0.002562,0.007406,-0.067810,0.322126,-0.533850,-1.017350,-1.040848,1.906391,-9.327392
1790543537.7594,-0.001591,0.008825,-0.007692,-0.001882,0.008399,-0.007692,0.313627,-0.028767,-1.147263,1.412143,2.984611,-8.667602
1790543537.7734,-0.015193,0.009313,0.057020,-0.011200,0.009039,0.057020,0.019805,0.420466,-1.115695,2.600310,1.943571,-9.366203
1790543537.7874,-0.004709,0.008060,-0.008820,-0.006656,0.008354,-0.008820,-0.094324,-0.133183,-1.190972,-1.424128,0.716631,-8.745224
1790543537.8014,-0.006479,0.005432,-0.037397,-0.006532,0.006309,-0.037397,0.123007,0.439892,-1.323313,-0.350944,1.162791,-8.473546
1790543537.8152,-0.008929,0.005635,-0.068425,-0.008210,0.005837,-0.068425,0.096296,0.515169,-1.510291,-0.350944,1.943571,-8.939280
1790543537.8289,-0.013331,0.011377,-0.069450,-0.011795,0.009715,-0.069450,-0.249734,0.381613,-1.541859,0.722239,2.241011,-8.900469
1790543537.8426,-0.023929,0.012297,-0.055858,-0.020289,0.011523,-0.055858,-0.014191,0.681506,-1.454441,1.412143,1.757671,-8.978091
1790543537.8561,-0.019775,0.010750,-0.094037,-0.019929,0.010982,-0.094037,-0.093110,0.098718,-1.238324,-0.734224,0.605091,-9.948371
1790543537.8702,-0.019961,0.011858,-0.093205,-0.019951,0.011595,-0.093205,0.001593,0.021013,-1.020992,0.568927,1.423051,-6.804665
1790543537.8842,-0.023044,0.012686,-0.099890,-0.022116,0.012359,-0.099890,-0.084611,0.313621,-0.868010,0.338959,1.385871,-9.055714
1790543537.8982,-0.024045,0.016178,-0.113581,-0.023466,0.015032,-0.113581,-0.198740,0.229846,-0.955428,0.185647,2.278191,-11.656063
1790543537.9121,-0.028012,0.016723,-0.127164,-0.026648,0.016216,-0.127164,-0.023904,0.449605,-0.911719,0.185647,2.017931,-11.500819
1790543537.9262,-0.020999,0.009601,-0.134078,-0.022694,0.011586,-0.134078,0.492106,-0.405151,-0.627610,0.185647,2.389731,-15.420749
1790543537.9403,-0.022354,0.005784,-0.115312,-0.022456,0.007525,-0.115312,0.300272,-0.127112,-0.065462,1.680439,2.278191,-12.432287
1790543537.9548,-0.025935,-0.002737,-0.110156,-0.024891,0.000342,-0.110156,0.482393,0.200706,0.559821,-0.082648,0.865351,-9.055714
1790543537.9693,-0.034309,-0.015931,-0.093255,-0.031484,-0.011049,-0.093255,0.603807,0.392541,0.836645,0.492271,-0.324409,-8.124245
1790543537.9838,-0.032947,-0.024063,-0.126739,-0.032508,-0.020159,-0.126739,0.375549,0.211633,0.910708,-1.999048,0.233291,-8.434735
1790543537.9983,-0.021764,-0.031563,-0.173693,-0.024987,-0.028142,-0.173693,0.207997,-0.246098,0.671522,-4.107087,-0.696209,-10.414105
1790543538.0125,-0.027955,-0.036856,-0.170651,-0.027064,-0.034242,-0.170651,0.114508,0.363401,0.766225,0.070663,-0.435949,-11.462007
1790543538.0264,-0.034858,-0.044630,-0.159243,-0.032520,-0.041514,-0.159243,0.424114,0.311193,0.880354,0.645583,0.307651,-8.434735
1790543538.0405,-0.043727,-0.055887,-0.144912,-0.040365,-0.051575,-0.144912,0.730078,0.462961,1.027266,0.645583,0.642271,-8.978091
1790543538.0545,-0.055231,-0.063280,-0.130655,-0.050771,-0.059769,-0.130655,0.619591,0.885482,0.998126,-0.465928,1.348691,-7.542077
1790543538.0682,-0.059639,-0.064005,-0.115176,-0.056979,-0.062734,-0.115176,0.238351,0.549165,0.833003,-1.424128,2.166651,-8.861658
1790543538.0820,-0.056834,-0.065639,-0.110349,-0.056877,-0.064767,-0.110349,0.154575,-0.020268,0.694591,-1.309144,1.497411,-10.724595
1790543538.0960,-0.051355,-0.069266,-0.105816,-0.053011,-0.067917,-0.105816,0.143648,-0.467072,0.588960,0.798895,0.382011,-14.450469
1790543538.1100,-0.049836,-0.067519,-0.092130,-0.050789,-0.067638,-0.092130,-0.240021,-0.374797,0.444477,2.370342,0.196111,-11.927742
1790543538.1236,-0.050170,-0.064767,-0.073757,-0.050355,-0.065628,-0.073757,-0.440355,-0.384510,0.483330,3.213558,-0.770569,-10.608161
1790543538.1366,-0.050052,-0.061129,-0.054621,-0.050143,-0.062478,-0.054621,-0.538700,-0.515638,0.519754,3.251886,-0.696209,-8.861658
1790543538.1496,-0.046268,-0.052224,-0.039483,-0.047431,-0.055300,-0.039483,-0.927226,-0.870167,0.449334,3.251886,-0.473129,-7.542077
1790543538.1630,-0.044895,-0.042995,-0.028865,-0.045656,-0.046687,-0.028865,-0.923583,-0.649193,0.451762,3.673494,-0.473129,-8.822846
1790543538.1768,-0.038586,-0.032510,-0.014766,-0.040707,-0.036763,-0.014766,-1.029214,-0.776678,0.201649,2.446998,-0.770569,-9.482637
1790543538.1907,-0.033025,-0.016414,-0.026665,-0.035330,-0.022519,-0.026665,-1.264757,-0.868953,0.045025,3.481854,0.382011,-8.822846
1790543538.2051,-0.046214,-0.012022,-0.018324,-0.042949,-0.015171,-0.018324,-0.496205,0.687577,-0.078818,3.328542,-0.138509,-13.674245
1790543538.2192,-0.041179,-0.019396,-0.029120,-0.041710,-0.018128,-0.029120,0.594094,-0.170821,-0.677390,-0.580912,2.203831,-12.393476
1790543538.2333,-0.032365,-0.012845,-0.182802,-0.035169,-0.014430,-0.182802,0.584381,-0.461001,-0.960285,-0.005993,3.691031,-2.535434
1790543538.2474,-0.034183,-0.008893,-0.143540,-0.034479,-0.010554,-0.143540,0.189785,-0.112542,-0.412707,1.335487,2.910251,-4.320748
1790543538.2613,-0.029841,-0.018123,-0.137339,-0.031233,-0.015852,-0.137339,0.608664,-0.318947,-0.428491,0.837223,1.199971,-12.393476
1790543538.2753,-0.015667,-0.027204,-0.161754,-0.020337,-0.023798,-0.161754,0.768931,-0.810674,-0.707743,-1.155832,2.649991,-12.509909
1790543538.2888,-0.011293,-0.029159,-0.177760,-0.014006,-0.027551,-0.177760,0.370692,-0.361442,-0.904434,1.335487,3.244871,-10.064805
1790543538.3024,-0.011750,-0.032375,-0.170791,-0.012427,-0.030928,-0.170791,0.243207,-0.066405,-0.790305,1.258831,1.162791,-7.891378
1790543538.3160,-0.002786,-0.038383,-0.191589,-0.005679,-0.036146,-0.191589,0.447183,-0.368726,-0.891079,-1.155832,0.828171,-7.037532
1790543538.3300,0.007627,-0.045587,-0.223511,0.003635,-0.042754,-0.223511,0.647517,-0.491355,-0.878937,-0.964192,1.423051,-6.338930
1790543538.3441,-0.005083,-0.051863,-0.232509,-0.002468,-0.049131,-0.232509,0.420472,0.975329,-0.587543,-0.235960,1.497411,-16.235784
1790543538.3581,-0.016681,-0.040632,-0.243967,-0.012417,-0.043181,-0.243967,-0.811882,1.274008,-0.542620,-5.985158,1.757671,-16.779140
1790543538.3722,-0.012536,-0.026458,-0.235071,-0.012500,-0.031475,-0.235071,-1.111775,0.207991,-0.470986,-5.831846,0.344831,-12.859210
1790543538.3862,-0.019874,-0.014013,-0.241865,-0.017662,-0.019252,-0.241865,-0.979434,0.908551,-0.389638,-1.462456,0.233291,-4.786483
1790543538.4003,-0.039866,0.000736,-0.230640,-0.033205,-0.005260,-0.230640,-0.726892,1.371139,-0.336216,0.722239,2.538451,-5.096972
1790543538.4141,-0.043653,0.006406,-0.247142,-0.040519,0.002906,-0.247142,-0.333510,0.487244,-0.337430,-0.772552,1.608951,-7.192776
1790543538.4281,-0.040774,-0.003090,-0.239217,-0.040697,-0.001291,-0.239217,0.673014,-0.291021,0.082663,1.527127,2.575631,-16.740329
1790543538.4424,-0.041113,0.002015,-0.239260,-0.040988,0.001023,-0.239260,-0.258233,0.031940,0.497900,-0.542584,2.947431,-10.724595
1790543538.4566,-0.038082,0.003030,-0.216208,-0.038954,0.002428,-0.216208,-0.170815,-0.430648,0.718873,1.412143,1.014071,-12.121798
1790543538.4706,-0.034631,-0.011112,-0.193753,-0.035928,-0.007050,-0.193753,0.671799,-0.242456,0.563463,-0.619240,-1.402628,-7.891378
1790543538.4847,-0.051638,-0.015494,-0.119935,-0.046925,-0.012961,-0.119935,0.492106,0.537024,0.474831,4.363398,2.389731,-5.368651
1790543538.4986,-0.066105,-0.021097,-0.110569,-0.060351,-0.018656,-0.110569,0.443541,0.856343,0.655738,1.718767,2.241011,-10.957462
1790543538.5126,-0.072854,-0.027870,-0.105195,-0.069103,-0.025106,-0.105195,0.504248,0.387684,0.833003,0.568927,2.129471,-10.918651
1790543538.5262,-0.080484,-0.031610,-0.106703,-0.077070,-0.029659,-0.106703,0.362193,0.500599,0.904637,0.300631,2.389731,-9.172147
1790543538.5398,-0.082910,-0.033108,-0.106205,-0.081158,-0.032074,-0.106205,0.181286,0.109646,0.881569,0.415615,2.575631,-10.142427
1790543538.5538,-0.083869,-0.036637,-0.101855,-0.083056,-0.035268,-0.101855,0.248064,0.014942,0.795364,0.300631,1.534591,-8.900469
1790543538.5677,-0.081302,-0.038697,-0.106643,-0.081828,-0.037668,-0.106643,0.189785,-0.155037,0.655738,-0.312616,2.017931,-9.831937
1790543538.5815,-0.070465,-0.037063,-0.100680,-0.073874,-0.037245,-0.100680,-0.145318,-0.830100,0.644811,0.300631,1.720491,-12.354665
1790543538.5954,-0.061506,-0.031500,-0.062470,-0.065216,-0.033224,-0.062470,-0.575125,-0.928446,0.604744,3.175230,-0.138509,-12.665154
1790543538.6094,-0.055679,-0.025331,-0.020676,-0.058540,-0.027699,-0.020676,-0.688040,-0.746325,0.486972,3.520182,-1.030829,-11.306763
1790543538.6234,-0.051551,-0.013401,0.001310,-0.053648,-0.017691,0.001310,-0.960008,-0.787605,0.234431,3.673494,0.270471,-6.183686
1790543538.6373,-0.040210,-0.002077,0.021874,-0.044241,-0.006761,0.021874,-0.944224,-1.069286,0.106946,1.757095,0.270471,-6.571797
1790543538.6511,-0.032534,0.007518,0.032896,-0.036046,0.003235,0.032896,-0.783957,-0.821601,-0.031466,2.217030,0.530731,-7.076343
1790543538.6652,-0.040852,0.002224,0.040398,-0.039410,0.002527,0.040398,0.261419,0.528525,-0.479485,2.983590,0.530731,-15.731238
1790543538.6792,-0.033779,-0.000641,0.003794,-0.035469,0.000310,0.003794,0.311199,-0.161108,-1.165475,-2.382327,3.356411,-15.187882
1790543538.6929,-0.028599,-0.000231,-0.016833,-0.030660,-0.000068,-0.016833,0.016163,-0.151395,-1.229825,-0.235960,1.906391,-10.724595
1790543538.7073,-0.027253,-0.002066,-0.034327,-0.028275,-0.001467,-0.034327,0.201926,-0.270381,-0.628824,1.718767,1.088431,-4.825294
1790543538.7213,-0.019588,-0.016032,-0.040848,-0.022194,-0.011663,-0.040848,0.917056,-0.323803,-0.689531,-1.539112,0.456371,-11.229140
1790543538.7353,-0.001454,-0.032811,-0.070985,-0.007676,-0.026466,-0.070985,1.199951,-0.930874,-1.023420,-2.727279,1.088431,-9.754315
1790543538.7491,0.011525,-0.038922,-0.112873,0.005765,-0.035185,-0.112873,0.653587,-0.833743,-1.291746,0.300631,3.021791,-8.279490
1790543538.7628,0.014096,-0.043538,-0.134217,0.011596,-0.041032,-0.134217,0.464181,-0.240027,-1.080485,1.335487,2.092291,-7.231588
1790543538.7768,0.023000,-0.054531,-0.151863,0.019579,-0.050481,-0.151863,0.750719,-0.471929,-1.103554,-0.580912,0.605091,-6.416553
1790543538.7908,0.015668,-0.070041,-0.135192,0.016841,-0.064173,-0.135192,0.918270,0.391326,-0.946929,3.213558,-0.919289,-14.644525
1790543538.8047,0.004014,-0.063131,-0.157765,0.007862,-0.063444,-0.157765,-0.575125,1.133167,-0.745382,-5.525222,0.121751,-19.651168
1790543538.8187,0.005920,-0.050871,-0.180174,0.006503,-0.054643,-0.180174,-0.996432,0.229846,-0.656749,-6.023486,-0.621849,-15.575993
1790543538.8325,0.003788,-0.035894,-0.194582,0.004602,-0.041519,-0.194582,-1.342462,0.592874,-0.688317,-3.187215,-1.439808,-6.532986
1790543538.8466,-0.007513,-0.020635,-0.182888,-0.003878,-0.026900,-0.182888,-1.451735,0.906123,-0.478271,-0.274288,-1.774428,-5.873196
1790543538.8606,-0.017089,-0.003581,-0.194573,-0.013126,-0.010577,-0.194573,-1.338820,0.992327,-0.684675,-1.884064,0.010211,-7.852567
1790543538.8746,-0.032382,0.013513,-0.231282,-0.026605,0.006286,-0.231282,-1.115418,1.624895,-0.704101,-3.033903,1.608951,-5.562707
1790543538.8887,-0.034742,0.017716,-0.241214,-0.032301,0.014287,-0.241214,-0.255805,0.377971,-0.385996,-1.539112,2.241011,-10.297672
1790543538.9027,-0.027920,0.005309,-0.239403,-0.029234,0.008002,-0.239403,0.736149,-0.413650,0.017099,-0.964192,-0.212869,-11.500819
1790543538.9166,-0.032019,0.008360,-0.232203,-0.031184,0.008253,-0.232203,-0.215738,0.131500,0.483330,1.373815,1.943571,-10.802217
1790543538.9307,-0.031962,0.004113,-0.223748,-0.031729,0.005355,-0.223748,0.239565,-0.099187,0.527039,0.262303,0.828171,-8.628791
1790543538.9448,-0.026777,-0.003574,-0.222710,-0.028262,-0.000895,-0.222710,0.535815,-0.123470,0.252643,-2.458983,1.014071,-6.727042
1790543538.9593,-0.042454,-0.014656,-0.217554,-0.038196,-0.010528,-0.217554,0.759218,0.890339,0.406839,2.217030,1.460231,-10.181238
1790543538.9734,-0.050592,-0.027617,-0.212222,-0.046874,-0.022490,-0.212222,0.940125,0.532167,0.478473,0.262303,1.906391,-11.229140
1790543538.9871,-0.066473,-0.034837,-0.205652,-0.060593,-0.031133,-0.205652,0.699725,1.008111,0.643597,1.450471,3.393591,-8.861658
1790543539.0007,-0.074482,-0.038899,-0.199541,-0.070316,-0.036569,-0.199541,0.410759,0.561306,0.744370,-0.082648,3.170511,-10.103616
1790543539.0147,-0.077783,-0.046496,-0.191060,-0.075542,-0.043518,-0.191060,0.496963,0.192207,0.715231,0.185647,1.088431,-9.754315
1790543539.0287,-0.072506,-0.051080,-0.179419,-0.073417,-0.048811,-0.179419,0.200712,-0.471929,0.710375,1.067191,0.047391,-13.635434
1790543539.0427,-0.060875,-0.048005,-0.165962,-0.064638,-0.048247,-0.165962,-0.247306,-0.972155,0.750441,1.642111,1.720491,-13.053266
1790543539.0567,-0.059369,-0.041624,-0.145921,-0.060950,-0.043611,-0.145921,-0.584838,-0.453716,0.762583,4.631693,-0.101329,-11.539630
1790543539.0708,-0.055714,-0.033617,-0.127998,-0.057285,-0.036615,-0.127998,-0.756032,-0.620054,0.616886,3.443526,-0.770569,-7.736133
1790543539.0848,-0.044327,-0.019647,-0.119041,-0.048214,-0.024737,-0.119041,-1.066852,-1.066858,0.349774,2.485326,0.567911,-8.240679
1790543539.0988,-0.032751,-0.004113,-0.114440,-0.037390,-0.010300,-0.114440,-1.160341,-1.120280,0.185865,2.983590,0.828171,-8.124245
1790543539.1139,-0.018422,0.010654,-0.107611,-0.024112,0.004368,-0.107611,-1.034070,-1.180988,0.116659,2.293686,0.642271,-7.503266
1790543539.1286,-0.026299,0.013341,-0.110064,-0.025643,0.010649,-0.110064,-0.208454,0.398611,-0.124955,3.021918,1.608951,-12.238231
1790543539.1435,-0.025184,0.006652,-0.129143,-0.025322,0.007851,-0.129143,0.510318,0.224989,-0.834014,-3.148887,3.282051,-14.411658
1790543539.1578,-0.010475,0.001130,-0.145096,-0.014929,0.003147,-0.145096,0.393761,-0.671048,-1.103554,-2.880591,1.683311,-10.685784
1790543539.1728,-0.011510,-0.000042,-0.161580,-0.012536,0.000915,-0.161580,0.181286,0.016157,-0.490412,1.488799,2.352551,-7.658511
1790543539.1867,-0.006297,-0.010765,-0.169668,-0.008169,-0.007261,-0.169668,0.779858,-0.175678,-0.450345,-1.999048,1.683311,-10.724595
1790543539.2006,0.009419,-0.023199,-0.186158,0.004143,-0.018417,-0.186158,0.944981,-0.826458,-0.829158,-2.995575,2.129471,-10.025993
1790543539.2144,0.019832,-0.028695,-0.209805,0.015125,-0.025612,-0.209805,0.561312,-0.598199,-1.001566,-0.580912,3.058971,-7.852567
1790543539.2281,0.020329,-0.032052,-0.227701,0.018768,-0.030120,-0.227701,0.418044,-0.011769,-0.895935,0.645583,2.873071,-6.998721
1790543539.2421,0.026949,-0.041130,-0.237774,0.024495,-0.037827,-0.237774,0.564955,-0.351728,-0.976069,-0.427600,0.456371,-8.939280
1790543539.2561,0.034377,-0.047737,-0.258170,0.031412,-0.044764,-0.258170,0.585595,-0.393009,-0.851012,-1.155832,3.282051,-10.530539
1790543539.2701,0.023432,-0.051915,-0.260489,0.025826,-0.049770,-0.260489,0.199498,0.783494,-0.730812,1.182175,0.344831,-16.740329
1790543539.2840,0.015531,-0.037509,-0.273898,0.018620,-0.041187,-0.273898,-1.119060,0.897624,-0.622754,-6.675061,0.419191,-16.817952
1790543539.2980,0.016468,-0.023702,-0.270981,0.017114,-0.028947,-0.270981,-1.194337,0.419252,-0.503768,-5.333582,-1.439808,-7.037532
1790543539.3119,0.005950,-0.008937,-0.281215,0.009299,-0.014940,-0.281215,-1.188266,1.034822,-0.439418,-1.079176,-0.026969,-3.544525
1790543539.3258,-0.007697,0.008531,-0.289241,-0.002598,0.001489,-0.289241,-1.157913,1.043321,-0.551119,0.185647,1.274331,-3.971448
1790543539.3397,-0.020851,0.021506,-0.299245,-0.015375,0.015501,-0.299245,-0.876232,1.085816,-0.453988,-0.542584,2.352551,-9.172147
1790543539.3535,-0.011317,0.018385,-0.301366,-0.012534,0.017520,-0.301366,0.126650,-0.623696,-0.183234,-1.232488,0.828171,-21.281238
1790543539.3674,-0.017040,0.020650,-0.294976,-0.015688,0.019711,-0.294976,-0.141676,0.278411,0.315778,1.757095,3.021791,-14.372847
1790543539.3814,-0.020000,0.019199,-0.282856,-0.018707,0.019352,-0.282856,0.052587,0.033155,0.791722,0.645583,1.125611,-10.103616
1790543539.3952,-0.017241,0.009511,-0.275987,-0.017681,0.012464,-0.275987,0.521246,-0.144110,0.525825,-1.654096,-0.696209,-8.163056
1790543539.4090,-0.024772,0.003903,-0.265541,-0.022645,0.006471,-0.265541,0.460539,0.234702,0.324277,3.328542,2.055111,-8.124245
1790543539.4230,-0.040096,-0.008277,-0.259772,-0.034860,-0.003853,-0.259772,0.829638,0.993541,0.489401,0.952207,1.051251,-10.918651
1790543539.4366,-0.049123,-0.019149,-0.250599,-0.044844,-0.014560,-0.250599,0.832066,0.550379,0.818433,0.415615,2.278191,-10.336483
1790543539.4504,-0.063512,-0.027215,-0.240360,-0.057912,-0.023419,-0.240360,0.618377,0.909765,0.911922,0.913879,2.315371,-10.336483
1790543539.4648,-0.068717,-0.030544,-0.232673,-0.065475,-0.028406,-0.232673,0.254135,0.394969,0.840288,-1.385800,2.092291,-9.133336
1790543539.4793,-0.068128,-0.034137,-0.223771,-0.067333,-0.032418,-0.223771,0.266276,-0.085831,0.701876,-0.044320,1.869211,-8.900469
1790543539.4932,-0.057267,-0.036098,-0.212011,-0.060286,-0.034994,-0.212011,0.092654,-0.901735,0.667880,1.143847,1.348691,-12.626343
1790543539.5071,-0.051217,-0.029921,-0.195120,-0.053938,-0.031443,-0.195120,-0.496205,-0.707472,0.635098,3.405198,1.014071,-10.685784
1790543539.5211,-0.048321,-0.023413,-0.173594,-0.050006,-0.025822,-0.173594,-0.618834,-0.567846,0.714017,4.286742,-0.584669,-9.599070
1790543539.5351,-0.041641,-0.016442,-0.156648,-0.044151,-0.019256,-0.156648,-0.657686,-0.805818,0.609601,2.791950,-0.473129,-7.115154
1790543539.5490,-0.029385,-0.005335,-0.149413,-0.033815,-0.009511,-0.149413,-0.808240,-1.110567,0.420195,2.217030,1.348691,-8.745224
1790543539.5630,-0.022510,0.008589,-0.143452,-0.025901,0.003159,-0.143452,-1.054711,-0.792462,0.233217,4.171758,0.865351,-10.336483
1790543539.5769,-0.027369,0.014760,-0.141011,-0.026929,0.011280,-0.141011,-0.502276,0.201920,-0.055749,4.401726,1.460231,-17.555364
1790543539.5908,-0.028567,0.015565,-0.150848,-0.028076,0.014279,-0.150848,-0.042116,0.297838,-0.599685,-1.769080,2.315371,-12.859210
1790543539.6048,-0.019082,0.013147,-0.168258,-0.021780,0.013487,-0.168258,0.216496,-0.428219,-1.121766,-1.002520,2.352551,-10.957462
1790543539.6186,-0.011849,0.011525,-0.202513,-0.014828,0.012113,-0.202513,0.390118,-0.434290,-0.684675,0.147319,2.352551,-3.893825
1790543539.6326,-0.010103,0.000204,-0.200688,-0.011520,0.003777,-0.200688,0.736149,-0.068833,-0.342287,-0.044320,0.419191,-7.930189
1790543539.6465,0.005601,-0.008602,-0.213199,0.000465,-0.004889,-0.213199,0.626876,-0.850741,-0.855869,-2.918919,1.757671,-11.656063
1790543539.6604,0.012134,-0.016602,-0.230889,0.008633,-0.013088,-0.230889,0.592880,-0.335945,-1.197043,0.223975,2.092291,-10.724595
1790543539.6741,0.014882,-0.020669,-0.256351,0.013007,-0.018395,-0.256351,0.430185,-0.066405,-1.147263,0.070663,3.021791,-7.930189
1790543539.6876,0.022421,-0.027022,-0.270116,0.019597,-0.024434,-0.270116,0.450826,-0.388153,-0.923861,-0.964192,1.237151,-8.939280
1790543539.7016,0.034450,-0.037747,-0.287945,0.029994,-0.033753,-0.287945,0.832066,-0.702616,-0.823087,-1.040848,1.980751,-7.580888
1790543539.7159,0.042904,-0.046490,-0.304066,0.039031,-0.042669,-0.304066,0.726436,-0.516852,-0.751453,-0.389272,3.430771,-9.831937
1790543539.7299,0.000814,-0.037271,-0.297841,0.012279,-0.038890,-0.297841,-0.662543,2.865748,-0.783020,4.670021,2.389731,-12.044175
1790543539.7440,0.005560,-0.024460,-0.316655,0.007576,-0.028789,-0.316655,-0.991575,0.087791,-0.810946,-7.594933,0.047391,-13.480189
1790543539.7587,0.002928,-0.016253,-0.313880,0.004322,-0.020014,-0.313880,-0.819167,0.418038,-0.691960,-2.114032,-2.257768,-8.473546
1790543539.7727,-0.006100,-0.006869,-0.305384,-0.002973,-0.010812,-0.305384,-0.996432,0.784709,-0.297363,-1.079176,-2.629568,-7.037532
1790543539.7870,-0.012753,0.010785,-0.321197,-0.009819,0.004306,-0.321197,-1.279327,0.898838,-0.581473,-3.378855,0.493551,-5.795574
1790543539.8011,-0.029549,0.021245,-0.330563,-0.023630,0.016163,-0.330563,-0.804597,1.369925,-0.440632,-0.772552,0.567911,-7.503266
1790543539.8150,-0.024053,0.023854,-0.334445,-0.023926,0.021547,-0.334445,-0.151389,-0.270381,-0.320432,-1.654096,3.914111,-16.895574
1790543539.8292,-0.016634,0.022518,-0.327512,-0.018822,0.022226,-0.327512,0.148504,-0.661335,0.355845,1.412143,3.728211,-13.674245
1790543539.8434,-0.021326,0.018867,-0.318207,-0.020575,0.019875,-0.318207,0.216496,0.197064,0.686092,0.377287,1.497411,-12.238231
1790543539.8575,-0.022007,0.008610,-0.308814,-0.021578,0.011989,-0.308814,0.624448,-0.119827,0.625385,0.645583,0.084571,-6.377742
1790543539.8718,-0.035913,0.000809,-0.309561,-0.031613,0.004163,-0.309561,0.614735,0.437464,0.421409,2.370342,0.679451,-2.030888
1790543539.8860,-0.052950,-0.009877,-0.303904,-0.046549,-0.005665,-0.303904,0.765288,0.931620,0.578033,2.906934,1.646131,-8.357112
1790543539.8998,-0.066348,-0.019631,-0.301104,-0.060408,-0.015441,-0.301104,0.770145,0.859985,0.697019,0.837223,2.426911,-8.939280
1790543539.9136,-0.078066,-0.026287,-0.299199,-0.072769,-0.023033,-0.299199,0.566169,0.779852,0.774724,0.300631,3.133331,-9.793126
1790543539.9279,-0.082392,-0.031256,-0.294029,-0.079505,-0.028789,-0.294029,0.375549,0.243201,0.739514,0.223975,2.724351,-11.035084
1790543539.9423,-0.075995,-0.036036,-0.279546,-0.077048,-0.033862,-0.279546,0.243207,-0.566632,0.741942,1.182175,0.753811,-11.617252
1790543539.9564,-0.063464,-0.034684,-0.265417,-0.067540,-0.034438,-0.265417,-0.202383,-0.950301,0.621742,0.300631,0.307651,-12.354665
1790543539.9710,-0.056139,-0.031576,-0.243351,-0.059559,-0.032435,-0.243351,-0.352937,-0.736612,0.728587,2.408670,-0.324409,-8.822846
1790543539.9854,-0.049918,-0.024381,-0.224450,-0.052810,-0.026797,-0.224450,-0.635832,-0.684403,0.602316,2.676966,-0.324409,-8.551168
1790543539.9997,-0.038668,-0.014265,-0.208732,-0.042911,-0.018025,-0.208732,-0.851949,-1.021935,0.364344,3.328542,-0.659029,-10.569350
1790543540.0138,-0.028045,0.002601,-0.210273,-0.032505,-0.003587,-0.210273,-1.247759,-1.072929,0.122730,4.938317,0.753811,-9.715504
1790543540.0278,-0.017559,0.021344,-0.209867,-0.022043,0.013865,-0.209867,-1.381315,-1.015864,-0.003541,3.443526,0.790991,-7.969000
1790543540.0421,-0.019891,0.032417,-0.216490,-0.020536,0.026852,-0.216490,-0.777886,-0.029981,-0.088531,2.906934,1.497411,-8.163056
1790543540.0559,-0.031209,0.029311,-0.238356,-0.028007,0.028573,-0.238356,0.341553,1.088244,-0.526836,-2.420655,3.542311,-10.142427
1790543540.0699,-0.016389,0.026285,-0.253388,-0.019875,0.026971,-0.253388,0.285702,-0.594557,-1.107196,-4.911974,2.910251,-10.375294
1790543540.0840,-0.011924,0.025734,-0.273455,-0.014310,0.026105,-0.273455,0.135149,-0.281308,-0.809731,1.105519,2.092291,-6.338930
1790543540.0982,-0.009039,0.019258,-0.277952,-0.010620,0.021312,-0.277952,0.433828,-0.080975,-0.513481,-0.542584,1.460231,-10.064805
1790543540.1123,0.005484,0.009037,-0.287093,0.000653,0.012720,-0.287093,0.703367,-0.756038,-0.945715,-2.612295,1.757671,-12.044175
1790543540.1262,0.020204,-0.002218,-0.310778,0.014339,0.002263,-0.310778,0.903701,-0.825244,-1.036776,-1.347472,2.947431,-8.667602
1790543540.1398,0.026539,-0.007099,-0.339435,0.022879,-0.004290,-0.339435,0.585595,-0.365084,-1.018564,0.262303,3.393591,-5.795574
1790543540.1535,0.028557,-0.013820,-0.358422,0.026854,-0.010961,-0.358422,0.554028,-0.056692,-1.013707,0.338959,2.129471,-7.037532
1790543540.1674,0.036479,-0.023268,-0.370614,0.033591,-0.019576,-0.370614,0.651159,-0.469500,-0.988210,-0.044320,1.423051,-9.482637
1790543540.1814,0.020830,-0.029988,-0.368675,0.024658,-0.026865,-0.368675,0.335482,1.161093,-0.886222,1.297159,-0.212869,-15.071448
1790543540.1953,0.005474,-0.022325,-0.380541,0.011229,-0.023687,-0.380541,-0.592123,1.288577,-0.673747,-3.148887,2.092291,-20.621448
1790543540.2091,0.008477,-0.008744,-0.375853,0.009303,-0.013227,-0.375853,-1.037713,0.297838,-0.662820,-6.790045,0.567911,-7.697322
1790543540.2234,0.004037,0.005838,-0.378601,0.005617,0.000118,-0.378601,-1.161555,0.696076,-0.563261,-2.573967,-0.361589,-4.747672
1790543540.2375,-0.009715,0.024581,-0.388850,-0.005116,0.017242,-0.388850,-1.338820,1.079745,-0.568117,0.070663,0.753811,-4.010259
1790543540.2514,-0.021366,0.038165,-0.406649,-0.016491,0.031888,-0.406649,-0.917513,1.176876,-0.665248,-2.152360,1.869211,-6.649420
1790543540.2654,-0.011633,0.028470,-0.408531,-0.013091,0.029496,-0.408531,0.540672,-0.498640,-0.494054,-3.493839,-1.253909,-18.952567
1790543540.2794,-0.013227,0.025997,-0.403642,-0.013186,0.027047,-0.403642,0.201926,-0.023910,0.222289,2.561982,3.691031,-16.313406
1790543540.2933,-0.019486,0.024637,-0.392058,-0.017596,0.025360,-0.392058,0.000379,0.306337,0.643597,0.722239,0.456371,-13.363756
1790543540.3074,-0.023153,0.016854,-0.378316,-0.021486,0.019406,-0.378316,0.444755,0.072007,0.704304,0.913879,0.084571,-7.969000
1790543540.3212,-0.031894,0.003179,-0.372069,-0.028772,0.008047,-0.372069,0.923127,0.697290,0.442049,-1.232488,0.456371,-6.649420
1790543540.3352,-0.048838,-0.006892,-0.366740,-0.042818,-0.002410,-0.366740,0.708224,1.023895,0.557393,2.293686,1.534591,-10.336483
1790543540.3492,-0.060343,-0.017291,-0.360310,-0.055086,-0.012827,-0.360310,0.805355,0.742214,0.782009,0.070663,2.538451,-8.745224
1790543540.3627,-0.073513,-0.026758,-0.350697,-0.067985,-0.022579,-0.350697,0.719151,0.827204,0.954417,1.105519,2.352551,-10.258860
1790543540.3763,-0.080042,-0.031951,-0.341871,-0.076425,-0.029139,-0.341871,0.411973,0.483601,0.968987,-1.270816,2.761531,-10.375294
1790543540.3903,-0.080969,-0.035225,-0.332176,-0.079606,-0.033400,-0.332176,0.239565,0.008872,0.837859,-0.005993,1.906391,-8.589979
1790543540.4043,-0.070923,-0.038713,-0.318307,-0.073528,-0.037119,-0.318307,0.154575,-0.822816,0.854857,0.607255,0.753811,-11.927742
1790543540.4182,-0.065831,-0.036673,-0.301242,-0.068140,-0.036807,-0.301242,-0.267947,-0.624910,0.733443,3.750150,-0.064149,-11.384385
1790543540.4322,-0.063579,-0.034644,-0.281168,-0.064947,-0.035293,-0.281168,-0.352937,-0.452502,0.772296,3.596838,-1.476988,-9.443825
1790543540.4461,-0.055337,-0.026680,-0.265631,-0.058220,-0.029264,-0.265631,-0.719607,-0.848313,0.735871,2.217030,-0.361589,-7.309210
1790543540.4603,-0.043892,-0.013586,-0.254155,-0.048190,-0.018289,-0.254155,-1.007359,-1.026791,0.602316,2.408670,0.456371,-9.793126
1790543540.4751,-0.031453,0.005811,-0.248680,-0.036474,-0.001419,-0.248680,-1.383743,-1.119066,0.344918,4.516709,0.605091,-11.306763
1790543540.4893,-0.018037,0.027282,-0.250383,-0.023568,0.018672,-0.250383,-1.567079,-1.304830,0.120301,4.746677,0.605091,-7.852567
1790543540.5036,-0.017049,0.031206,-0.241162,-0.019005,0.027446,-0.241162,-0.391789,-0.134397,-0.094602,1.833751,0.121751,-13.208511
1790543540.5176,-0.022155,0.024171,-0.254449,-0.021210,0.025153,-0.254449,0.561312,0.623228,-0.661606,-2.458983,3.244871,-11.966553
1790543540.5320,-0.005140,0.018566,-0.285624,-0.009961,0.020542,-0.285624,0.572240,-0.930874,-1.114481,-1.194160,4.100011,-8.395923
1790543540.5460,-0.008254,0.014732,-0.301253,-0.008766,0.016475,-0.301253,0.330625,0.161854,-0.632467,2.561982,2.426911,-8.939280
1790543540.5600,-0.005338,0.008667,-0.309083,-0.006367,0.011009,-0.309083,0.433828,-0.116185,-0.552333,-0.082648,1.720491,-9.948371
1790543540.5741,0.010103,-0.001704,-0.320039,0.005162,0.002110,-0.320039,0.748290,-0.828886,-0.927503,-2.497311,1.869211,-10.025993
1790543540.5878,0.019228,-0.009998,-0.348063,0.015008,-0.006366,-0.348063,0.744648,-0.527779,-1.119338,0.070663,2.649991,-6.300119
1790543540.6016,0.023940,-0.012698,-0.378984,0.021261,-0.010798,-0.378984,0.415615,-0.108900,-1.099911,-0.964192,3.356411,-5.562707
1790543540.6156,0.025125,-0.017099,-0.397791,0.023966,-0.015209,-0.397791,0.326983,0.057437,-1.103554,-0.120976,1.720491,-7.813756
1790543540.6298,0.030960,-0.024481,-0.413100,0.028862,-0.021700,-0.413100,0.472680,-0.246098,-1.104768,-0.695896,1.199971,-9.637881
1790543540.6438,0.022782,-0.027019,-0.431173,0.024606,-0.025423,-0.431173,0.271132,0.664508,-0.793948,0.147319,3.467951,-10.414105
1790543540.6577,0.004266,-0.014678,-0.448521,0.010368,-0.017902,-0.448521,-0.893230,1.571473,-0.767236,-4.107087,3.133331,-18.797322
1790543540.6718,0.005797,0.001124,-0.444565,0.007169,-0.004584,-0.444565,-1.217406,0.235916,-0.598471,-6.521750,0.233291,-13.868301
1790543540.6857,0.000091,0.016917,-0.419699,0.002214,0.010467,-0.419699,-1.273256,0.947404,-0.617897,-3.762135,-0.398769,-3.932637
1790543540.6997,-0.015467,0.038611,-0.431650,-0.010163,0.030168,-0.431650,-1.171268,1.230299,-0.531693,-0.005993,1.943571,-1.720399
1790543540.7138,-0.024299,0.049517,-0.444495,-0.020058,0.043712,-0.444495,-0.672256,0.773781,-0.640966,0.032335,1.683311,-4.475993
1790543540.7279,-0.008319,0.035033,-0.450268,-0.011841,0.037636,-0.450268,1.044541,-1.025577,-0.168664,-2.650623,3.951291,-17.438931
1790543540.7419,-0.021807,0.037687,-0.423217,-0.018817,0.037672,-0.423217,-0.100395,0.628084,0.531896,5.321597,4.508991,-12.082986
1790543540.7558,-0.023851,0.033451,-0.408026,-0.022341,0.034717,-0.408026,0.198284,-0.021482,0.881569,0.108991,0.456371,-12.471098
1790543540.7698,-0.021905,0.022794,-0.395966,-0.022036,0.026371,-0.395966,0.544314,-0.208460,0.836645,-0.887536,-1.068009,-6.571797
1790543540.7838,-0.035704,0.016686,-0.379787,-0.031604,0.019591,-0.379787,0.381619,0.711860,0.591389,2.600310,0.790991,-8.046623
1790543540.7976,-0.053353,0.003261,-0.363545,-0.046828,0.008160,-0.363545,0.927983,0.993541,0.888853,2.868606,1.237151,-9.831937
1790543540.8116,-0.063422,-0.008098,-0.359356,-0.058444,-0.003221,-0.359356,0.898844,0.568591,0.953203,0.607255,2.798711,-7.697322
1790543540.8253,-0.078945,-0.014495,-0.353209,-0.072795,-0.011113,-0.353209,0.528531,0.986256,1.103757,0.760567,3.282051,-9.870749
1790543540.8390,-0.082594,-0.019137,-0.349549,-0.079654,-0.016730,-0.349549,0.339124,0.228631,1.090401,-0.964192,2.426911,-9.637881
1790543540.8529,-0.081533,-0.020189,-0.344356,-0.080970,-0.019151,-0.344356,0.106009,-0.146538,0.892496,-0.082648,2.835891,-9.715504
1790543540.8670,-0.072309,-0.022873,-0.328036,-0.074907,-0.021757,-0.328036,0.004021,-0.732969,0.837859,-0.197632,-0.882109,-12.587532
1790543540.8808,-0.065612,-0.019876,-0.312832,-0.068400,-0.020440,-0.312832,-0.277660,-0.644337,0.711589,1.948735,1.497411,-13.286133
1790543540.8948,-0.058719,-0.013015,-0.287054,-0.061623,-0.015242,-0.287054,-0.632189,-0.757252,0.698233,2.715294,-0.212869,-8.745224
1790543540.9088,-0.053654,-0.004811,-0.264345,-0.056045,-0.007941,-0.264345,-0.697753,-0.700187,0.574391,3.788478,0.121751,-8.007811
1790543540.9227,-0.037918,0.005297,-0.250774,-0.043356,0.001326,-0.250774,-0.803383,-1.239266,0.446906,0.338959,0.419191,-5.485084
1790543540.9368,-0.029608,0.016851,-0.240266,-0.033732,0.012193,-0.240266,-0.873803,-0.821601,0.249001,3.558510,1.199971,-11.267951
1790543540.9508,-0.027250,0.023753,-0.231861,-0.029195,0.020285,-0.231861,-0.578767,-0.306805,-0.013254,3.673494,0.753811,-15.459560
1790543540.9653,-0.030768,0.024479,-0.238341,-0.030296,0.023221,-0.238341,-0.063971,0.223775,-0.572974,2.446998,1.497411,-10.414105
1790543540.9800,-0.030422,0.021064,-0.255188,-0.030384,0.021711,-0.255188,0.233494,0.238345,-1.096269,-0.964192,1.571771,-10.802217
1790543540.9946,-0.019005,0.015869,-0.288954,-0.022419,0.017622,-0.288954,0.499391,-0.507139,-0.904434,-1.385800,2.464091,-6.261308
1790543541.0087,-0.020250,0.006057,-0.290858,-0.020901,0.009527,-0.290858,0.668157,0.107217,-0.424848,0.798895,0.976891,-8.473546
1790543541.0228,-0.008346,-0.003434,-0.306453,-0.012112,0.000454,-0.306453,0.665729,-0.595771,-0.943287,-2.343999,1.720491,-12.898021
1790543541.0373,0.002075,-0.012511,-0.330608,-0.002181,-0.008621,-0.330608,0.682727,-0.511995,-1.282033,-0.657568,3.282051,-12.820399
1790543541.0511,0.008655,-0.020213,-0.361351,0.005404,-0.016735,-0.361351,0.686369,-0.278880,-1.309958,-0.274288,2.278191,-5.950818
1790543541.0647,0.017499,-0.028099,-0.380999,0.013871,-0.024690,-0.380999,0.562527,-0.412436,-1.108410,-1.040848,0.828171,-5.873196
1790543541.0787,0.031024,-0.041712,-0.387291,0.025878,-0.036606,-0.387291,0.836923,-0.826458,-0.965142,-0.695896,-0.398769,-7.425644
1790543541.0925,0.025475,-0.057134,-0.402002,0.025596,-0.050976,-0.402002,1.168384,0.471460,-0.655535,-0.504256,3.616671,-15.808861
1790543541.1065,-0.001627,-0.047444,-0.418244,0.006540,-0.048503,-0.418244,-0.658900,2.019491,-0.757523,0.338959,4.025651,-19.534735
1790543541.1204,0.000924,-0.030637,-0.438833,0.002608,-0.035997,-0.438833,-1.264757,0.176423,-0.784234,-8.016541,0.493551,-16.623896
1790543541.1344,0.003667,-0.016407,-0.442983,0.003350,-0.022284,-0.442983,-1.279327,0.266270,-0.832800,-3.877119,-2.034688,-5.096972
1790543541.1483,-0.013081,0.000161,-0.444792,-0.008152,-0.006572,-0.444792,-1.377672,1.196303,-0.531693,0.722239,-0.659029,-4.514804
1790543541.1623,-0.026059,0.018030,-0.455032,-0.020687,0.010649,-0.455032,-1.251402,0.992327,-0.617897,0.568927,1.199971,-5.485084
1790543541.1760,-0.041922,0.037312,-0.472898,-0.035552,0.029313,-0.472898,-1.182196,1.322573,-0.622754,-0.274288,4.917971,-8.745224
1790543541.1901,-0.030519,0.035795,-0.480230,-0.032029,0.033850,-0.480230,0.001593,-0.566632,-0.485555,-5.295254,-0.064149,-21.281238
1790543541.2056,-0.029631,0.036057,-0.474575,-0.030350,0.035395,-0.474575,0.022233,-0.142896,0.336419,0.607255,3.207691,-11.423196
1790543541.2203,-0.030907,0.040706,-0.462712,-0.030740,0.039113,-0.462712,-0.368720,-0.094330,0.608387,1.412143,1.460231,-11.345574
1790543541.2348,-0.022672,0.034975,-0.451163,-0.025092,0.036216,-0.451163,0.221353,-0.656478,0.416552,0.032335,-0.659029,-7.464455
1790543541.2489,-0.035544,0.028585,-0.445338,-0.032408,0.030874,-0.445338,0.539458,0.635369,0.401982,3.021918,2.538451,-7.115154
1790543541.2636,-0.050254,0.016265,-0.438604,-0.044900,0.020648,-0.438604,0.842993,0.817490,0.477259,2.408670,2.017931,-10.103616
1790543541.2771,-0.061684,0.005953,-0.430797,-0.056649,0.010362,-0.430797,0.758003,0.715502,0.758940,0.645583,1.794851,-8.939280
1790543541.2905,-0.074818,0.001185,-0.426458,-0.069367,0.003938,-0.426458,0.427757,0.859985,0.836645,0.645583,3.579491,-10.491728
1790543541.3043,-0.076850,-0.001511,-0.418092,-0.074605,0.000124,-0.418092,0.204355,0.040439,0.882783,0.223975,2.761531,-10.646972
1790543541.3181,-0.077196,-0.004499,-0.408476,-0.076419,-0.003112,-0.408476,0.160646,-0.059120,0.745585,0.147319,1.237151,-8.667602
1790543541.3321,-0.074993,-0.005096,-0.402359,-0.075420,-0.004501,-0.402359,0.058658,-0.225458,0.643597,0.147319,2.798711,-11.190329
1790543541.3460,-0.061219,-0.005202,-0.390578,-0.065479,-0.004991,-0.390578,-0.112536,-1.024363,0.653310,-0.887536,0.382011,-12.742777
1790543541.3600,-0.055299,0.004088,-0.374451,-0.058353,0.001364,-0.374451,-0.700181,-0.690474,0.620528,3.405198,1.757671,-10.724595
1790543541.3738,-0.049558,0.013533,-0.352281,-0.052196,0.009883,-0.352281,-0.816739,-0.751181,0.574391,4.018446,-0.101329,-9.133336
1790543541.3877,-0.040366,0.026608,-0.342254,-0.043915,0.021590,-0.342254,-0.966078,-0.955157,0.323063,2.753622,1.088431,-6.494175
1790543541.4017,-0.025717,0.036490,-0.329852,-0.031177,0.032020,-0.329852,-0.790028,-1.187058,0.216219,0.913879,0.530731,-6.688231
1790543541.4157,-0.026817,0.040708,-0.329771,-0.028125,0.038102,-0.329771,-0.293444,-0.084617,0.040168,3.405198,2.612811,-12.160609
1790543541.4295,-0.034960,0.032411,-0.333862,-0.032909,0.034118,-0.333862,0.569811,0.665723,-0.439418,0.952207,2.315371,-17.943476
1790543541.4435,-0.022868,0.028391,-0.353446,-0.025880,0.030109,-0.353446,0.328197,-0.538706,-1.205542,-2.190688,2.649991,-12.160609
1790543541.4574,-0.020452,0.021657,-0.364380,-0.022080,0.024193,-0.364380,0.430185,-0.129540,-1.201899,2.178703,0.567911,-7.309210
1790543541.4717,-0.019311,0.018731,-0.392064,-0.020142,0.020370,-0.392064,0.368264,-0.161108,-0.671319,1.680439,1.980751,-4.281937
1790543541.4860,-0.005399,0.004231,-0.393835,-0.009822,0.009073,-0.393835,0.927983,-0.765751,-0.710172,-1.960720,0.270471,-11.384385
1790543541.5001,0.010504,-0.013285,-0.406473,0.004407,-0.006577,-0.406473,1.202379,-0.865311,-1.017350,-2.458983,1.125611,-11.229140
1790543541.5137,0.019984,-0.018679,-0.441340,0.015311,-0.015048,-0.441340,0.578310,-0.553276,-1.240752,0.108991,3.691031,-7.425644
1790543541.5274,0.028233,-0.025263,-0.454456,0.024356,-0.022199,-0.454456,0.433828,-0.454931,-1.075629,-0.465928,1.014071,-8.822846
1790543541.5413,0.016592,-0.029725,-0.478810,0.018921,-0.027467,-0.478810,0.427757,0.927977,-0.939645,0.453943,3.876931,-10.685784
1790543541.5553,0.002589,-0.030599,-0.488440,0.007488,-0.029659,-0.488440,0.013734,1.073674,-0.888651,0.837223,1.237151,-14.178791
1790543541.5693,-0.000755,-0.025436,-0.493199,0.001718,-0.026703,-0.493199,-0.519274,0.512741,-0.858297,-3.838791,-1.365448,-13.441378
1790543541.5831,-0.000647,-0.020161,-0.491372,0.000062,-0.022123,-0.491372,-0.616405,0.297838,-0.772093,-3.378855,-2.369308,-9.288581
1790543541.5970,-0.006959,-0.009757,-0.492808,-0.004853,-0.013467,-0.492808,-0.961222,0.705789,-0.580259,-2.420655,-1.774428,-8.589979
1790543541.6109,-0.011761,0.007159,-0.501712,-0.009688,0.000971,-0.501712,-1.313323,0.640226,-0.634895,-3.033903,-0.026969,-9.405014
1790543541.6249,-0.024024,0.022848,-0.509717,-0.019723,0.016285,-0.509717,-1.289040,1.165949,-0.553547,-2.535639,-1.030829,-8.745224
1790543541.6388,-0.028404,0.038404,-0.520732,-0.025800,0.031768,-0.520732,-1.168840,0.687577,-0.693174,-3.417183,0.716631,-8.784035
1790543541.6527,-0.020696,0.037745,-0.524963,-0.022227,0.035952,-0.524963,-0.056686,-0.617626,-0.217230,2.791950,0.344831,-17.361308
1790543541.6666,-0.027258,0.030708,-0.524550,-0.025749,0.032281,-0.524550,0.443541,0.237130,0.462690,3.826806,1.274331,-14.295224
1790543541.6808,-0.030341,0.021071,-0.517096,-0.028963,0.024434,-0.517096,0.589238,-0.062763,0.790508,1.872079,0.307651,-7.542077
1790543541.6947,-0.028271,0.016995,-0.507396,-0.028479,0.019227,-0.507396,0.278417,0.039225,0.176152,-2.535639,1.088431,-7.037532
1790543541.7085,-0.041761,0.009553,-0.517805,-0.037776,0.012455,-0.517805,0.518817,0.702147,0.259928,3.941790,1.162791,-8.745224
1790543541.7223,-0.058748,-0.005870,-0.518478,-0.052456,-0.000372,-0.518478,1.105248,1.038464,0.486972,2.523654,1.460231,-9.715504
1790543541.7369,-0.075018,-0.015775,-0.519120,-0.068249,-0.011155,-0.519120,0.807783,0.958331,0.737086,1.642111,3.914111,-8.939280
1790543541.7507,-0.085628,-0.021479,-0.515665,-0.080414,-0.018381,-0.515665,0.527316,0.645082,0.833003,0.952207,3.728211,-8.861658
1790543541.7643,-0.089054,-0.027580,-0.507367,-0.086462,-0.024820,-0.507367,0.496963,0.198278,0.874284,-0.197632,3.021791,-9.443825
1790543541.7785,-0.095370,-0.033332,-0.497453,-0.092697,-0.030778,-0.497453,0.360979,0.308765,0.796579,1.297159,1.274331,-8.551168
1790543541.7925,-0.084117,-0.037598,-0.484790,-0.086691,-0.035552,-0.484790,0.246850,-0.887165,0.839074,0.492271,1.869211,-12.742777
1790543541.8066,-0.070971,-0.033700,-0.474259,-0.075687,-0.034256,-0.474259,-0.322583,-1.019507,0.639954,0.798895,1.608951,-12.471098
1790543541.8206,-0.065016,-0.023480,-0.454398,-0.068218,-0.026713,-0.454398,-0.864090,-0.734183,0.698233,3.826806,-0.212869,-8.784035
1790543541.8346,-0.058542,-0.011927,-0.434768,-0.061445,-0.016362,-0.434768,-0.990361,-0.804603,0.536752,4.056774,-0.733389,-7.619700
1790543541.8487,-0.043700,0.002584,-0.429769,-0.049023,-0.003100,-0.429769,-1.044998,-1.245337,0.405625,1.488799,1.199971,-6.727042
1790543541.8627,-0.033006,0.017032,-0.426033,-0.037811,0.010993,-0.426033,-1.024357,-1.137278,0.440835,4.171758,1.497411,-7.270399
1790543541.8766,-0.020000,0.031015,-0.414707,-0.025343,0.025009,-0.414707,-1.072923,-1.189487,0.289067,2.791950,0.753811,-8.589979
1790543541.8906,-0.021957,0.031227,-0.400886,-0.022973,0.029362,-0.400886,-0.170815,0.091433,-0.158951,2.715294,-0.956469,-18.215154
1790543541.9046,-0.022798,0.031169,-0.413639,-0.022851,0.030627,-0.413639,0.056229,0.266270,-0.681032,-1.232488,2.761531,-10.530539
1790543541.9186,-0.007371,0.031241,-0.416444,-0.012015,0.031057,-0.416444,-0.020262,-0.735397,-0.886222,-4.030431,1.757671,-10.646972
1790543541.9325,-0.009282,0.027698,-0.435318,-0.010102,0.028706,-0.435318,0.324555,0.131500,-0.545048,0.990535,1.646131,-5.485084
1790543541.9466,-0.004369,0.011998,-0.435535,-0.006089,0.017010,-0.435535,1.082179,-0.169607,-0.487984,-1.730752,1.162791,-10.181238
1790543541.9605,0.012759,-0.000748,-0.444089,0.007105,0.004579,-0.444089,0.889131,-0.858026,-1.120552,-3.953775,1.497411,-10.491728
1790543541.9744,0.015320,-0.007564,-0.473476,0.012855,-0.003921,-0.473476,0.554028,-0.157466,-1.199471,2.025391,2.612811,-8.628791
1790543541.9889,0.014800,-0.009488,-0.500531,0.014216,-0.007818,-0.500531,0.211640,0.161854,-1.103554,0.300631,2.649991,-7.969000
1790543542.0031,0.025588,-0.014638,-0.517005,0.022176,-0.012592,-0.517005,0.369478,-0.505925,-1.079271,-1.462456,1.385871,-6.688231
1790543542.0174,0.033914,-0.023463,-0.532981,0.030393,-0.020202,-0.532981,0.600165,-0.447646,-1.050132,-0.389272,1.646131,-9.637881
1790543542.0316,0.020085,-0.023822,-0.554424,0.023177,-0.022736,-0.554424,0.068371,1.044535,-0.923861,0.990535,3.691031,-13.519000
1790543542.0459,0.008055,-0.007778,-0.560068,0.012591,-0.012266,-0.560068,-1.174911,1.226656,-0.817016,-7.556605,1.311511,-14.528091
1790543542.0599,0.010463,0.004682,-0.551112,0.011102,-0.000402,-0.551112,-1.092349,0.175209,-0.628824,-4.605350,-1.737248,-9.715504
1790543542.0740,-0.000768,0.020676,-0.558878,0.002793,0.014352,-0.558878,-1.206478,1.139238,-0.631253,-2.190688,0.456371,-5.562707
1790543542.0883,-0.015265,0.036014,-0.574008,-0.009848,0.029516,-0.574008,-0.979434,1.153808,-0.602113,-0.120976,2.203831,-6.067252
1790543542.1024,-0.005057,0.024919,-0.575260,-0.006494,0.026298,-0.575260,0.671799,-0.518066,-0.483127,-2.305671,-0.175689,-10.452916
1790543542.1163,-0.005416,0.021613,-0.573733,-0.005739,0.023019,-0.573733,0.320912,-0.096759,0.329134,1.335487,4.285911,-13.286133
1790543542.1305,-0.013191,0.016414,-0.559715,-0.010955,0.018395,-0.559715,0.227423,0.484815,0.796579,-1.347472,-0.770569,-12.044175
1790543542.1447,-0.012584,0.009853,-0.545480,-0.012095,0.012416,-0.545480,0.358551,-0.097973,0.773510,-1.385800,-0.064149,-10.879840
1790543542.1586,-0.023013,0.001136,-0.538530,-0.019738,0.004520,-0.538530,0.602593,0.658438,0.595031,0.108991,0.828171,-6.649420
1790543542.1726,-0.045326,-0.011745,-0.538409,-0.037650,-0.006866,-0.538409,0.904915,1.312860,0.732229,3.596838,1.237151,-9.715504
1790543542.1866,-0.059411,-0.023126,-0.531055,-0.052882,-0.018248,-0.531055,0.839351,0.872127,0.836645,0.798895,1.980751,-8.706413
1790543542.2003,-0.075087,-0.032748,-0.521623,-0.068426,-0.028398,-0.521623,0.737363,1.048177,0.993270,0.262303,2.538451,-9.715504
1790543542.2140,-0.082469,-0.038620,-0.509930,-0.078256,-0.035553,-0.509930,0.450826,0.520026,0.987199,-0.849208,2.464091,-9.443825
1790543542.2284,-0.083978,-0.042558,-0.498143,-0.082262,-0.040457,-0.498143,0.252920,0.075650,0.839074,-0.389272,1.683311,-9.327392
1790543542.2428,-0.076136,-0.047192,-0.483711,-0.077974,-0.045171,-0.483711,0.178858,-0.600628,0.802649,-0.005993,-0.435949,-13.324944
1790543542.2574,-0.067119,-0.047460,-0.472690,-0.070375,-0.046773,-0.472690,-0.076112,-0.708686,0.644811,1.143847,0.270471,-13.441378
1790543542.2715,-0.061031,-0.043552,-0.464321,-0.063834,-0.044518,-0.464321,-0.439141,-0.736612,0.726158,4.171758,-1.030829,-9.327392
1790543542.2854,-0.057978,-0.036592,-0.455895,-0.059734,-0.038970,-0.455895,-0.691682,-0.567846,0.695805,5.168285,-1.662888,-9.715504
1790543542.2993,-0.049790,-0.024691,-0.448391,-0.052773,-0.028975,-0.448391,-0.997646,-0.834957,0.471189,2.600310,-0.584669,-7.386832
1790543542.3133,-0.042688,-0.008580,-0.445632,-0.045714,-0.014699,-0.445632,-1.263543,-0.752395,0.284211,3.443526,-0.212869,-9.288581
1790543542.3272,-0.034090,0.011827,-0.449061,-0.037577,0.003869,-0.449061,-1.517299,-0.853169,0.085091,3.941790,0.790991,-10.103616
1790543542.3412,-0.021718,0.034465,-0.452127,-0.026476,0.025286,-0.452127,-1.670281,-1.122709,-0.041179,3.750150,0.902531,-9.172147
1790543542.3550,-0.034366,0.040208,-0.456141,-0.031999,0.035731,-0.456141,-0.488920,0.834488,-0.273081,4.708349,1.088431,-17.322497
1790543542.3689,-0.018918,0.027913,-0.450646,-0.022842,0.030258,-0.450646,0.907343,-0.799747,-0.683461,-5.525222,3.802571,-16.779140
1790543542.3828,-0.026487,0.025555,-0.479420,-0.025394,0.026966,-0.479420,0.311199,0.577090,-0.674962,2.217030,4.880791,-12.199420
1790543542.3967,-0.036620,0.020188,-0.493625,-0.033252,0.022222,-0.493625,0.394975,0.687577,-0.570545,2.217030,1.274331,-7.736133
1790543542.4106,-0.020572,0.019726,-0.490461,-0.024376,0.020474,-0.490461,0.016163,-0.918733,-0.685889,-1.845736,1.348691,-9.210958
1790543542.4246,-0.016298,0.007401,-0.491775,-0.018722,0.011323,-0.491775,0.776216,-0.151395,-0.983354,0.338959,-0.101329,-12.238231
1790543542.4382,-0.001709,-0.000280,-0.513286,-0.006813,0.003201,-0.513286,0.770145,-0.691688,-1.090198,-2.573967,3.282051,-5.873196
1790543542.4518,0.001686,-0.004022,-0.541600,-0.000864,-0.001855,-0.541600,0.408331,-0.130755,-1.105982,0.530599,3.207691,-8.163056
1790543542.4657,0.007398,-0.009547,-0.563548,0.004920,-0.007239,-0.563548,0.499391,-0.259454,-0.979711,-0.389272,3.170511,-9.405014
1790543542.4799,0.016260,-0.014748,-0.582525,0.012858,-0.012495,-0.582525,0.454468,-0.433076,-0.922647,-1.347472,3.133331,-9.521448
1790543542.4949,0.008062,-0.022725,-0.600584,0.009501,-0.019656,-0.600584,0.670585,0.601373,-0.470986,0.108991,5.326951,-12.859210
1790543542.5092,-0.001021,-0.015553,-0.613583,0.002135,-0.016784,-0.613583,-0.428213,0.801707,-0.490412,-2.765607,4.546171,-16.002917
1790543542.5235,-0.003740,-0.002067,-0.606687,-0.001977,-0.006482,-0.606687,-0.939367,0.464175,-0.240299,-4.030431,1.534591,-9.016902
1790543542.5376,-0.001340,0.006202,-0.584073,-0.001531,0.002397,-0.584073,-0.718393,0.155783,-0.199018,-4.605350,-0.547489,-8.124245
1790543542.5518,-0.010086,0.021763,-0.588762,-0.007519,0.015953,-0.588762,-0.918727,0.863628,-0.121313,-1.232488,1.497411,-2.768301
1790543542.5660,-0.020098,0.031626,-0.594995,-0.016324,0.026924,-0.594995,-0.752389,0.907337,-0.381139,-0.772552,0.344831,-4.010259
1790543542.5800,-0.024774,0.035640,-0.601825,-0.022239,0.033025,-0.601825,-0.175672,0.432607,-0.331359,-0.274288,2.984611,-7.736133
1790543542.5940,-0.013785,0.022746,-0.593773,-0.016321,0.025830,-0.593773,0.815068,-0.783963,0.324277,-2.037376,0.196111,-17.050819
1790543542.6082,-0.021011,0.020420,-0.581596,-0.019604,0.022043,-0.581596,0.138791,0.268698,0.751655,2.561982,1.832031,-12.936833
1790543542.6223,-0.023289,0.013952,-0.571237,-0.022184,0.016380,-0.571237,0.402260,0.099932,0.704304,-0.887536,0.902531,-10.452916
1790543542.6362,-0.039992,0.001737,-0.557379,-0.034649,0.006130,-0.557379,0.970478,0.789565,0.548894,3.136902,1.646131,-4.320748
1790543542.6503,-0.055573,-0.011709,-0.550591,-0.049296,-0.006358,-0.550591,0.977763,0.902480,0.590174,2.063719,1.646131,-7.774944
1790543542.6640,-0.073819,-0.025252,-0.541960,-0.066462,-0.019583,-0.541960,0.976549,1.136810,0.741942,1.948735,1.385871,-8.357112
1790543542.6778,-0.090306,-0.037150,-0.539190,-0.083153,-0.031880,-0.539190,0.935268,1.147737,0.818433,0.108991,3.096151,-9.793126
1790543542.6921,-0.090131,-0.050848,-0.522366,-0.088037,-0.045158,-0.522366,0.811426,-0.022696,1.058833,-1.424128,-0.026969,-13.441378
1790543542.7059,-0.079358,-0.052938,-0.509656,-0.081962,-0.050604,-0.509656,0.126650,-0.883523,0.984771,0.952207,2.724351,-14.178791
1790543542.7199,-0.069951,-0.051007,-0.488013,-0.073554,-0.050886,-0.488013,-0.301943,-0.885951,0.913136,2.868606,-0.733389,-11.578441
1790543542.7338,-0.071337,-0.050296,-0.459159,-0.072002,-0.050473,-0.459159,-0.306799,-0.269167,0.993270,5.704877,-2.666748,-10.142427
1790543542.7482,-0.059501,-0.041850,-0.439561,-0.063252,-0.044437,-0.439561,-0.740248,-1.094783,0.960488,3.136902,-0.473129,-9.715504
1790543542.7622,-0.055585,-0.029039,-0.426552,-0.057885,-0.033658,-0.426552,-1.085064,-0.626125,0.722516,4.018446,-0.956469,-7.774944
1790543542.7762,-0.050063,-0.009927,-0.422349,-0.052409,-0.017047,-0.422349,-1.435951,-0.715971,0.556178,3.443526,0.344831,-7.231588
1790543542.7902,-0.036847,0.009487,-0.411626,-0.041515,0.001527,-0.411626,-1.494230,-1.217412,0.417766,2.868606,0.084571,-7.852567
1790543542.8042,-0.021040,0.030576,-0.410409,-0.027183,0.021861,-0.410409,-1.530654,-1.451741,0.417766,2.446998,0.828171,-5.834385
1790543542.8183,-0.025067,0.034327,-0.392373,-0.025701,0.030587,-0.392373,-0.394217,0.226203,0.280568,0.415615,0.084571,-10.297672
1790543542.8322,-0.036636,0.024643,-0.401672,-0.033356,0.026426,-0.401672,0.743434,0.988684,-0.350786,-1.347472,3.244871,-13.480189
1790543542.8462,-0.021743,0.026492,-0.431427,-0.025227,0.026473,-0.431427,0.075656,-0.970941,-0.470986,-0.389272,5.141051,-9.831937
1790543542.8601,-0.026454,0.022303,-0.434383,-0.026086,0.023554,-0.434383,0.277203,0.233488,-0.213588,2.485326,1.274331,-9.366203
1790543542.8741,-0.013825,0.011271,-0.432374,-0.017504,0.014956,-0.432374,0.768931,-0.785177,-0.339858,-1.117504,1.274331,-9.366203
1790543542.8876,0.004193,-0.002142,-0.438528,-0.002316,0.002987,-0.438528,1.026329,-1.058359,-0.616683,-2.267343,1.534591,-6.804665
1790543542.9013,0.011583,-0.015435,-0.450299,0.007413,-0.009908,-0.450299,0.972907,-0.510781,-0.735669,0.530599,0.902531,-5.640329
1790543542.9150,0.021227,-0.023606,-0.469201,0.017083,-0.019496,-0.469201,0.659658,-0.658906,-0.753881,0.415615,2.092291,-8.124245
1790543542.9292,0.026334,-0.029613,-0.489285,0.023559,-0.026578,-0.489285,0.490892,-0.331088,-0.732026,0.607255,2.501271,-9.366203
1790543542.9430,0.028385,-0.038627,-0.508191,0.026937,-0.035013,-0.508191,0.745862,-0.078546,-0.512267,-0.619240,3.282051,-11.229140
1790543542.9569,0.002517,-0.029858,-0.531749,0.009843,-0.031404,-0.531749,-0.556912,1.933287,-0.750238,0.568927,4.992331,-17.749420
1790543542.9708,0.005196,-0.015447,-0.522465,0.006590,-0.020235,-0.522465,-1.088707,0.215276,-0.732026,-8.131525,1.125611,-13.247322
1790543542.9848,-0.006435,-0.003654,-0.500448,-0.002528,-0.008628,-0.500448,-1.112989,1.046963,-0.586329,-1.615768,-2.109048,-8.046623
1790543542.9993,-0.013450,0.014145,-0.516793,-0.010174,0.007313,-0.516793,-1.159127,0.777424,-0.614255,-1.845736,1.534591,-5.291028
1790543543.0134,-0.022030,0.025027,-0.507170,-0.018473,0.019713,-0.507170,-1.000074,0.839345,-0.513481,-1.424128,-1.439808,-6.998721
1790543543.0273,-0.033153,0.039392,-0.521880,-0.028749,0.033488,-0.521880,-0.970935,1.144095,-0.606970,-2.267343,1.869211,-6.455364
1790543543.0413,-0.025824,0.038625,-0.517296,-0.026702,0.037084,-0.517296,-0.077326,-0.374797,-0.269438,-3.302199,-0.621849,-21.281238
1790543543.0553,-0.022542,0.038244,-0.510934,-0.023790,0.037896,-0.510934,-0.027546,-0.349300,0.324277,1.488799,1.943571,-17.283686
1790543543.0692,-0.028310,0.034646,-0.506140,-0.026954,0.035621,-0.506140,0.197070,0.137571,0.659381,3.481854,1.199971,-12.548721
1790543543.0830,-0.035355,0.025657,-0.510986,-0.032835,0.028646,-0.510986,0.692440,0.256557,0.461475,1.718767,1.423051,-5.329839
1790543543.0970,-0.045527,0.017973,-0.519020,-0.041719,0.021175,-0.519020,0.603807,0.460533,0.331562,3.175230,2.017931,-7.348021
1790543543.1109,-0.057495,0.005518,-0.521644,-0.052762,0.010215,-0.521644,0.948624,0.654795,0.500328,2.178703,2.092291,-7.774944
1790543543.1245,-0.072091,-0.004474,-0.523157,-0.066292,-0.000067,-0.523157,0.810212,0.937690,0.733443,1.067191,2.835891,-8.861658
1790543543.1380,-0.082706,-0.009627,-0.519034,-0.077782,-0.006759,-0.519034,0.416830,0.711860,0.903423,-0.159304,3.170511,-11.073895
1790543543.1519,-0.085403,-0.013179,-0.508788,-0.083117,-0.011253,-0.508788,0.233494,0.126644,0.976272,-0.542584,2.538451,-11.423196
1790543543.1659,-0.084124,-0.014141,-0.503088,-0.083822,-0.013275,-0.503088,0.116936,-0.128326,0.879140,-0.734224,3.096151,-9.249770
1790543543.1797,-0.074949,-0.016195,-0.485849,-0.077611,-0.015319,-0.485849,0.036803,-0.776678,0.870641,0.453943,0.865351,-12.548721
1790543543.1937,-0.060293,-0.009849,-0.471654,-0.065488,-0.011490,-0.471654,-0.525345,-1.191915,0.731015,1.143847,1.423051,-12.548721
1790543543.2076,-0.055812,-0.000132,-0.444422,-0.058715,-0.003539,-0.444422,-0.839808,-0.677119,0.746799,4.823333,-0.175689,-10.181238
1790543543.2215,-0.048055,0.010420,-0.428581,-0.051253,0.006232,-0.428581,-0.862876,-0.826458,0.506399,2.830278,0.344831,-8.318301
1790543543.2354,-0.031670,0.024514,-0.419398,-0.037545,0.019030,-0.419398,-1.052282,-1.378893,0.365558,1.603783,1.014071,-7.192776
1790543543.2497,-0.024139,0.038144,-0.416716,-0.028161,0.032410,-0.416716,-0.962436,-0.766965,0.193150,3.060246,1.571771,-8.512357
1790543543.2638,-0.032592,0.033157,-0.399123,-0.031263,0.032932,-0.399123,0.164288,0.560092,-0.206303,3.098574,-1.848788,-16.662707
1790543543.2784,-0.031015,0.031656,-0.416949,-0.031089,0.032039,-0.416949,0.175215,0.127858,-0.872867,-1.270816,3.319231,-11.733686
1790543543.2940,-0.019892,0.030347,-0.427925,-0.023251,0.030855,-0.427925,0.070799,-0.536278,-1.011279,0.108991,0.976891,-6.688231
1790543543.3088,-0.020584,0.023256,-0.444372,-0.021384,0.025536,-0.444372,0.554028,0.103575,-0.484341,0.453943,2.017931,-6.882287
1790543543.3229,-0.014247,0.008758,-0.445340,-0.016388,0.013792,-0.445340,0.986262,-0.280094,-0.580259,-1.462456,1.237151,-12.277042
1790543543.3375,-0.001247,-0.002805,-0.457339,-0.005789,0.002174,-0.457339,0.796856,-0.618840,-0.999138,-2.343999,1.832031,-10.530539
1790543543.3514,0.003548,-0.005944,-0.488569,0.000747,-0.003509,-0.488569,0.356122,-0.240027,-1.122980,0.568927,2.464091,-6.416553
1790543543.3651,0.004234,-0.008034,-0.506639,0.003188,-0.006677,-0.506639,0.163074,0.067151,-1.093841,0.492271,1.608951,-8.395923
1790543543.3792,0.014899,-0.015108,-0.519475,0.011386,-0.012579,-0.519475,0.489678,-0.507139,-1.017350,-1.960720,1.385871,-9.094525
1790543543.3931,0.023004,-0.023226,-0.534310,0.019519,-0.020032,-0.534310,0.580739,-0.439147,-0.960285,-0.619240,1.720491,-9.948371
1790543543.4072,0.022214,-0.029441,-0.554084,0.021405,-0.026619,-0.554084,0.579525,0.079292,-0.428491,0.300631,4.694891,-12.393476
1790543543.4213,0.001077,-0.021212,-0.565949,0.007175,-0.022834,-0.565949,-0.596979,1.556903,-0.642180,0.760567,2.129471,-14.489280
1790543543.4353,-0.002980,-0.010068,-0.565439,0.000067,-0.013898,-0.565439,-0.860448,0.584375,-0.518337,-5.026958,0.567911,-12.665154
1790543543.4495,-0.007972,0.000209,-0.556867,-0.005560,-0.004023,-0.556867,-0.881088,0.680292,-0.512267,-2.995575,-0.733389,-6.688231
1790543543.4634,-0.019240,0.012096,-0.545157,-0.015136,0.007260,-0.545157,-1.076565,1.022680,-0.154095,-1.845736,-1.328269,-6.377742
1790543543.4776,-0.025979,0.029397,-0.544418,-0.022726,0.022756,-0.544418,-1.332749,0.782280,-0.236656,-2.688951,-0.138509,-6.067252
1790543543.4919,-0.029733,0.040971,-0.544858,-0.027631,0.035506,-0.544858,-0.882302,0.523668,-0.200232,-2.880591,0.456371,-7.930189
1790543543.5061,-0.017392,0.038068,-0.537897,-0.020464,0.037299,-0.537897,0.140005,-0.695331,0.176152,-5.563550,1.274331,-14.489280
1790543543.5201,-0.024832,0.034962,-0.536122,-0.023522,0.035664,-0.536122,0.112080,0.228631,0.772296,3.366870,0.121751,-12.044175
1790543543.5342,-0.022157,0.034800,-0.524768,-0.022566,0.035059,-0.524768,-0.054258,-0.298306,0.639954,-0.235960,1.051251,-10.918651
1790543543.5480,-0.030673,0.028549,-0.520711,-0.028241,0.030502,-0.520711,0.415615,0.521240,0.434764,0.415615,0.976891,-7.348021
1790543543.5619,-0.039428,0.018930,-0.519926,-0.036072,0.022402,-0.519926,0.654801,0.448391,0.490615,1.910407,1.274331,-9.909560
1790543543.5759,-0.050975,0.007971,-0.518172,-0.046504,0.012300,-0.518172,0.832066,0.682721,0.585318,1.220503,2.575631,-9.366203
1790543543.5895,-0.063173,-0.001061,-0.516262,-0.058172,0.002948,-0.516262,0.747076,0.749498,0.692162,1.297159,3.393591,-9.948371
1790543543.6031,-0.072185,-0.007154,-0.514943,-0.067981,-0.004123,-0.514943,0.560098,0.492100,0.738300,1.565455,3.765391,-9.133336
1790543543.6171,-0.076754,-0.013164,-0.509032,-0.074122,-0.010452,-0.509032,0.464181,0.212848,0.687306,0.913879,2.575631,-9.560259
1790543543.6311,-0.070266,-0.020850,-0.497701,-0.071423,-0.017730,-0.497701,0.430185,-0.606698,0.580461,2.140375,0.047391,-14.217602
1790543543.6449,-0.063783,-0.019094,-0.493973,-0.066075,-0.018685,-0.493973,-0.111322,-0.702616,0.586532,4.171758,2.984611,-13.247322
1790543543.6589,-0.060576,-0.014609,-0.484148,-0.062225,-0.015832,-0.484148,-0.431856,-0.444003,0.505184,3.903462,0.010211,-13.557812
1790543543.6728,-0.060169,-0.007729,-0.479008,-0.060786,-0.010160,-0.479008,-0.573910,-0.362656,0.460261,4.171758,0.307651,-7.736133
1790543543.6868,-0.054054,0.003893,-0.474711,-0.056074,-0.000323,-0.474711,-0.900515,-0.700187,0.273283,3.290214,0.493551,-7.774944
1790543543.7007,-0.048895,0.016879,-0.472794,-0.051048,0.011718,-0.472794,-0.963650,-0.633409,0.354631,2.676966,1.088431,-7.115154
1790543543.7147,-0.040418,0.031988,-0.473688,-0.043607,0.025907,-0.473688,-1.068066,-0.924804,0.302423,3.635166,1.646131,-7.309210
1790543543.7288,-0.036074,0.042771,-0.473418,-0.038334,0.037712,-0.473418,-0.771816,-0.457359,0.092376,2.753622,2.203831,-11.539630
1790543543.7428,-0.042680,0.035294,-0.470656,-0.041376,0.036019,-0.470656,0.458110,0.499385,-0.361713,2.485326,1.237151,-20.543826
1790543543.7571,-0.021873,0.033387,-0.479920,-0.027724,0.034177,-0.479920,0.289345,-1.026791,-0.844942,-4.490366,3.691031,-7.386832
1790543543.7713,-0.023693,0.028526,-0.500856,-0.024903,0.030221,-0.500856,0.506676,-0.135611,-0.350786,3.711822,2.575631,-4.980539
1790543543.7852,-0.018111,0.016712,-0.497427,-0.020148,0.020764,-0.497427,0.775001,-0.317732,-0.487984,0.070663,0.642271,-10.452916
1790543543.7991,-0.002833,0.002779,-0.509148,-0.008028,0.008175,-0.509148,1.031185,-0.969727,-0.779378,-0.312616,2.092291,-10.064805
1790543543.8128,0.005143,-0.012033,-0.532208,0.001192,-0.005971,-0.532208,1.168384,-0.469500,-1.029491,0.300631,2.278191,-7.891378
1790543543.8264,0.015451,-0.022798,-0.549363,0.011173,-0.017750,-0.549363,0.838137,-0.769393,-0.960285,1.412143,1.646131,-6.765853
1790543543.8406,0.030252,-0.033063,-0.569068,0.024529,-0.028469,-0.569068,0.758003,-0.923589,-0.997923,-0.350944,1.869211,-8.357112
1790543543.8549,0.020163,-0.041996,-0.599725,0.021473,-0.037938,-0.599725,0.841779,0.778638,-0.683461,-0.005993,5.178231,-9.443825
1790543543.8689,-0.000337,-0.040087,-0.591854,0.006206,-0.039442,-0.591854,-0.189027,1.329858,-0.851012,6.663076,1.757671,-16.546273
1790543543.8833,0.000756,-0.024664,-0.590594,0.002391,-0.029098,-0.590594,-1.170054,0.211633,-0.853441,-4.413711,0.010211,-13.092077
1790543543.8973,-0.000845,-0.013539,-0.564454,0.000126,-0.018207,-0.564454,-1.068066,0.399825,-0.784234,-3.148887,-2.666748,-9.870749
1790543543.9113,-0.008583,0.001310,-0.549473,-0.005970,-0.004545,-0.549473,-1.298753,0.745856,-0.525622,-1.309144,-1.551348,-7.425644
1790543543.9254,-0.011889,0.016826,-0.547831,-0.010114,0.010415,-0.547831,-1.240474,0.541880,-0.538978,-3.378855,-0.584669,-9.133336
1790543543.9393,-0.015528,0.029573,-0.556256,-0.013904,0.023826,-0.556256,-1.070495,0.687577,-0.532907,-4.528694,-0.956469,-7.309210
1790543543.9533,-0.023475,0.040994,-0.556534,-0.020604,0.035844,-0.556534,-0.938153,0.817490,-0.435776,-1.922392,-0.101329,-8.007811
1790543543.9672,-0.016542,0.042734,-0.554922,-0.017761,0.040667,-0.554922,-0.226666,-0.249741,-0.288864,-5.525222,0.382011,-16.546273
1790543543.9811,-0.016696,0.042112,-0.550994,-0.017015,0.041678,-0.550994,-0.073684,-0.127112,0.352203,1.795423,0.047391,-15.925294
1790543543.9951,-0.017655,0.040087,-0.544010,-0.017463,0.040564,-0.544010,0.192213,-0.079761,0.728587,0.108991,2.835891,-9.909560
1790543544.0095,-0.020174,0.035298,-0.539790,-0.019361,0.036878,-0.539790,0.368264,0.085363,0.471189,0.070663,1.832031,-7.115154
1790543544.0236,-0.026309,0.027351,-0.537914,-0.024225,0.030209,-0.537914,0.466609,0.233488,0.503970,1.718767,0.196111,-8.589979
1790543544.0371,-0.035091,0.015314,-0.532785,-0.031831,0.019782,-0.532785,0.863634,0.554022,0.485758,0.377287,1.162791,-7.852567
1790543544.0508,-0.045190,0.005986,-0.526651,-0.041182,0.010125,-0.526651,0.680298,0.620799,0.672736,0.530599,1.794851,-9.599070
1790543544.0645,-0.053271,-0.000734,-0.518866,-0.049645,0.002524,-0.518866,0.500605,0.472674,0.799007,0.492271,2.575631,-12.121798
1790543544.0785,-0.061008,-0.004222,-0.512310,-0.057599,-0.002199,-0.512310,0.297844,0.442320,0.873070,0.108991,2.612811,-8.706413
1790543544.0924,-0.064094,-0.010737,-0.503316,-0.062145,-0.008175,-0.503316,0.456896,0.074435,0.857286,0.722239,1.571771,-8.124245
1790543544.1064,-0.063638,-0.022194,-0.498481,-0.063190,-0.017988,-0.498481,0.847850,-0.191462,0.786865,1.488799,2.835891,-11.306763
1790543544.1204,-0.049437,-0.020142,-0.490061,-0.053563,-0.019496,-0.490061,-0.173244,-1.163990,0.642383,2.102047,2.575631,-17.244875
1790543544.1342,-0.046021,-0.011534,-0.490783,-0.048284,-0.013922,-0.490783,-0.696539,-0.521708,0.466332,5.589893,0.493551,-14.334035
1790543544.1482,-0.040174,-0.001782,-0.503273,-0.042607,-0.005424,-0.503273,-0.746319,-0.792462,0.195578,4.670021,0.344831,-6.765853
1790543544.1622,-0.029919,0.010613,-0.511172,-0.033725,0.005802,-0.511172,-0.860448,-0.986725,0.093590,1.948735,0.976891,-4.631238
1790543544.1761,-0.018941,0.023312,-0.522237,-0.023376,0.018059,-0.522237,-0.813096,-1.011008,0.091162,1.872079,1.869211,-5.368651
1790543544.1899,-0.029686,0.018099,-0.516920,-0.027793,0.018087,-0.516920,0.311199,0.864842,-0.135883,-0.964192,1.237151,-16.895574
1790543544.2038,-0.031215,0.015835,-0.523745,-0.030188,0.016511,-0.523745,0.149718,0.210419,-0.619111,0.568927,2.166651,-15.964105
1790543544.2177,-0.030683,0.020512,-0.537590,-0.030535,0.019312,-0.537590,-0.314084,0.142427,-0.983354,0.070663,2.278191,-12.432287
1790543544.2316,-0.027408,0.021543,-0.554405,-0.028346,0.020874,-0.554405,-0.021476,-0.306805,-0.699244,1.833751,1.274331,-5.252217
1790543544.2455,-0.025016,0.015016,-0.552496,-0.026015,0.016773,-0.552496,0.401046,0.029512,-0.708958,-0.810880,0.419191,-7.348021
1790543544.2599,-0.015540,0.003871,-0.560405,-0.018682,0.007742,-0.560405,0.770145,-0.464644,-0.859511,-0.772552,1.199971,-8.124245
1790543544.2736,-0.003380,-0.002397,-0.580246,-0.007970,0.000644,-0.580246,0.537030,-0.679547,-1.107196,-0.772552,2.501271,-8.822846
1790543544.2872,0.000687,-0.005069,-0.602667,-0.001910,-0.003355,-0.602667,0.240779,-0.226672,-1.155762,1.412143,2.166651,-9.055714
1790543544.3012,0.003175,-0.008922,-0.619547,0.001650,-0.007252,-0.619547,0.272347,-0.054264,-1.095055,0.492271,1.683311,-10.142427
1790543544.3152,0.012762,-0.014885,-0.630737,0.009428,-0.012595,-0.630737,0.404688,-0.463430,-1.027063,-1.539112,1.385871,-9.831937
1790543544.3292,0.008176,-0.016394,-0.659756,0.008552,-0.015254,-0.659756,0.275989,0.354902,-0.836443,1.373815,4.248731,-9.249770
1790543544.3430,-0.006973,-0.009182,-0.678136,-0.002316,-0.011003,-0.678136,-0.496205,1.216943,-0.894721,0.338959,3.021791,-14.644525
1790543544.3570,-0.011665,0.002525,-0.675388,-0.008860,-0.001533,-0.675388,-0.917513,0.634155,-0.712600,-3.877119,0.493551,-12.277042
1790543544.3710,-0.019187,0.012595,-0.665480,-0.016089,0.008356,-0.665480,-0.870161,0.810206,-0.585115,-2.727279,-0.696209,-10.064805
1790543544.3849,-0.024099,0.021187,-0.640417,-0.021696,0.017338,-0.640417,-0.870161,0.669365,-0.262153,-2.842263,-1.700068,-6.144874
1790543544.3989,-0.033515,0.038917,-0.646475,-0.029970,0.032443,-0.646475,-1.230761,0.901266,-0.324075,-1.807408,1.832031,-7.386832
1790543544.4127,-0.025417,0.035072,-0.639287,-0.026783,0.034283,-0.639287,0.129078,-0.463430,-0.252440,-2.114032,-0.956469,-17.361308
1790543544.4266,-0.032135,0.029887,-0.637971,-0.030529,0.031206,-0.637971,0.364621,0.216490,0.676379,4.286742,2.947431,-16.119350
1790543544.4405,-0.037211,0.023786,-0.628289,-0.035207,0.026012,-0.628289,0.375549,0.097504,0.885211,2.293686,1.162791,-11.151518
1790543544.4544,-0.029734,0.016845,-0.611260,-0.031376,0.019595,-0.611260,0.465395,-0.355371,0.756512,-3.800463,0.976891,-6.377742
1790543544.4683,-0.035656,0.008275,-0.596040,-0.034372,0.011671,-0.596040,0.426543,0.476316,0.507613,-0.849208,-0.659029,-4.631238
1790543544.4822,-0.050596,-0.002669,-0.591864,-0.045729,0.001633,-0.591864,0.737363,0.914622,0.639954,1.642111,1.162791,-11.423196
1790543544.4963,-0.066705,-0.017573,-0.587409,-0.060412,-0.011811,-0.587409,1.028757,0.972901,0.769867,1.718767,1.237151,-9.676693
1790543544.5105,-0.084308,-0.023709,-0.589670,-0.077139,-0.020140,-0.589670,0.554028,1.090672,0.900995,1.067191,3.430771,-7.813756
1790543544.5243,-0.090940,-0.030033,-0.577444,-0.086800,-0.027065,-0.577444,0.433828,0.427751,0.920421,-0.235960,1.980751,-10.103616
1790543544.5383,-0.084841,-0.032068,-0.566977,-0.085429,-0.030567,-0.566977,0.167930,-0.481642,0.846358,-0.389272,3.133331,-11.151518
1790543544.5523,-0.073094,-0.030545,-0.552588,-0.076794,-0.030552,-0.552588,-0.214524,-0.975797,0.857286,1.297159,0.790991,-13.441378
1790543544.5662,-0.065292,-0.026551,-0.543179,-0.068743,-0.027751,-0.543179,-0.439141,-0.814317,0.797793,3.443526,-0.584669,-11.229140
1790543544.5803,-0.059389,-0.020636,-0.537040,-0.062195,-0.022770,-0.537040,-0.603050,-0.759680,0.788080,3.750150,-1.030829,-8.163056
1790543544.5943,-0.054292,-0.014656,-0.530045,-0.056663,-0.017091,-0.530045,-0.620048,-0.673476,0.609601,3.175230,-1.179549,-7.231588
1790543544.6081,-0.047097,-0.005772,-0.526956,-0.049967,-0.009167,-0.526956,-0.730535,-0.753609,0.467546,2.753622,0.307651,-9.288581
1790543544.6220,-0.038076,0.009300,-0.533478,-0.041644,0.003760,-0.533478,-1.115418,-0.935731,0.259928,4.555037,1.125611,-10.336483
1790543544.6360,-0.029394,0.027505,-0.546118,-0.033069,0.020382,-0.546118,-1.282969,-0.871381,-0.070319,4.976645,2.166651,-10.685784
1790543544.6498,-0.040659,0.030344,-0.548453,-0.038382,0.027355,-0.548453,-0.266732,0.817490,-0.309505,2.293686,1.162791,-15.614805
1790543544.6637,-0.029454,0.028945,-0.548217,-0.032132,0.028468,-0.548217,0.102367,-0.454931,-1.056202,-2.880591,1.980751,-11.617252
1790543544.6776,-0.021527,0.025395,-0.542800,-0.024709,0.026317,-0.542800,0.605022,0.055009,-0.832800,-4.490366,3.579491,-1.177042
1790543544.6916,-0.023718,0.016869,-0.556871,-0.024015,0.019704,-0.556871,0.635375,0.224989,-0.699244,0.683911,1.274331,-6.300119
1790543544.7056,-0.007714,0.009254,-0.559971,-0.012604,0.012389,-0.559971,0.515175,-0.882309,-0.908077,-1.845736,1.051251,-8.939280
1790543544.7195,0.001384,-0.001095,-0.569902,-0.002812,0.002950,-0.569902,0.737363,-0.420935,-1.006422,-1.347472,1.534591,-9.482637
1790543544.7330,0.006255,-0.009671,-0.587483,0.003535,-0.005885,-0.587483,0.668157,-0.107686,-1.252893,-1.079176,2.017931,-8.473546
1790543544.7466,0.015962,-0.010652,-0.611774,0.012234,-0.009222,-0.611774,0.226209,-0.429434,-1.258964,-1.424128,2.947431,-6.261308
1790543544.7613,0.019144,-0.020074,-0.627415,0.017071,-0.016818,-0.627415,0.603807,-0.029981,-1.148477,-0.695896,1.162791,-9.055714
1790543544.7754,0.030229,-0.028836,-0.642186,0.026281,-0.025231,-0.642186,0.659658,-0.554490,-1.039204,-1.999048,2.241011,-8.900469
1790543544.7894,0.012219,-0.034430,-0.659167,0.016437,-0.031670,-0.659167,0.398617,1.384495,-0.895935,0.070663,2.687171,-14.722147
1790543544.8035,0.005073,-0.023277,-0.664244,0.008482,-0.025795,-0.664244,-0.813096,0.904909,-0.651893,-7.709917,1.534591,-12.432287
1790543544.8175,0.000373,-0.009309,-0.668610,0.002805,-0.014255,-0.668610,-1.095991,0.670579,-0.609398,-4.260399,-0.101329,-9.482637
1790543544.8315,-0.001958,0.002577,-0.672988,-0.000529,-0.002473,-0.672988,-0.987933,0.541880,-0.530479,-3.992103,-0.696209,-7.192776
1790543544.8455,-0.013445,0.017330,-0.683900,-0.009570,0.011389,-0.683900,-0.923583,0.913408,-0.560832,0.108991,1.943571,-4.631238
1790543544.8596,-0.026408,0.025059,-0.690310,-0.021357,0.020958,-0.690310,-0.603050,1.134381,-0.382353,-1.194160,0.456371,-5.795574
1790543544.8739,-0.022673,0.023833,-0.693236,-0.022278,0.022970,-0.693236,0.130292,-0.229100,-0.250012,0.607255,5.475671,-21.281238
1790543544.8879,-0.017791,0.018628,-0.688514,-0.019137,0.019931,-0.688514,0.305128,-0.456145,0.375271,0.875551,1.014071,-14.877392
1790543544.9019,-0.020314,0.020325,-0.679186,-0.019961,0.020207,-0.679186,-0.040902,-0.050621,0.837859,1.948735,4.137191,-12.471098
1790543544.9157,-0.022765,0.008281,-0.672196,-0.021924,0.011859,-0.672196,0.598951,0.030726,0.784437,0.108991,-1.105189,-3.855014
1790543544.9300,-0.028417,-0.001568,-0.671379,-0.026469,0.002460,-0.671379,0.693654,0.234702,0.384984,0.568927,0.493551,-2.923546
1790543544.9439,-0.044752,-0.013596,-0.671407,-0.039267,-0.008779,-0.671407,0.883060,1.016610,0.438407,2.025391,1.757671,-9.560259
1790543544.9575,-0.060565,-0.025682,-0.666240,-0.054176,-0.020611,-0.666240,0.923127,1.039678,0.665451,1.028863,2.092291,-9.133336
1790543544.9711,-0.074341,-0.033101,-0.657940,-0.068291,-0.029354,-0.657940,0.608664,0.985042,0.711589,-0.274288,2.947431,-10.336483
1790543544.9848,-0.077955,-0.038552,-0.646618,-0.075056,-0.035793,-0.646618,0.447183,0.217704,0.842716,-0.197632,3.170511,-11.151518
1790543544.9988,-0.067576,-0.041842,-0.633644,-0.069820,-0.040027,-0.633644,0.180072,-0.862882,0.854857,1.067191,1.460231,-12.121798
1790543545.0132,-0.055292,-0.037633,-0.622265,-0.059650,-0.038351,-0.622265,-0.363864,-0.949086,0.678807,0.683911,0.716631,-11.345574
1790543545.0274,-0.048816,-0.035001,-0.612192,-0.052066,-0.036006,-0.612192,-0.321369,-0.711115,0.782009,3.021918,-0.584669,-9.793126
1790543545.0414,-0.042115,-0.029644,-0.602483,-0.045100,-0.031552,-0.602483,-0.530201,-0.757252,0.749227,2.983590,-0.770569,-8.589979
1790543545.0554,-0.036809,-0.022396,-0.594924,-0.039297,-0.025143,-0.594924,-0.698967,-0.669834,0.533110,3.328542,-1.365448,-8.007811
1790543545.0693,-0.028685,-0.010316,-0.592169,-0.031869,-0.014764,-0.592169,-0.962436,-0.779106,0.253857,2.561982,-0.064149,-9.288581
1790543545.0835,-0.018941,0.007635,-0.595045,-0.022819,0.000915,-0.595045,-1.313323,-0.905377,0.068093,3.328542,0.753811,-9.443825
1790543545.0976,-0.009334,0.027689,-0.598978,-0.013379,0.019657,-0.598978,-1.490588,-0.906591,-0.123741,3.520182,0.567911,-8.628791
1790543545.1115,-0.019935,0.031303,-0.606164,-0.017968,0.027809,-0.606164,-0.322583,0.742214,-0.404208,2.370342,1.014071,-12.820399
1790543545.1256,-0.018341,0.023676,-0.609518,-0.018229,0.024916,-0.609518,0.524888,0.245629,-1.061059,-3.685479,2.055111,-14.023546
1790543545.1396,-0.004070,0.018699,-0.623708,-0.008318,0.020564,-0.623708,0.482393,-0.839814,-0.802447,-0.964192,3.691031,-9.172147
1790543545.1535,-0.013588,0.016149,-0.645609,-0.012007,0.017474,-0.645609,0.272347,0.530953,-0.492840,3.520182,2.575631,-7.736133
1790543545.1675,0.001537,0.007036,-0.642904,-0.002526,0.010167,-0.642904,0.607450,-0.814317,-0.755095,-2.803935,1.051251,-10.297672
1790543545.1813,0.015939,-0.005018,-0.654041,0.010399,-0.000463,-0.654041,0.895202,-0.830100,-0.968784,-1.615768,2.464091,-11.073895
1790543545.1949,0.021657,-0.014850,-0.675901,0.018280,-0.010533,-0.675901,0.798070,-0.354157,-1.045275,0.607255,1.943571,-6.261308
1790543545.2085,0.028240,-0.019181,-0.695151,0.025252,-0.016587,-0.695151,0.428971,-0.284951,-1.013707,-0.772552,1.980751,-5.096972
1790543545.2225,0.039907,-0.028085,-0.706722,0.035511,-0.024636,-0.706722,0.601379,-0.677119,-0.961499,-0.887536,1.088431,-7.930189
1790543545.2364,0.049216,-0.038666,-0.718065,0.045104,-0.034457,-0.718065,0.702153,-0.535064,-0.957857,-1.040848,1.125611,-10.802217
1790543545.2503,0.031533,-0.041950,-0.731891,0.035604,-0.039702,-0.731891,0.188571,1.299505,-0.785449,1.335487,1.943571,-16.817952
1790543545.2647,0.019784,-0.027787,-0.740361,0.024530,-0.031361,-0.740361,-0.995218,1.056676,-0.730812,-5.065286,2.761531,-17.050819
1790543545.2788,0.019839,-0.012685,-0.713362,0.021246,-0.018288,-0.713362,-1.214977,0.543094,-0.654321,-7.518277,-1.030829,-6.261308
1790543545.2928,0.012662,-0.000497,-0.714634,0.015237,-0.005835,-0.714634,-1.074137,0.779852,-0.463701,-2.267343,-1.105189,-6.494175
1790543545.3067,0.008706,0.014824,-0.716804,0.010665,0.008626,-0.716804,-1.219834,0.539452,-0.439418,-2.497311,-0.138509,-7.736133
1790543545.3207,0.006289,0.025902,-0.718031,0.007602,0.020719,-0.718031,-0.919941,0.358545,-0.277937,-2.727279,-0.287229,-11.462007
1790543545.3346,0.011378,0.024084,-0.713980,0.010245,0.023074,-0.713980,0.023448,-0.260668,0.035312,-3.148887,-0.064149,-14.644525
1790543545.3487,0.011367,0.026932,-0.705135,0.011030,0.025775,-0.705135,-0.191456,-0.129540,0.654524,-0.082648,2.017931,-11.462007
1790543545.3637,0.012762,0.025336,-0.689457,0.012242,0.025468,-0.689457,0.121793,-0.272809,0.999340,-0.350944,1.608951,-9.715504
1790543545.3790,0.008734,0.014587,-0.673996,0.009786,0.017851,-0.673996,0.641446,0.305122,0.782009,-1.960720,0.121751,-5.601518
1790543545.3934,-0.002788,0.007937,-0.669162,0.000985,0.010911,-0.669162,0.504248,0.605016,0.750441,1.028863,1.980751,-8.667602
1790543545.4077,-0.014563,-0.002935,-0.662097,-0.009898,0.001219,-0.662097,0.771359,0.630512,0.868213,1.143847,1.757671,-10.414105
1790543545.4224,-0.027012,-0.008379,-0.654024,-0.021878,-0.005500,-0.654024,0.461753,0.618371,1.011482,1.488799,2.873071,-8.667602
1790543545.4364,-0.033479,-0.011554,-0.639672,-0.029999,-0.009738,-0.639672,0.295415,0.295409,1.108613,0.338959,2.687171,-9.016902
1790543545.4506,-0.037484,-0.015906,-0.625005,-0.035238,-0.014055,-0.625005,0.271132,0.098718,1.136538,0.607255,1.162791,-9.366203
1790543545.4649,-0.045014,-0.020199,-0.612573,-0.042081,-0.018356,-0.612573,0.260205,0.336690,1.062476,1.105519,1.237151,-10.258860
1790543545.4790,-0.047236,-0.024202,-0.599596,-0.045690,-0.022448,-0.599596,0.263848,0.044082,0.914350,0.223975,1.423051,-9.560259
1790543545.4933,-0.028827,-0.016311,-0.585299,-0.033886,-0.018152,-0.585299,-0.464638,-1.346111,0.714017,-0.887536,4.248731,-12.509909
1790543545.5076,-0.017504,-0.009034,-0.580216,-0.022419,-0.011770,-0.580216,-0.536272,-1.049860,0.688520,3.175230,1.348691,-11.966553
1790543545.5222,-0.013999,0.002124,-0.582879,-0.016525,-0.002044,-0.582879,-0.841022,-0.576345,0.547679,5.014973,0.158931,-10.957462
1790543545.5364,-0.008223,0.016223,-0.590294,-0.010713,0.010743,-0.590294,-1.065638,-0.814317,0.258714,5.858189,0.010211,-8.124245
1790543545.5505,0.003653,0.032893,-0.595944,-0.000657,0.026248,-0.595944,-1.157913,-1.041361,-0.065462,2.178703,1.608951,-6.843476
1790543545.5645,-0.000459,0.032859,-0.592570,-0.000519,0.030876,-0.592570,-0.151389,0.233488,-0.117670,1.603783,-0.733389,-11.811308
1790543545.5784,0.007137,0.030267,-0.598562,0.004840,0.030450,-0.598562,0.284488,-0.344444,-0.558404,-2.343999,4.248731,-11.267951
1790543545.5923,0.005048,0.024652,-0.611088,0.004986,0.026391,-0.611088,0.357337,0.254128,-0.821873,0.798895,1.646131,-12.277042
1790543545.6064,0.005280,0.017889,-0.622366,0.005191,0.020439,-0.622366,0.449611,0.135143,-0.847370,-0.197632,1.757671,-11.850119
1790543545.6204,0.007387,0.013833,-0.635988,0.006729,0.015815,-0.635988,0.245636,-0.101615,-0.853441,1.335487,1.162791,-9.599070
1790543545.6344,0.016863,0.007361,-0.646524,0.013823,0.009897,-0.646524,0.438684,-0.451288,-1.045275,-0.925864,1.162791,-7.153965
1790543545.6479,0.021645,-0.004258,-0.662424,0.019298,-0.000012,-0.662424,0.796856,-0.196318,-1.217683,0.147319,0.939711,-8.279490
1790543545.6615,0.033039,-0.011972,-0.679920,0.028916,-0.008384,-0.679920,0.574668,-0.661335,-1.218897,-0.465928,2.055111,-8.939280
1790543545.6751,0.041095,-0.017184,-0.698469,0.037441,-0.014544,-0.698469,0.356122,-0.531421,-1.141192,0.913879,1.646131,-9.249770
1790543545.6891,0.043921,-0.023779,-0.716179,0.041977,-0.021009,-0.716179,0.435042,-0.164751,-1.025849,1.143847,1.683311,-10.452916
1790543545.7030,0.049875,-0.029553,-0.728778,0.047505,-0.026989,-0.728778,0.422900,-0.295878,-0.804875,-1.424128,2.649991,-12.315854
1790543545.7168,0.033352,-0.024226,-0.752171,0.037598,-0.025055,-0.752171,-0.352937,1.187804,-1.023420,2.332014,3.244871,-11.073895
1790543545.7308,0.028410,-0.012795,-0.754405,0.031166,-0.016473,-0.754405,-0.895658,0.647510,-0.791519,-5.103614,1.162791,-14.566903
1790543545.7449,0.023970,-0.003519,-0.751366,0.026129,-0.007405,-0.751366,-0.796098,0.630512,-0.735669,-3.532167,-0.287229,-9.172147
1790543545.7592,0.017162,0.006889,-0.740657,0.019852,0.002601,-0.740657,-0.907799,0.806563,-0.356856,-2.765607,-0.733389,-5.407462
1790543545.7734,0.009354,0.023716,-0.743200,0.012504,0.017382,-0.743200,-1.155484,0.815062,-0.372640,-2.688951,1.869211,-7.270399
1790543545.7874,0.009922,0.031669,-0.742131,0.010696,0.027383,-0.742131,-0.629761,0.180066,-0.282794,-4.528694,1.348691,-14.799770
1790543545.8013,0.019487,0.028699,-0.734208,0.016850,0.028304,-0.734208,0.107223,-0.707472,0.301209,-1.462456,-0.138509,-12.742777
1790543545.8152,0.008538,0.024348,-0.736863,0.011032,0.025535,-0.736863,0.257777,0.388898,0.928920,4.976645,0.530731,-13.208511
1790543545.8292,0.006720,0.020883,-0.728608,0.008013,0.022279,-0.728608,0.524888,0.014942,0.943490,-0.580912,3.282051,-4.631238
1790543545.8432,0.005454,0.016861,-0.722252,0.006222,0.018487,-0.722252,0.337910,0.098718,0.364344,-0.734224,1.348691,-5.329839
1790543545.8572,-0.010471,0.010533,-0.727612,-0.005463,0.012919,-0.727612,0.454468,0.811420,0.442049,4.861661,1.646131,-10.142427
1790543545.8712,-0.024294,-0.004674,-0.724119,-0.018645,0.000604,-0.724119,1.073680,0.794422,0.592603,1.948735,1.385871,-10.103616
1790543545.8847,-0.039005,-0.011356,-0.722790,-0.032897,-0.007768,-0.722790,0.674228,0.833274,0.896138,2.293686,4.248731,-8.512357
1790543545.8983,-0.051935,-0.018494,-0.714715,-0.046224,-0.015276,-0.714715,0.631733,0.819919,1.034550,0.300631,3.319231,-8.939280
1790543545.9122,-0.056543,-0.028419,-0.699995,-0.053447,-0.024476,-0.699995,0.646302,0.214062,1.002983,0.185647,0.716631,-8.357112
1790543545.9262,-0.055342,-0.030112,-0.690713,-0.054774,-0.028421,-0.690713,0.136363,-0.220601,0.801435,1.335487,2.910251,-13.713056
1790543545.9404,-0.048450,-0.032494,-0.672706,-0.050347,-0.031272,-0.672706,0.039231,-0.623696,0.921635,0.990535,-0.361589,-14.916203
1790543545.9544,-0.042841,-0.025245,-0.655839,-0.045093,-0.027053,-0.655839,-0.680755,-0.673476,0.751655,3.673494,-1.179549,-10.957462
1790543545.9683,-0.040769,-0.016668,-0.641914,-0.042066,-0.019784,-0.641914,-0.775458,-0.502282,0.690948,4.593365,-1.030829,-9.172147
1790543545.9821,-0.035632,-0.004090,-0.635325,-0.037562,-0.008798,-0.635325,-1.009787,-0.668620,0.431122,3.903462,-0.026969,-9.172147
1790543545.9961,-0.027741,0.011698,-0.635787,-0.030687,0.005549,-0.635787,-1.148200,-0.875024,0.321849,3.941790,1.237151,-8.512357
1790543546.0102,-0.013638,0.028122,-0.635976,-0.018752,0.021350,-0.635976,-1.155484,-1.295117,0.230788,3.251886,1.423051,-7.425644
1790543546.0246,-0.002559,0.039359,-0.635940,-0.007417,0.033956,-0.635940,-0.773030,-0.949086,0.117873,2.485326,2.092291,-10.414105
1790543546.0386,-0.010135,0.029109,-0.637289,-0.009320,0.030563,-0.637289,0.700939,0.663294,-0.316790,-1.194160,2.092291,-14.334035
1790543546.0534,0.002344,0.023807,-0.653907,-0.001155,0.025834,-0.653907,0.442327,-0.598199,-0.932360,-2.688951,5.141051,-14.916203
1790543546.0676,0.003331,0.019781,-0.664793,0.001986,0.021597,-0.664793,0.235922,0.051367,-0.927503,0.607255,1.237151,-10.142427
1790543546.0815,-0.000318,0.013239,-0.662822,0.000373,0.015746,-0.662822,0.333054,0.251700,-0.577830,1.603783,-0.250049,-8.667602
1790543546.0955,0.010580,0.006647,-0.659078,0.007518,0.009377,-0.659078,0.413187,-0.503496,-0.671319,-2.535639,0.790991,-8.163056
1790543546.1090,0.017777,-0.002518,-0.677034,0.014699,0.001050,-0.677034,0.700939,-0.433076,-0.978497,0.415615,1.943571,-8.628791
1790543546.1226,0.022789,-0.009861,-0.697628,0.020362,-0.006588,-0.697628,0.578310,-0.283737,-0.995495,0.568927,2.352551,-9.366203
1790543546.1367,0.031276,-0.012457,-0.722824,0.028002,-0.010696,-0.722824,0.272347,-0.454931,-1.081699,-0.389272,2.910251,-8.279490
1790543546.1505,0.036649,-0.017571,-0.737277,0.034055,-0.015509,-0.737277,0.331840,-0.243670,-1.031919,-0.465928,1.385871,-9.094525
1790543546.1645,0.038684,-0.023165,-0.755299,0.037295,-0.020868,-0.755299,0.418044,-0.034837,-0.904434,-0.312616,2.092291,-9.055714
1790543546.1784,0.022293,-0.025177,-0.769695,0.026794,-0.023884,-0.769695,0.140005,1.317717,-0.704101,-1.117504,2.352551,-12.975644
1790543546.1923,0.014583,-0.012953,-0.766517,0.018246,-0.016233,-0.766517,-0.932082,0.886696,-0.579044,-6.483422,1.237151,-13.557812
1790543546.2063,0.011902,-0.001479,-0.753599,0.013805,-0.005905,-0.753599,-1.009787,0.481173,-0.511052,-3.072231,-1.068009,-8.007811
1790543546.2203,0.006041,0.009878,-0.744164,0.008370,0.005143,-0.744164,-0.984290,0.715502,-0.360499,-2.343999,-0.621849,-5.601518
1790543546.2342,-0.002193,0.024300,-0.745439,0.000976,0.018553,-0.745439,-1.047426,0.749498,-0.214802,-1.155832,0.939711,-5.756762
1790543546.2483,0.003028,0.020848,-0.742742,0.002412,0.020159,-0.742742,0.209211,-0.125898,-0.218444,-3.762135,1.162791,-9.754315
1790543546.2623,0.002048,0.015389,-0.734369,0.002158,0.016820,-0.734369,0.305128,-0.094330,0.569534,1.450471,0.233291,-15.731238
1790543546.2767,-0.004266,0.008650,-0.720661,-0.002339,0.011101,-0.720661,0.385262,0.290553,0.835431,0.147319,0.158931,-12.471098
1790543546.2909,-0.003479,0.000410,-0.703802,-0.003137,0.003618,-0.703802,0.540672,-0.107686,0.848787,-1.385800,0.753811,-9.249770
1790543546.3049,-0.010961,-0.007653,-0.692126,-0.008614,-0.004272,-0.692126,0.560098,0.549165,0.624170,-1.079176,0.753811,-6.338930
1790543546.3188,-0.027266,-0.018371,-0.692036,-0.021670,-0.014141,-0.692036,0.773787,0.930406,0.780795,2.370342,1.385871,-9.521448
1790543546.3327,-0.040081,-0.028810,-0.689319,-0.034558,-0.024409,-0.689319,0.817496,0.731286,0.852429,1.412143,2.315371,-8.551168
1790543546.3464,-0.057605,-0.034916,-0.688318,-0.050691,-0.031764,-0.688318,0.524888,1.088244,0.863356,1.948735,2.761531,-9.366203
1790543546.3600,-0.064637,-0.041609,-0.679236,-0.060453,-0.038655,-0.679236,0.535815,0.448391,0.917993,-0.082648,2.798711,-10.841028
1790543546.3739,-0.066837,-0.046210,-0.670023,-0.064922,-0.043943,-0.670023,0.343981,0.068365,0.839074,0.492271,2.092291,-10.103616
1790543546.3878,-0.055453,-0.049886,-0.656853,-0.058294,-0.048103,-0.656853,0.201926,-0.922375,0.814791,0.722239,1.014071,-13.441378
1790543546.4017,-0.041054,-0.046822,-0.646731,-0.046226,-0.047207,-0.646731,-0.297086,-1.162775,0.588960,1.297159,0.270471,-10.724595
1790543546.4154,-0.032072,-0.041866,-0.635236,-0.036318,-0.043468,-0.635236,-0.511989,-0.900521,0.769867,3.021918,-1.179549,-10.608161
1790543546.4293,-0.029415,-0.038751,-0.631398,-0.031486,-0.040166,-0.631398,-0.390575,-0.553276,0.620528,4.018446,-1.328269,-7.270399
1790543546.4432,-0.021554,-0.028419,-0.627549,-0.024534,-0.031943,-0.627549,-0.783957,-0.746325,0.433550,1.833751,0.493551,-8.357112
1790543546.4573,-0.016066,-0.016141,-0.626559,-0.018606,-0.020881,-0.626559,-1.017072,-0.680761,0.127586,4.785005,-1.253909,-9.521448
1790543546.4712,-0.004558,-0.000580,-0.632923,-0.008772,-0.006670,-0.632923,-1.162769,-1.023149,-0.133454,3.251886,0.679451,-9.560259
1790543546.4851,0.002553,0.020170,-0.648043,-0.000845,0.012118,-0.648043,-1.438380,-0.720828,-0.163808,3.673494,2.352551,-9.560259
1790543546.4990,-0.016418,0.020450,-0.647386,-0.011746,0.017950,-0.647386,-0.167173,1.203588,-0.359285,6.203141,-0.919289,-13.480189
1790543546.5132,-0.011080,0.012554,-0.645395,-0.011280,0.014173,-0.645395,0.581953,0.108431,-1.125408,-7.134997,3.170511,-13.014455
1790543546.5276,-0.009873,0.011268,-0.682551,-0.010295,0.012139,-0.682551,0.283274,-0.046979,-0.897150,1.757095,4.583351,-9.055714
1790543546.5414,-0.016165,0.006751,-0.701297,-0.014404,0.008367,-0.701297,0.385262,0.416823,-0.600899,1.833751,1.869211,-7.503266
1790543546.5554,0.001028,-0.001500,-0.696453,-0.003602,0.001460,-0.696453,0.535815,-0.980654,-0.724741,-2.957247,1.014071,-11.617252
1790543546.5689,0.010309,-0.013099,-0.709517,0.006136,-0.008731,-0.709517,0.874561,-0.508353,-0.960285,-0.964192,2.017931,-10.452916
1790543546.5826,0.021203,-0.023236,-0.723554,0.016683,-0.018884,-0.723554,0.722793,-0.617626,-1.132693,-0.657568,1.199971,-8.007811
1790543546.5962,0.030798,-0.027218,-0.742786,0.026564,-0.024718,-0.742786,0.333054,-0.616411,-0.963927,0.032335,1.720491,-7.153965
1790543546.6101,0.034601,-0.034257,-0.761911,0.032190,-0.031395,-0.761911,0.556456,-0.186605,-0.824301,-0.197632,2.055111,-7.930189
1790543546.6239,0.025613,-0.041012,-0.785511,0.027586,-0.038127,-0.785511,0.703367,0.726430,-0.458844,-0.849208,5.921830,-11.151518
1790543546.6379,0.011313,-0.033598,-0.794389,0.016195,-0.034957,-0.794389,-0.487706,1.266723,-0.537764,-5.065286,3.765391,-15.731238
1790543546.6517,0.007173,-0.018345,-0.787527,0.009880,-0.023329,-0.787527,-1.167626,0.608658,-0.519551,-5.908502,0.828171,-13.402567
1790543546.6656,0.002377,-0.005852,-0.778047,0.004628,-0.011095,-0.778047,-1.029214,0.605016,-0.430919,-2.765607,-0.398769,-8.007811
1790543546.6795,-0.004513,0.008839,-0.788123,-0.001771,0.002859,-0.788123,-1.028000,0.681506,-0.580259,-1.079176,1.608951,-6.998721
1790543546.6935,-0.006690,0.012893,-0.771333,-0.005214,0.009883,-0.771333,-0.509561,0.541880,-0.555976,-3.302199,-1.402628,-6.106063
1790543546.7075,-0.016785,0.025536,-0.782389,-0.013314,0.020840,-0.782389,-0.819167,0.947404,-0.529265,-1.347472,2.241011,-6.610609
1790543546.7213,-0.004725,0.024021,-0.775925,-0.007302,0.023066,-0.775925,-0.034831,-0.737826,-0.201446,-3.340527,-1.068009,-18.137532
1790543546.7353,-0.003673,0.023832,-0.770941,-0.004762,0.023602,-0.770941,0.019805,-0.304377,0.570748,2.715294,2.464091,-13.596623
1790543546.7492,-0.004012,0.018529,-0.760184,-0.004237,0.020051,-0.760184,0.316056,-0.161108,0.684878,1.258831,0.753811,-13.247322
1790543546.7633,-0.015856,0.007596,-0.759118,-0.012370,0.011332,-0.759118,0.810212,0.626870,0.576819,1.450471,1.423051,-6.532986
1790543546.7777,-0.029626,-0.001595,-0.760979,-0.024449,0.002283,-0.760979,0.733721,0.795636,0.520968,1.182175,2.278191,-6.804665
1790543546.7918,-0.041960,-0.013482,-0.755079,-0.036707,-0.008752,-0.755079,0.870919,0.719145,0.765011,1.182175,2.129471,-9.987182
1790543546.8054,-0.062256,-0.022876,-0.752678,-0.054591,-0.018639,-0.752678,0.782286,1.292220,0.907066,2.063719,3.282051,-9.870749
1790543546.8190,-0.072333,-0.032103,-0.745209,-0.067010,-0.028064,-0.745209,0.751933,0.654795,1.061262,-0.159304,3.430771,-10.064805
1790543546.8330,-0.079855,-0.038382,-0.735891,-0.076002,-0.035286,-0.735891,0.495749,0.416823,1.106185,0.377287,2.241011,-7.115154
1790543546.8470,-0.070286,-0.043355,-0.718670,-0.072001,-0.040935,-0.718670,0.256563,-0.708686,0.942276,-1.194160,0.753811,-13.092077
1790543546.8609,-0.058626,-0.040493,-0.702947,-0.062639,-0.040625,-0.702947,-0.301943,-0.970941,0.856072,1.412143,0.605091,-14.722147
1790543546.8749,-0.053125,-0.036274,-0.684209,-0.055979,-0.037579,-0.684209,-0.440355,-0.620054,0.873070,2.676966,-0.473129,-10.879840
1790543546.8890,-0.047875,-0.027948,-0.664011,-0.050306,-0.030838,-0.664011,-0.729321,-0.700187,0.951989,3.481854,-0.435949,-8.512357
1790543546.9030,-0.042271,-0.014369,-0.647853,-0.044682,-0.019309,-0.647853,-1.114204,-0.754824,0.707946,4.938317,-0.621849,-10.025993
1790543546.9170,-0.032549,0.005116,-0.638686,-0.036189,-0.002212,-0.638686,-1.455378,-0.949086,0.505184,3.136902,0.679451,-9.870749
1790543546.9310,-0.026260,0.025759,-0.634398,-0.029239,0.017368,-0.634398,-1.540367,-0.794890,0.298780,4.823333,0.605091,-8.784035
1790543546.9450,-0.017788,0.047294,-0.631930,-0.021223,0.038316,-0.631930,-1.595004,-0.875024,0.087520,3.750150,0.939711,-8.667602
1790543546.9588,-0.018590,0.052488,-0.619953,-0.019380,0.048236,-0.619953,-0.487706,0.320906,-0.392067,-4.413711,0.642271,-15.770049
1790543546.9728,-0.004819,0.043116,-0.633195,-0.009187,0.044652,-0.633195,0.768931,-0.902949,-0.492840,-0.274288,5.215411,-14.489280
1790543546.9867,-0.014694,0.036594,-0.660935,-0.013042,0.039011,-0.660935,0.629304,0.750713,-0.587543,1.450471,4.360271,-9.366203
1790543547.0006,-0.013210,0.031481,-0.666688,-0.013160,0.033740,-0.666688,0.326983,0.103575,-0.801232,-0.695896,0.976891,-7.658511
1790543547.0148,0.006015,0.025566,-0.668846,0.000263,0.028018,-0.668846,0.393761,-1.070501,-0.820659,-2.688951,1.460231,-9.249770
1790543547.0288,0.011228,0.010929,-0.675637,0.007939,0.016056,-0.675637,0.909771,-0.134397,-1.239538,-0.465928,0.010211,-8.318301
1790543547.0426,0.021221,0.003936,-0.711251,0.017236,0.007572,-0.711251,0.743434,-0.469500,-1.164261,-0.887536,3.021791,-4.631238
1790543547.0562,0.029265,-0.000836,-0.734821,0.025656,0.001686,-0.734821,0.441112,-0.419720,-1.110839,-0.389272,2.984611,-8.124245
1790543547.0701,0.033178,-0.007765,-0.756880,0.030921,-0.004930,-0.756880,0.557670,-0.161108,-1.062273,0.185647,2.947431,-9.133336
1790543547.0842,0.043846,-0.015062,-0.776921,0.039969,-0.012022,-0.776921,0.581953,-0.493783,-1.037990,-2.880591,3.467951,-10.375294
1790543547.0982,0.028858,-0.012535,-0.796468,0.032191,-0.012381,-0.796468,-0.131963,1.174448,-0.817016,-0.005993,4.100011,-13.480189
1790543547.1120,0.015590,-0.002916,-0.810132,0.020571,-0.005755,-0.810132,-0.684397,1.165949,-0.630038,-3.340527,3.579491,-16.623896
1790543547.1259,0.011426,0.007674,-0.801563,0.014169,0.003645,-0.801563,-0.919941,0.613514,-0.518337,-4.145415,-0.770569,-9.676693
1790543547.1399,0.009238,0.014285,-0.789987,0.010718,0.011093,-0.789987,-0.626119,0.476316,-0.243941,-3.992103,-0.696209,-7.503266
1790543547.1539,0.001229,0.028364,-0.792649,0.004076,0.023183,-0.792649,-1.015858,0.858771,-0.239085,-2.995575,1.199971,-6.804665
1790543547.1679,-0.003133,0.034080,-0.782069,-0.000971,0.030811,-0.782069,-0.667399,0.647510,-0.201446,-2.458983,-1.365448,-4.320748
1790543547.1817,-0.004971,0.036692,-0.783315,-0.003771,0.034927,-0.783315,-0.172029,0.267484,-0.109171,-1.845736,2.166651,-9.560259
1790543547.1957,-0.000254,0.029020,-0.772899,-0.001309,0.030792,-0.772899,0.405902,-0.365084,0.506399,-1.730752,-0.844929,-12.626343
1790543547.2097,-0.009683,0.018529,-0.763344,-0.007171,0.022208,-0.763344,0.674228,0.436250,0.866999,1.795423,0.456371,-12.238231
1790543547.2238,-0.012079,0.007653,-0.751230,-0.010606,0.012020,-0.751230,0.719151,0.079292,0.771082,-0.657568,0.828171,-10.025993
1790543547.2378,-0.025944,-0.001754,-0.749819,-0.021343,0.002378,-0.749819,0.681513,0.674222,0.688520,2.140375,0.939711,-5.329839
1790543547.2522,-0.037455,-0.014783,-0.742200,-0.032622,-0.009635,-0.742200,0.912200,0.669365,0.723730,0.722239,1.423051,-8.473546
1790543547.2659,-0.054161,-0.025737,-0.736858,-0.047699,-0.020907,-0.736858,0.855135,0.995969,0.856072,1.718767,1.980751,-7.270399
1790543547.2798,-0.069583,-0.035544,-0.728335,-0.063018,-0.031153,-0.728335,0.743434,0.972901,0.934991,1.335487,3.058971,-12.199420
1790543547.2939,-0.081803,-0.045555,-0.716394,-0.076168,-0.041235,-0.716394,0.688797,0.725216,1.047906,1.258831,1.906391,-10.802217
1790543547.3079,-0.068668,-0.056318,-0.695602,-0.070918,-0.051793,-0.695602,0.591666,-0.947872,0.992055,-1.462456,-1.030829,-13.286133
1790543547.3219,-0.055672,-0.054139,-0.684539,-0.060246,-0.053435,-0.684539,-0.242450,-1.091141,0.714017,2.178703,0.270471,-11.500819
1790543547.3359,-0.052295,-0.052149,-0.670379,-0.054680,-0.052534,-0.670379,-0.389361,-0.554490,0.755298,4.976645,-3.150088,-10.258860
1790543547.3499,-0.046982,-0.042248,-0.660744,-0.049292,-0.045334,-0.660744,-0.854377,-0.689260,0.774724,4.171758,-0.993649,-9.560259
1790543547.3639,-0.038992,-0.029775,-0.651337,-0.042082,-0.034443,-0.651337,-1.043783,-0.809460,0.531896,2.830278,-0.919289,-8.900469
1790543547.3779,-0.036568,-0.009781,-0.652400,-0.038222,-0.017179,-0.652400,-1.494230,-0.498640,0.409267,4.516709,0.233291,-8.784035
1790543547.3921,-0.031474,0.012907,-0.654788,-0.033499,0.003881,-0.654788,-1.660568,-0.703830,0.215005,4.056774,0.344831,-6.688231
1790543547.4060,-0.023313,0.032519,-0.646058,-0.026369,0.023928,-0.646058,-1.551295,-0.870167,0.187079,3.980118,-0.510309,-8.978091
1790543547.4200,-0.029186,0.035493,-0.641735,-0.028341,0.032024,-0.641735,-0.312870,0.248058,0.183437,3.826806,0.382011,-14.605714
1790543547.4340,-0.014800,0.022275,-0.624451,-0.018862,0.025200,-0.624451,0.798070,-0.944230,-0.222087,-1.385800,-0.733389,-17.749420
1790543547.4495,-0.026998,0.030008,-0.673193,-0.024557,0.028565,-0.673193,-0.226666,0.740999,-0.547477,3.021918,6.553890,-8.861658
1790543547.4643,-0.030771,0.036322,-0.690349,-0.028907,0.033995,-0.690349,-0.325011,0.401040,-0.600899,-0.197632,2.055111,-5.834385
1790543547.4790,-0.016700,0.027452,-0.667356,-0.020362,0.029415,-0.667356,0.470252,-0.621268,-0.656749,-4.720334,-0.324409,-12.471098
1790543547.4932,-0.002921,0.013148,-0.661086,-0.008153,0.018028,-0.661086,0.908557,-0.640694,-0.943287,-2.343999,0.196111,-8.007811
1790543547.5080,0.012470,0.004964,-0.691591,0.006283,0.008883,-0.691591,0.753147,-0.927232,-0.898364,-0.005993,3.133331,-5.601518
1790543547.5224,0.020985,0.000042,-0.714877,0.016575,0.002694,-0.714877,0.458110,-0.442789,-0.956643,-0.389272,3.133331,-7.813756
1790543547.5365,0.025916,-0.005511,-0.736984,0.023114,-0.003049,-0.736984,0.490892,-0.223029,-0.929931,-0.235960,3.616671,-9.909560
1790543547.5505,0.034500,-0.010745,-0.759626,0.031084,-0.008436,-0.759626,0.495749,-0.451288,-0.963927,-0.810880,3.728211,-8.784035
1790543547.5650,0.027088,-0.015840,-0.777211,0.028287,-0.013619,-0.777211,0.520032,0.600159,-0.406636,-0.925864,5.066691,-10.414105
1790543547.5795,0.013831,-0.010741,-0.789944,0.018168,-0.011604,-0.789944,-0.297086,1.011753,-0.413921,-1.270816,4.434631,-16.468651
1790543547.5934,0.012066,0.001023,-0.787425,0.013897,-0.002765,-0.787425,-0.864090,0.379185,-0.309505,-5.065286,2.017931,-13.363756
1790543547.6076,0.006732,0.009342,-0.772357,0.008881,0.005710,-0.772357,-0.677112,0.687577,-0.162594,-4.758662,0.196111,-8.822846
1790543547.6220,0.002986,0.025111,-0.747575,0.004755,0.019291,-0.747575,-1.004931,0.738571,0.019528,-3.493839,1.162791,-2.302567
1790543547.6361,0.001337,0.035314,-0.752252,0.002362,0.030507,-0.752252,-0.668613,0.301480,-0.206303,-2.190688,2.464091,-8.240679
1790543547.6501,0.004098,0.026191,-0.743127,0.003577,0.027486,-0.743127,0.528531,-0.297092,0.389841,0.300631,-0.435949,-14.334035
1790543547.6642,-0.005260,0.019279,-0.730037,-0.002608,0.021741,-0.730037,0.353694,0.436250,0.816005,1.757095,-0.844929,-12.471098
1790543547.6785,-0.013249,0.010427,-0.717802,-0.010057,0.013821,-0.717802,0.586809,0.442320,0.858500,-0.389272,1.199971,-11.267951
1790543547.6924,-0.025325,-0.003548,-0.707917,-0.020744,0.001663,-0.707917,0.972907,0.776210,0.773510,-0.235960,1.125611,-10.064805
1790543547.7063,-0.042972,-0.016840,-0.700586,-0.036304,-0.011289,-0.700586,0.969264,1.014181,0.905851,2.025391,1.460231,-7.736133
1790543547.7200,-0.058882,-0.027094,-0.692474,-0.052109,-0.022352,-0.692474,0.823567,1.008111,0.996912,0.683911,2.203831,-7.037532
1790543547.7337,-0.075699,-0.037045,-0.682368,-0.068622,-0.032637,-0.682368,0.765288,1.080959,1.089187,0.683911,1.794851,-6.649420
1790543547.7478,-0.083373,-0.048348,-0.667020,-0.078948,-0.043635,-0.667020,0.764074,0.473888,1.200888,-0.312616,1.832031,-10.724595
1790543547.7621,-0.069756,-0.056056,-0.643317,-0.072513,-0.052330,-0.643317,0.320912,-0.987939,1.209387,-1.615768,-1.923148,-15.614805
1790543547.7763,-0.057899,-0.052313,-0.628043,-0.062283,-0.052318,-0.628043,-0.316512,-0.939373,0.987199,0.568927,1.348691,-12.393476
1790543547.7908,-0.058659,-0.053961,-0.610197,-0.059747,-0.053468,-0.610197,-0.159888,-0.282522,0.976272,5.474909,-3.819328,-10.724595
1790543547.8049,-0.052664,-0.051198,-0.595022,-0.054789,-0.051879,-0.595022,-0.391789,-0.707472,0.955631,3.711822,-1.737248,-10.220049
1790543547.8190,-0.040012,-0.037721,-0.582537,-0.044445,-0.041968,-0.582537,-1.083850,-1.103282,0.748013,1.987063,-0.398769,-9.133336
1790543547.8333,-0.037249,-0.016377,-0.580179,-0.039407,-0.024054,-0.580179,-1.534297,-0.577559,0.779581,3.405198,0.530731,-6.106063
1790543547.8475,-0.035361,0.007352,-0.573752,-0.036575,-0.002070,-0.573752,-1.808693,-0.559347,0.494257,5.321597,-0.770569,-7.153965
1790543547.8615,-0.028146,0.028107,-0.568418,-0.030675,0.019054,-0.568418,-1.609574,-0.866525,0.258714,5.091629,-0.473129,-8.822846
1790543547.8757,-0.031181,0.046592,-0.572244,-0.031029,0.038330,-0.572244,-1.321822,-0.101615,0.330348,4.746677,1.608951,-9.909560
1790543547.8899,-0.035629,0.039246,-0.546586,-0.034249,0.038972,-0.546586,0.290559,0.350046,0.085091,-0.465928,-2.369308,-16.002917
1790543547.9039,-0.046791,0.038515,-0.588350,-0.043028,0.038652,-0.588350,0.386476,0.772567,-0.302220,1.527127,5.959010,-7.231588
1790543547.9180,-0.046202,0.031286,-0.588803,-0.045250,0.033496,-0.588803,0.511533,0.110860,-0.373854,-1.079176,1.943571,-11.267951
1790543547.9323,-0.042934,0.031872,-0.592186,-0.043629,0.032359,-0.592186,-0.067613,-0.247312,-0.336216,0.952207,0.753811,-5.834385
1790543547.9463,-0.031093,0.022024,-0.576573,-0.034854,0.025124,-0.576573,0.530959,-0.697759,-0.530479,-0.772552,-1.068009,-11.656063
1790543547.9599,-0.016352,0.012311,-0.578049,-0.021903,0.016155,-0.578049,0.717937,-0.787605,-0.852226,-2.267343,1.534591,-8.822846
1790543547.9736,-0.005003,0.007262,-0.597579,-0.010073,0.009930,-0.597579,0.539458,-0.550848,-0.931146,-1.769080,3.207691,-6.882287
1790543547.9875,0.002268,0.000368,-0.614552,-0.001434,0.003236,-0.614552,0.591666,-0.352943,-0.835228,-0.772552,2.798711,-8.473546
1790543548.0013,0.011117,-0.004816,-0.628705,0.007351,-0.002400,-0.628705,0.462967,-0.427005,-0.810946,-1.730752,2.947431,-9.094525
1790543548.0155,0.019657,-0.010509,-0.638142,0.015965,-0.008076,-0.638142,0.454468,-0.389367,-0.668891,-2.918919,3.207691,-11.966553
1790543548.0299,0.003755,-0.008132,-0.651916,0.007418,-0.008115,-0.651916,-0.116179,1.152594,-0.457630,0.415615,3.839751,-15.071448
1790543548.0445,0.003846,0.003116,-0.652087,0.004918,-0.000253,-0.652087,-0.730535,0.243201,-0.257297,-7.020013,4.248731,-17.167252
1790543548.0588,0.001437,0.012821,-0.645006,0.002481,0.008899,-0.645006,-0.689254,0.510312,-0.150452,-4.873646,1.348691,-7.813756
1790543548.0728,-0.000451,0.022374,-0.641260,0.000429,0.018331,-0.641260,-0.618834,0.454462,0.013457,-3.340527,1.608951,-5.135783
1790543548.0868,-0.009484,0.034375,-0.642603,-0.006510,0.029562,-0.642603,-0.783957,0.767711,0.043810,-1.194160,1.757671,-5.523895
1790543548.1007,-0.009575,0.037084,-0.641700,-0.008656,0.034828,-0.641700,-0.289801,0.144856,-0.144382,-2.267343,0.456371,-12.548721
1790543548.1147,-0.007857,0.027893,-0.633091,-0.008096,0.029974,-0.633091,0.572240,-0.158680,0.445692,-1.424128,0.642271,-16.274595
1790543548.1286,-0.017104,0.020819,-0.623792,-0.014401,0.023565,-0.623792,0.441112,0.498171,0.772296,0.913879,0.976891,-14.528091
1790543548.1425,-0.024058,0.012801,-0.612789,-0.021161,0.016030,-0.612789,0.517603,0.430179,0.739514,-0.619240,0.716631,-8.628791
1790543548.1564,-0.032225,-0.001667,-0.604225,-0.028906,0.003642,-0.604225,0.954694,0.442320,0.720088,0.645583,0.196111,-8.085434
1790543548.1703,-0.045695,-0.015970,-0.597222,-0.040658,-0.010086,-0.597222,1.009331,0.750713,0.854857,1.373815,1.014071,-6.959909
1790543548.1840,-0.063456,-0.026999,-0.587326,-0.056616,-0.021925,-0.587326,0.812640,1.119812,1.055191,1.028863,1.460231,-7.425644
1790543548.1976,-0.076688,-0.038246,-0.572778,-0.070667,-0.033350,-0.572778,0.832066,0.906123,1.142609,-0.389272,1.943571,-8.512357
1790543548.2115,-0.087277,-0.049531,-0.557127,-0.082294,-0.044677,-0.557127,0.776216,0.664508,1.192389,0.223975,2.017931,-11.112707
1790543548.2254,-0.073347,-0.059338,-0.534542,-0.076031,-0.054939,-0.534542,0.452040,-0.989153,1.164464,-2.420655,-2.592388,-13.984735
1790543548.2392,-0.060998,-0.053721,-0.523041,-0.065508,-0.054087,-0.523041,-0.445211,-1.028006,0.842716,1.642111,1.683311,-13.480189
1790543548.2532,-0.060807,-0.049690,-0.515464,-0.062217,-0.051009,-0.515464,-0.442783,-0.291021,0.910708,4.210086,-1.030829,-11.656063
1790543548.2671,-0.052495,-0.038318,-0.508355,-0.055412,-0.042125,-0.508355,-0.900515,-0.882309,0.845144,3.405198,0.382011,-9.482637
1790543548.2811,-0.047832,-0.022538,-0.500935,-0.050106,-0.028414,-0.500935,-1.301182,-0.660121,0.732229,4.363398,-1.291089,-9.715504
1790543548.2958,-0.040682,-0.000904,-0.496779,-0.043509,-0.009157,-0.496779,-1.551295,-0.777892,0.563463,3.021918,0.233291,-7.464455
1790543548.3097,-0.034976,0.018250,-0.486713,-0.037536,0.010028,-0.486713,-1.585291,-0.677119,0.403197,3.443526,-1.625708,-9.521448
1790543548.3237,-0.025572,0.038474,-0.482513,-0.029161,0.029940,-0.482513,-1.591361,-0.970941,0.315778,3.941790,-0.584669,-9.560259
1790543548.3379,-0.023194,0.036497,-0.472774,-0.024984,0.034530,-0.472774,-0.010548,-0.314090,0.287853,2.753622,-0.882109,-17.322497
1790543548.3519,-0.019777,0.028600,-0.466500,-0.021339,0.030379,-0.466500,0.532173,-0.186605,-0.004755,-1.500784,2.538451,-17.865854
1790543548.3658,-0.029847,0.032137,-0.494072,-0.027294,0.031610,-0.494072,-0.027546,0.733715,-0.504982,1.527127,4.917971,-8.279490
1790543548.3798,-0.034976,0.034896,-0.497541,-0.032672,0.033910,-0.497541,-0.243664,0.516383,-0.579044,-0.197632,0.865351,-8.784035
1790543548.3938,-0.027448,0.034626,-0.480876,-0.029015,0.034411,-0.480876,-0.127106,-0.180534,-0.715028,-2.688951,-0.510309,-7.774944
1790543548.4074,-0.022622,0.021497,-0.477979,-0.024540,0.025371,-0.477979,0.756789,-0.210888,-0.662820,-0.120976,-1.439808,-8.784035
1790543548.4210,-0.006917,0.008672,-0.478532,-0.012204,0.013682,-0.478532,0.993547,-0.751181,-1.024635,-2.688951,1.683311,-6.455364
1790543548.4346,-0.005041,0.005725,-0.525937,-0.007190,0.008112,-0.525937,0.442327,-0.240027,-0.961499,2.945262,3.839751,-6.494175
1790543548.4486,0.006504,0.001083,-0.542198,0.002396,0.003192,-0.542198,0.388904,-0.635838,-1.109624,-0.695896,3.207691,-11.617252
1790543548.4625,0.009981,-0.002409,-0.560796,0.007705,-0.000729,-0.560796,0.322126,-0.087045,-1.042847,-0.350944,3.282051,-10.646972
1790543548.4765,0.027188,-0.003829,-0.566446,0.021343,-0.002899,-0.566446,0.205569,-0.905377,-0.876509,-4.375383,4.211551,-10.530539
1790543548.4904,0.014258,-0.003235,-0.577089,0.016384,-0.003134,-0.577089,-0.032403,1.012967,-0.503768,-0.274288,2.798711,-13.557812
1790543548.5044,0.014909,0.008793,-0.569761,0.015351,0.005215,-0.569761,-0.861662,0.234702,-0.224515,-6.330110,2.426911,-13.557812
