t,imu_roll,imu_pitch,imu_yaw,lpf_roll,lpf_pitch,lpf_yaw,gyro_x,gyro_y,gyro_z,acc_x,acc_y,acc_z
1790539237.4242,-0.023948,-0.041734,0.004707,-0.016764,-0.029214,0.004707,-0.013359,-0.006378,0.000900,0.185647,1.162791,-10.336483
1790539237.4399,-0.034683,-0.040273,-0.002926,-0.029307,-0.036955,-0.002926,0.010924,0.005763,0.003329,0.377287,1.199971,-10.025993
1790539237.4537,-0.027068,-0.039802,0.001609,-0.027740,-0.038948,0.001609,0.014566,0.003335,0.003329,0.032335,1.199971,-9.987182
1790539237.4674,-0.027919,-0.038439,0.000683,-0.027865,-0.038591,0.000683,0.002425,-0.003950,0.008185,0.223975,1.237151,-9.948371
1790539237.4815,-0.027747,-0.037175,0.000495,-0.027782,-0.037600,0.000495,-0.040070,-0.053730,0.021541,0.223975,1.274331,-10.258860
1790539237.4957,-0.028733,-0.034025,-0.000962,-0.028448,-0.035098,-0.000962,-0.154200,-0.205498,0.044609,0.415615,1.348691,-10.414105
1790539237.5101,-0.034607,-0.033062,-0.002219,-0.032759,-0.033672,-0.002219,-0.228262,-0.182429,0.068892,0.837223,1.199971,-10.802217
1790539237.5247,-0.042166,-0.030027,-0.005351,-0.039344,-0.031121,-0.005351,-0.227048,-0.097439,0.121100,0.913879,1.199971,-9.482637
1790539237.5387,-0.046050,-0.026315,-0.007535,-0.044038,-0.027757,-0.007535,-0.178483,-0.064657,0.187878,0.683911,1.311511,-9.210958
1790539237.5528,-0.047666,-0.022286,-0.009113,-0.046577,-0.023927,-0.009113,-0.142058,-0.085298,0.277725,0.568927,1.460231,-9.366203
1790539237.5667,-0.048497,-0.020616,-0.004931,-0.047921,-0.021609,-0.004931,-0.106848,-0.148433,0.396711,0.607255,1.385871,-9.754315
1790539237.5806,-0.045544,-0.026537,0.017809,-0.046257,-0.025059,0.017809,-0.019430,-0.178787,0.535123,0.223975,0.716631,-10.452916
1790539237.5945,-0.038522,-0.034892,0.049606,-0.040842,-0.031942,0.049606,0.023065,-0.199427,0.646824,-0.312616,0.307651,-9.443825
1790539237.6084,-0.028249,-0.034986,0.072773,-0.032027,-0.034073,0.072773,0.065560,-0.126579,0.617684,-0.964192,1.274331,-9.210958
1790539237.6224,-0.017314,-0.042280,0.092213,-0.021728,-0.039818,0.092213,0.053419,-0.263777,0.419779,-1.270816,0.307651,-12.509909
1790539237.6363,-0.014841,-0.048165,0.094511,-0.016907,-0.045661,0.094511,0.049776,-0.150861,0.310507,-0.082648,0.382011,-11.694875
1790539237.6502,-0.018536,-0.050633,0.093503,-0.018048,-0.049141,0.093503,0.089843,0.127177,0.331147,0.300631,0.828171,-9.327392
1790539237.6641,-0.017589,-0.049337,0.106557,-0.017726,-0.049278,0.106557,-0.066781,0.118678,0.272868,-0.389272,1.125611,-9.754315
1790539237.6777,-0.016204,-0.041599,0.122817,-0.016661,-0.043903,0.122817,-0.326608,0.152674,0.207304,-0.542584,1.646131,-9.327392
1790539237.6913,-0.010902,-0.031157,0.141267,-0.012630,-0.034981,0.141267,-0.490517,-0.031875,0.170880,-0.925864,1.943571,-9.754315
1790539237.7052,-0.009770,-0.023689,0.142568,-0.010628,-0.027076,0.142568,-0.440737,-0.243136,0.142955,0.415615,1.646131,-10.142427
1790539237.7191,-0.009831,-0.016354,0.140058,-0.010070,-0.019571,0.140058,-0.399456,-0.280775,0.098032,0.798895,1.794851,-9.909560
1790539237.7330,-0.008684,-0.008107,0.136947,-0.009099,-0.011546,0.136947,-0.352105,-0.405831,0.042181,0.875551,2.017931,-8.900469
1790539237.7469,-0.006149,0.001921,0.132361,-0.007034,-0.002119,0.132361,-0.437095,-0.506605,-0.058593,0.952207,2.315371,-9.055714
1790539237.7609,-0.007378,0.013284,0.123542,-0.007275,0.008663,0.123542,-0.347248,-0.033090,-0.189720,0.492271,3.170511,-9.366203
1790539237.7752,-0.011934,0.004783,0.114217,-0.010536,0.005947,0.114217,0.699342,0.502347,-0.324490,-0.619240,3.096151,-15.304315
1790539237.7891,-0.004233,0.021492,0.018407,-0.006124,0.016828,0.018407,0.455300,0.555769,-0.612241,-2.765607,6.107730,-5.096972
1790539237.8031,0.007596,0.022856,-0.006658,0.003480,0.021048,-0.006658,0.491724,0.293515,-0.836858,-2.305671,2.352551,-5.174595
1790539237.8170,0.014581,0.015078,-0.013188,0.011251,0.016869,-0.013188,0.630136,-0.341482,-0.838072,-0.312616,1.943571,-9.405014
1790539237.8309,0.021082,0.014633,-0.005611,0.018133,0.015304,-0.005611,0.263465,-0.323270,-1.106397,-0.350944,3.542311,-12.975644
1790539237.8449,0.006639,0.011393,0.021314,0.010087,0.012566,0.021314,0.095914,0.750032,-1.331014,2.676966,1.720491,-14.955014
1790539237.8588,0.000348,0.013508,0.054205,0.003269,0.013225,0.054205,-0.118990,0.134462,-1.333442,1.833751,1.720491,-9.133336
1790539237.8727,-0.001706,0.006555,0.018488,-0.000213,0.008556,0.018488,0.193045,0.435569,-1.290947,-0.235960,0.344831,-9.133336
1790539237.8866,-0.006486,0.004066,-0.005811,-0.004605,0.005413,-0.005811,0.237968,0.644402,-1.511921,-0.197632,1.683311,-8.667602
1790539237.9002,-0.006435,0.009692,-0.030171,-0.005886,0.008409,-0.030171,-0.154200,0.373648,-1.541060,-0.504256,2.575631,-8.745224
1790539237.9138,-0.012659,0.012885,-0.040160,-0.010627,0.011542,-0.040160,-0.273186,0.566697,-1.383222,0.530599,1.311511,-8.628791
1790539237.9274,-0.014640,0.011897,-0.055119,-0.013436,0.011791,-0.055119,-0.087422,0.252234,-1.033549,0.377287,0.828171,-9.055714
1790539237.9414,-0.014717,0.012775,-0.066129,-0.014333,0.012480,-0.066129,-0.165127,0.089539,-0.737298,0.262303,1.088431,-9.249770
1790539237.9555,-0.013609,0.011324,-0.077274,-0.013826,0.011671,-0.077274,-0.012145,0.002120,-0.564890,0.147319,1.088431,-9.987182
1790539237.9696,-0.014185,0.020160,-0.077223,-0.014077,0.017613,-0.077223,-0.279256,0.134462,-0.611027,0.070663,3.170511,-8.434735
1790539237.9835,-0.011226,0.018679,-0.079668,-0.012081,0.018359,-0.079668,-0.074066,-0.263777,-0.443476,1.220503,1.385871,-17.671798
1790539237.9974,-0.008366,0.009159,-0.054510,-0.009481,0.011919,-0.054510,0.741837,-0.572169,-0.047665,2.715294,2.761531,-13.829490
1790539238.0115,-0.018233,0.005401,-0.048916,-0.015607,0.007357,-0.048916,0.900890,0.056757,0.605543,2.983590,4.620531,-7.464455
1790539238.0262,-0.024289,-0.000950,-0.044005,-0.021685,0.001542,-0.044005,0.467441,0.333581,0.809519,-0.082648,1.906391,-10.258860
1790539238.0409,-0.033237,-0.007638,-0.002982,-0.029771,-0.004884,-0.002982,0.388522,0.180599,1.259966,1.527127,1.237151,-9.599070
1790539238.0555,-0.027477,-0.017428,-0.038885,-0.028165,-0.013665,-0.038885,0.477154,-0.150861,1.408091,-1.577440,0.233291,-6.649420
1790539238.0696,-0.017538,-0.020646,-0.070072,-0.020726,-0.018551,-0.070072,0.061918,-0.387619,1.358311,-2.573967,0.456371,-8.861658
1790539238.0837,-0.018232,-0.026252,-0.067299,-0.018980,-0.023942,-0.067299,0.027922,0.049472,1.314602,-0.964192,-0.919289,-9.909560
1790539238.0979,-0.027777,-0.035836,-0.051785,-0.025138,-0.032268,-0.051785,0.395807,0.496276,1.228398,0.415615,-0.584669,-12.121798
1790539238.1120,-0.027850,-0.044751,-0.043872,-0.027037,-0.041006,-0.043872,0.501437,0.040973,1.290319,-1.155832,0.530731,-11.500819
1790539238.1260,-0.040961,-0.054486,-0.030834,-0.036783,-0.050442,-0.030834,0.552431,0.784028,1.048705,0.683911,0.270471,-10.996273
1790539238.1396,-0.043109,-0.059507,-0.027149,-0.041211,-0.056787,-0.027149,0.309603,0.565482,0.675963,-2.152360,0.567911,-7.503266
1790539238.1532,-0.046793,-0.066512,-0.030544,-0.045118,-0.063595,-0.030544,0.383665,0.408858,0.470773,-0.695896,0.158931,-8.667602
1790539238.1672,-0.049184,-0.073003,-0.031116,-0.047964,-0.070180,-0.031116,0.401877,0.320226,0.377284,-0.772552,0.493551,-9.133336
1790539238.1813,-0.041056,-0.070865,-0.022643,-0.043129,-0.070660,-0.022643,-0.236761,-0.757932,0.390640,1.987063,0.530731,-14.489280
1790539238.1953,-0.038586,-0.064258,-0.004860,-0.039949,-0.066178,-0.004860,-0.618002,-0.539387,0.292294,3.673494,-0.138509,-13.286133
1790539238.2093,-0.030298,-0.055989,0.012503,-0.033193,-0.059046,0.012503,-0.847475,-0.980120,0.274082,3.098574,-0.956469,-10.530539
1790539238.2233,-0.024569,-0.045566,0.046050,-0.027156,-0.049610,0.046050,-0.990744,-1.063896,0.249799,3.750150,-0.621849,-6.882287
1790539238.2374,-0.018095,-0.030851,0.052512,-0.020813,-0.036479,0.052512,-1.239643,-0.918199,0.072535,1.948735,-0.138509,-5.329839
1790539238.2512,-0.008741,-0.017238,0.057304,-0.012363,-0.023010,0.057304,-1.165580,-1.015331,0.006971,1.642111,0.010211,-6.416553
1790539238.2653,-0.004432,-0.007074,0.055742,-0.006811,-0.011855,0.055742,-0.797695,-0.454397,-0.175150,1.833751,1.274331,-14.101168
1790539238.2805,-0.013836,-0.016625,0.053581,-0.011728,-0.015194,0.053581,0.473512,0.555769,-0.507825,2.523654,0.233291,-19.379490
1790539238.2958,-0.003332,-0.014182,0.026501,-0.005851,-0.014486,0.026501,0.058275,-0.268633,-1.288519,-1.922392,2.873071,-8.318301
1790539238.3101,-0.005975,-0.020972,0.007907,-0.005938,-0.019026,0.007907,0.440730,0.136890,-1.102755,1.258831,0.828171,-7.503266
1790539238.3250,-0.001306,-0.024390,-0.008470,-0.002696,-0.022781,-0.008470,0.331457,-0.135078,-0.732442,-0.580912,1.646131,-7.270399
1790539238.3434,0.004140,-0.046637,-0.015380,0.002089,-0.039480,-0.015380,1.149789,-0.103510,-0.805290,-1.232488,0.605091,-10.763406
1790539238.3572,0.018143,-0.052513,-0.047738,0.013327,-0.048603,-0.047738,0.819542,-0.733650,-1.026264,-1.424128,3.691031,-7.619700
1790539238.3709,0.026063,-0.057008,-0.066362,0.022242,-0.054486,-0.066362,0.445587,-0.572169,-1.035977,0.492271,2.389731,-10.685784
1790539238.3847,0.028214,-0.064526,-0.077688,0.026422,-0.061514,-0.077688,0.607067,-0.251635,-0.850213,1.143847,1.720491,-10.064805
1790539238.3987,0.038595,-0.072110,-0.097500,0.034943,-0.068931,-0.097500,0.676274,-0.623163,-0.749440,-1.079176,2.649991,-11.617252
1790539238.4129,0.014998,-0.076033,-0.094380,0.020981,-0.073902,-0.094380,0.208829,1.487016,-0.653522,2.600310,0.790991,-14.334035
1790539238.4271,0.008212,-0.068142,-0.104002,0.012043,-0.069870,-0.104002,-0.619216,0.769458,-0.608599,-3.838791,0.679451,-16.313406
1790539238.4410,0.009836,-0.060516,-0.086809,0.010498,-0.063322,-0.086809,-0.876614,0.401573,-0.498112,-4.030431,-1.811608,-8.201867
1790539238.4551,0.005327,-0.045054,-0.092608,0.006878,-0.050534,-0.092608,-1.351344,0.928511,-0.619526,-3.263871,-0.807749,-5.640329
1790539238.4689,-0.007738,-0.029478,-0.103627,-0.003353,-0.035795,-0.103627,-1.505540,1.096063,-0.448332,-0.427600,-1.142369,-5.135783
1790539238.4827,-0.019809,-0.011597,-0.103140,-0.014872,-0.018856,-0.103140,-1.388982,1.239331,-0.449546,-1.845736,0.344831,-7.037532
1790539238.4968,-0.038209,-0.000591,-0.109603,-0.031208,-0.006071,-0.109603,-0.885113,1.597503,-0.471401,-1.539112,0.456371,-9.948371
1790539238.5108,-0.025778,-0.004284,-0.104700,-0.027407,-0.004820,-0.104700,0.239182,-0.669300,-0.254070,-2.995575,2.315371,-18.642077
1790539238.5254,-0.026850,-0.003082,-0.095254,-0.027017,-0.003603,-0.095254,0.092271,-0.212783,0.718458,2.178703,3.802571,-10.569350
1790539238.5401,-0.027989,-0.013121,-0.090640,-0.027697,-0.010266,-0.090640,0.617995,-0.279560,1.071774,1.872079,0.865351,-8.628791
1790539238.5541,-0.028488,-0.035225,-0.092023,-0.028251,-0.027737,-0.092023,1.486106,-0.215211,0.575189,0.722239,0.196111,-3.855014
1790539238.5682,-0.045246,-0.045468,-0.098865,-0.040147,-0.040149,-0.098865,1.000449,0.600693,0.667464,4.095102,2.798711,-5.795574
1790539238.5830,-0.063105,-0.060976,-0.091210,-0.056218,-0.054728,-0.091210,1.078155,1.079065,0.784022,1.373815,2.017931,-12.471098
1790539238.5975,-0.074461,-0.072735,-0.080045,-0.068988,-0.067333,-0.080045,0.870536,0.717250,0.945503,0.568927,2.464091,-11.927742
1790539238.6113,-0.076559,-0.075451,-0.067310,-0.074288,-0.073015,-0.067310,0.333885,0.054329,1.077844,0.875551,3.282051,-10.996273
1790539238.6253,-0.066301,-0.075910,-0.051492,-0.068697,-0.075042,-0.051492,-0.065567,-0.797999,1.017137,0.415615,0.567911,-10.957462
1790539238.6393,-0.061579,-0.076545,-0.030301,-0.063714,-0.076094,-0.030301,-0.194266,-0.591595,0.878725,2.676966,-1.291089,-11.073895
1790539238.6533,-0.054456,-0.079657,-0.005418,-0.057233,-0.078588,-0.005418,-0.111705,-0.827139,0.844729,3.635166,-2.703928,-11.267951
1790539238.6671,-0.041124,-0.067760,-0.002505,-0.045957,-0.071008,-0.002505,-0.927608,-1.400214,0.841087,4.133430,0.456371,-9.521448
1790539238.6811,-0.037720,-0.053547,0.016439,-0.040191,-0.058785,0.016439,-1.226287,-0.679013,0.892081,3.750150,-0.844929,-8.900469
1790539238.6950,-0.027180,-0.037758,0.029467,-0.031083,-0.044066,0.029467,-1.297922,-1.144030,0.731814,2.638638,-0.324409,-7.503266
1790539238.7090,-0.017236,-0.021008,0.022607,-0.021390,-0.027926,0.022607,-1.176507,-1.023830,0.558192,1.335487,0.828171,-5.213406
1790539238.7229,-0.010251,-0.005140,0.025906,-0.013592,-0.011976,0.025906,-1.182578,-0.800427,0.423422,1.412143,0.567911,-5.562707
1790539238.7369,-0.012425,0.004256,0.022672,-0.012776,-0.000614,0.022672,-0.633786,0.115036,0.193949,0.147319,2.055111,-10.297672
1790539238.7509,-0.020204,-0.006082,0.032555,-0.017976,-0.004441,0.032555,0.730910,0.894515,-0.539393,-4.107087,2.501271,-16.274595
1790539238.7648,-0.011005,-0.015775,0.017814,-0.013096,-0.012375,0.017814,0.798902,-0.233423,-1.316444,-3.110559,2.947431,-11.500819
1790539238.7789,-0.021088,-0.017061,-0.055427,-0.018690,-0.015655,-0.055427,0.594926,0.428284,-0.699660,2.906934,3.914111,-4.514804
1790539238.7934,-0.009317,-0.030801,-0.028151,-0.012129,-0.026257,-0.028151,0.880249,-0.420401,-0.553963,-3.340527,0.605091,-8.512357
1790539238.8074,0.007110,-0.053483,-0.019815,0.001339,-0.045316,-0.019815,1.548028,-0.829567,-0.805290,-3.685479,0.419191,-11.733686
1790539238.8211,0.030737,-0.069695,-0.032018,0.021917,-0.062381,-0.032018,1.363478,-1.214450,-1.025050,-4.222071,2.501271,-6.959909
1790539238.8347,0.036504,-0.075403,-0.056292,0.032128,-0.071496,-0.056292,0.803758,-0.602522,-0.869640,1.718767,3.765391,-5.873196
1790539238.8486,0.044195,-0.084342,-0.077247,0.040575,-0.080489,-0.077247,0.710269,-0.462896,-0.946131,-0.619240,1.757671,-8.784035
1790539238.8624,0.028007,-0.090295,-0.086339,0.031777,-0.087353,-0.086339,0.324172,1.193194,-1.097898,0.530599,0.196111,-17.943476
1790539238.8763,0.011259,-0.080541,-0.106134,0.017415,-0.082584,-0.106134,-0.733345,1.473661,-1.055403,-3.685479,1.125611,-15.187882
1790539238.8903,0.013638,-0.071801,-0.096559,0.014771,-0.075036,-0.096559,-0.879043,0.298371,-1.034763,-6.560078,-2.666748,-12.238231
1790539238.9041,0.007168,-0.061754,-0.096627,0.009449,-0.065739,-0.096627,-1.117014,0.916369,-1.006838,-3.148887,-2.666748,-6.300119
1790539238.9180,-0.007291,-0.042983,-0.107329,-0.002269,-0.049810,-0.107329,-1.520110,1.318251,-0.755510,-1.155832,-0.398769,-5.135783
1790539238.9319,-0.018279,-0.023882,-0.118650,-0.013476,-0.031660,-0.118650,-1.518895,1.273327,-0.846571,-2.957247,-0.435949,-6.300119
1790539238.9458,-0.029861,-0.003944,-0.121678,-0.024946,-0.012259,-0.121678,-1.276067,1.245402,-0.861141,-1.999048,1.943571,-5.873196
1790539238.9597,-0.033328,0.014783,-0.124145,-0.030813,0.006670,-0.124145,-1.193505,0.423428,-0.682662,-0.350944,2.687171,-7.736133
1790539238.9737,-0.020176,0.002326,-0.142680,-0.023367,0.003629,-0.142680,0.672631,-0.963122,-0.132655,0.913879,-2.071868,-21.281238
1790539238.9876,-0.031304,-0.004604,-0.157947,-0.028923,-0.002134,-0.157947,0.449229,0.275302,0.592187,7.046356,1.088431,-10.996273
1790539239.0016,-0.025866,-0.014333,-0.143171,-0.026783,-0.010673,-0.143171,0.700556,-0.443470,0.782808,-0.619240,1.720491,-9.948371
1790539239.0155,-0.020202,-0.026230,-0.126073,-0.022177,-0.021563,-0.126073,0.838969,-0.131435,0.266797,-2.497311,0.716631,-6.300119
1790539239.0296,-0.034841,-0.039795,-0.126073,-0.031042,-0.034325,-0.126073,0.965239,0.838664,0.439206,2.408670,1.423051,-10.918651
1790539239.0443,-0.050092,-0.060178,-0.120468,-0.044377,-0.052422,-0.120468,1.388975,0.901800,0.575189,1.833751,1.646131,-12.859210
1790539239.0581,-0.067546,-0.071729,-0.109018,-0.060595,-0.065937,-0.109018,0.968882,1.091206,0.719672,1.910407,2.687171,-9.094525
1790539239.0717,-0.076905,-0.077472,-0.090968,-0.072012,-0.074012,-0.090968,0.622851,0.699038,0.845943,-0.235960,3.058971,-7.503266
1790539239.0858,-0.065094,-0.083008,-0.077310,-0.067169,-0.080309,-0.077310,0.399449,-0.845351,0.811947,-0.197632,1.720491,-11.229140
1790539239.0998,-0.058277,-0.079133,-0.063895,-0.060944,-0.079486,-0.063895,-0.343606,-0.630448,0.900580,1.795423,0.753811,-12.820399
1790539239.1136,-0.051446,-0.076263,-0.053764,-0.054295,-0.077230,-0.053764,-0.411598,-0.757932,1.006210,3.366870,-1.476988,-12.044175
1790539239.1275,-0.044836,-0.069437,-0.041896,-0.047674,-0.071775,-0.041896,-0.644713,-0.925484,1.104555,5.168285,-0.659029,-9.560259
1790539239.1416,-0.031935,-0.056880,-0.026982,-0.036657,-0.061348,-0.026982,-1.005313,-1.216878,1.004996,2.830278,-0.101329,-9.676693
1790539239.1555,-0.025967,-0.046196,-0.011311,-0.029174,-0.050742,-0.011311,-1.007742,-0.748219,0.801020,2.830278,-1.625708,-8.667602
1790539239.1694,-0.018472,-0.029972,-0.008419,-0.021682,-0.036203,-0.008419,-1.229930,-0.830781,0.536337,2.638638,0.419191,-8.628791
1790539239.1834,-0.005486,-0.010243,-0.009799,-0.010345,-0.018031,-0.009799,-1.415693,-1.167098,0.260727,2.102047,1.162791,-8.357112
1790539239.1974,0.004305,0.009905,-0.012268,-0.000090,0.001524,-0.012268,-1.460617,-1.040828,0.122314,2.830278,0.865351,-6.688231
1790539239.2114,-0.008000,0.009504,-0.013371,-0.005627,0.007110,-0.013371,-0.054640,0.801026,-0.285637,2.293686,0.828171,-12.626343
1790539239.2254,-0.022907,-0.008784,-0.023728,-0.017723,-0.004016,-0.023728,1.305199,1.414168,-1.168319,-3.263871,2.575631,-17.904665
1790539239.2395,-0.012142,-0.021411,-0.057297,-0.013816,-0.016193,-0.057297,1.227494,-0.317199,-1.108826,-4.796990,6.405170,-9.405014
1790539239.2535,-0.027285,-0.026608,-0.059372,-0.023245,-0.023483,-0.059372,0.539075,0.668685,-0.461688,4.401726,2.129471,-4.708860
1790539239.2675,-0.015761,-0.043017,-0.060604,-0.018006,-0.037157,-0.060604,1.199569,-0.433757,-0.563676,-5.448566,1.646131,-11.539630
1790539239.2811,-0.000831,-0.063029,-0.068516,-0.005984,-0.055268,-0.068516,1.438755,-0.980120,-0.876924,-0.504256,0.716631,-11.772497
1790539239.2951,0.014292,-0.077578,-0.089356,0.008209,-0.070885,-0.089356,1.126720,-0.929126,-0.930347,-0.887536,1.608951,-7.425644
1790539239.3090,0.024302,-0.085820,-0.118839,0.019474,-0.081340,-0.118839,0.857181,-0.720294,-0.916991,0.415615,2.910251,-5.989630
1790539239.3230,0.002599,-0.092155,-0.105401,0.007661,-0.088911,-0.105401,0.261037,1.473661,-0.848999,3.098574,-2.518028,-16.934385
1790539239.3369,-0.009339,-0.082101,-0.109532,-0.004239,-0.084144,-0.109532,-0.807408,1.045069,-0.640167,-3.800463,-0.584669,-20.660259
1790539239.3508,-0.003488,-0.067881,-0.106451,-0.003713,-0.072760,-0.106451,-1.191077,-0.011235,-0.564890,-6.100142,-1.885968,-10.685784
1790539239.3648,-0.011281,-0.051754,-0.107382,-0.009011,-0.058056,-0.107382,-1.405980,0.837450,-0.674163,-2.420655,-2.071868,-8.240679
1790539239.3787,-0.026597,-0.022621,-0.160316,-0.021321,-0.033252,-0.160316,-1.595386,1.134915,-0.645023,0.185647,1.683311,-1.526343
1790539239.3927,-0.035524,-0.005379,-0.172498,-0.031263,-0.013741,-0.172498,-1.219002,0.938224,-0.710587,-1.194160,0.753811,-5.058161
1790539239.4067,-0.046932,-0.001256,-0.183235,-0.042231,-0.005002,-0.183235,-0.313252,1.054782,-0.624383,-1.232488,0.828171,-8.706413
1790539239.4206,-0.031027,-0.001067,-0.185979,-0.034388,-0.002248,-0.185979,-0.075280,-0.918199,-0.441047,-3.302199,0.902531,-15.653616
1790539239.4346,-0.035192,-0.001480,-0.174467,-0.034951,-0.001710,-0.174467,0.015780,0.031260,0.288652,4.899989,2.055111,-13.868301
1790539239.4486,-0.033611,-0.010305,-0.162378,-0.034013,-0.007726,-0.162378,0.506294,-0.167859,0.689319,-0.542584,0.010211,-11.578441
1790539239.4625,-0.037235,-0.020472,-0.145509,-0.036268,-0.016648,-0.145509,0.768548,-0.095011,1.091200,3.481854,2.464091,-10.646972
1790539239.4764,-0.034633,-0.034713,-0.133896,-0.035124,-0.029294,-0.133896,0.950670,-0.142362,0.700246,-1.462456,0.493551,-8.822846
1790539239.4904,-0.056237,-0.041738,-0.123447,-0.049903,-0.038005,-0.123447,0.577928,1.238117,0.853228,3.903462,2.724351,-10.103616
1790539239.5043,-0.068974,-0.052927,-0.112878,-0.063253,-0.048450,-0.112878,0.823185,0.748818,0.967357,1.565455,2.055111,-10.181238
1790539239.5179,-0.082100,-0.059795,-0.106673,-0.076446,-0.056391,-0.106673,0.722411,0.757317,1.042634,1.680439,3.579491,-6.610609
1790539239.5317,-0.085493,-0.061325,-0.104879,-0.082779,-0.059845,-0.104879,0.205186,0.269232,0.916363,-0.619240,2.575631,-7.736133
1790539239.5464,-0.073059,-0.063026,-0.084964,-0.075975,-0.062072,-0.084964,0.007281,-0.978906,1.120339,1.105519,0.753811,-12.238231
1790539239.5605,-0.065380,-0.059094,-0.062532,-0.068558,-0.059988,-0.062532,-0.420097,-0.688726,1.126410,1.373815,0.010211,-13.441378
1790539239.5745,-0.059838,-0.056537,-0.030420,-0.062454,-0.057572,-0.030420,-0.371531,-0.655945,1.182261,2.715294,-0.770569,-10.957462
1790539239.5884,-0.050638,-0.051968,-0.002160,-0.054183,-0.053649,-0.002160,-0.473519,-0.967979,1.063275,2.791950,-0.212869,-8.551168
1790539239.6023,-0.040768,-0.042402,0.021928,-0.044792,-0.045776,0.021928,-0.818335,-0.981335,0.997711,2.178703,-0.101329,-8.395923
1790539239.6162,-0.033394,-0.030098,0.042527,-0.036813,-0.034801,0.042527,-1.017455,-0.778573,0.792521,2.332014,-0.212869,-9.870749
1790539239.6301,-0.024598,-0.015972,0.058614,-0.028263,-0.021621,0.058614,-1.138869,-0.795571,0.456204,1.450471,-0.026969,-9.909560
1790539239.6439,-0.018392,-0.009083,0.062349,-0.021354,-0.012844,0.062349,-0.528155,-0.492035,0.023969,0.645583,1.162791,-10.608161
1790539239.6579,-0.016799,-0.020142,0.060162,-0.018166,-0.017953,0.060162,0.716340,0.101680,-0.657165,-2.497311,0.419191,-15.071448
1790539239.6718,-0.010113,-0.034661,0.013695,-0.012529,-0.029649,0.013695,1.178928,-0.017306,-1.180460,-2.727279,1.608951,-5.213406
1790539239.6856,-0.012646,-0.037642,-0.061740,-0.012611,-0.035244,-0.061740,0.676274,-0.086512,-0.978912,2.332014,2.724351,-1.953266
1790539239.6994,-0.011361,-0.043415,-0.067213,-0.011736,-0.040964,-0.067213,0.557288,-0.184857,-0.670520,1.565455,1.980751,-5.950818
1790539239.7133,0.001646,-0.060751,-0.080456,-0.002369,-0.054815,-0.080456,1.221423,-0.704510,-1.016551,-2.765607,0.865351,-13.945924
1790539239.7272,0.019370,-0.079240,-0.110559,0.012849,-0.071913,-0.110559,1.458181,-1.014116,-1.264236,-2.190688,2.612811,-8.512357
1790539239.7409,0.029684,-0.084781,-0.098891,0.024633,-0.080921,-0.098891,0.787975,-0.743363,-1.202315,0.377287,4.471811,-4.825294
1790539239.7545,0.028551,-0.097181,-0.103691,0.027375,-0.092303,-0.103691,0.830470,0.095609,-1.042048,0.453943,0.121751,-11.966553
1790539239.7685,0.011250,-0.099821,-0.113259,0.016087,-0.097565,-0.113259,0.064346,1.342533,-0.993482,-1.347472,-1.179549,-15.265504
1790539239.7824,0.013116,-0.098456,-0.130701,0.014007,-0.098188,-0.130701,-0.218549,0.150246,-0.778579,-5.486894,-1.551348,-14.023546
1790539239.7969,0.010746,-0.091268,-0.144755,0.011724,-0.093344,-0.144755,-0.636214,0.423428,-0.810147,-3.800463,-1.439808,-10.763406
1790539239.8110,0.001231,-0.076048,-0.156996,0.004379,-0.081237,-0.156996,-1.231144,0.890873,-0.889066,-1.232488,-0.696209,-5.213406
1790539239.8248,-0.002447,-0.062969,-0.138406,-0.000399,-0.068450,-0.138406,-1.317348,0.734248,-0.841714,-1.730752,-1.439808,-1.953266
1790539239.8387,-0.003031,-0.044223,-0.164238,-0.002241,-0.051491,-0.164238,-1.408408,0.481707,-0.817431,-1.424128,0.047391,-2.341378
1790539239.8526,-0.006805,-0.025571,-0.173588,-0.005436,-0.033347,-0.173588,-1.375627,0.314155,-0.603742,0.338959,0.605091,-6.921098
1790539239.8665,-0.026447,-0.009940,-0.187800,-0.020144,-0.016962,-0.187800,-1.310063,1.450592,-0.515110,1.642111,-2.257768,-16.895574
1790539239.8806,-0.032994,0.008276,-0.195809,-0.029139,0.000704,-0.195809,-1.268782,0.708751,-0.608599,-2.190688,2.129471,-11.539630
1790539239.8945,-0.014459,0.005101,-0.200517,-0.018863,0.003782,-0.200517,-0.012145,-1.221735,-0.082876,-2.842263,-3.633428,-17.943476
1790539239.9084,-0.020311,-0.001001,-0.197496,-0.019876,0.000434,-0.197496,0.441944,0.133248,0.348145,3.251886,1.385871,-8.357112
1790539239.9224,-0.017221,-0.006386,-0.186057,-0.018017,-0.004340,-0.186057,0.480797,-0.172716,0.303222,-1.347472,2.947431,-9.482637
1790539239.9364,-0.019619,-0.017833,-0.182506,-0.019139,-0.013785,-0.182506,0.855967,0.162387,0.155096,-0.044320,1.423051,-7.076343
1790539239.9502,-0.033230,-0.029836,-0.178348,-0.029003,-0.025021,-0.178348,0.893605,0.787670,0.391854,2.676966,1.683311,-9.987182
1790539239.9641,-0.050577,-0.041974,-0.171246,-0.044105,-0.036888,-0.171246,0.914245,1.137343,0.573975,1.220503,2.092291,-10.336483
1790539239.9777,-0.061589,-0.049434,-0.159726,-0.056344,-0.045670,-0.159726,0.673845,0.787670,0.665036,-0.159304,2.464091,-7.037532
1790539239.9914,-0.066723,-0.055281,-0.148581,-0.063609,-0.052398,-0.148581,0.455300,0.333581,0.771881,0.032335,1.646131,-8.007811
1790539240.0054,-0.071202,-0.060745,-0.137108,-0.068924,-0.058241,-0.137108,0.369096,0.236450,0.792521,0.683911,1.274331,-9.405014
1790539240.0194,-0.055862,-0.064183,-0.120269,-0.059780,-0.062400,-0.120269,0.263465,-1.212022,0.905436,1.412143,3.133331,-14.838581
1790539240.0341,-0.046494,-0.058030,-0.103540,-0.050480,-0.059341,-0.103540,-0.466234,-0.869634,0.781594,3.635166,1.014071,-12.509909
1790539240.0485,-0.038632,-0.053451,-0.089292,-0.042186,-0.055218,-0.089292,-0.506301,-0.827139,0.743955,4.440053,-2.034688,-12.082986
1790539240.0627,-0.023607,-0.041270,-0.076345,-0.029180,-0.045455,-0.076345,-0.989529,-1.411141,0.722101,3.251886,-0.510309,-7.115154
1790539240.0767,-0.016466,-0.025614,-0.067523,-0.020280,-0.031566,-0.067523,-1.250570,-0.867205,0.530266,3.060246,-0.547489,-6.183686
1790539240.0908,-0.010197,-0.007363,-0.060765,-0.013222,-0.014624,-0.060765,-1.369556,-0.748219,0.471987,2.370342,0.233291,-6.338930
1790539240.1047,-0.002689,0.008266,-0.057319,-0.005849,0.001399,-0.057319,-1.132798,-0.717866,0.291080,1.833751,1.460231,-9.831937
1790539240.1186,-0.011405,0.004610,-0.053575,-0.009738,0.003646,-0.053575,0.168762,0.694181,-0.267425,-0.235960,0.456371,-17.400119
1790539240.1326,-0.007751,-0.007642,-0.067953,-0.008347,-0.004255,-0.067953,0.882678,0.135676,-1.156177,-5.448566,2.501271,-15.459560
1790539240.1465,-0.009303,-0.010657,-0.159602,-0.009016,-0.008737,-0.159602,0.756407,0.121106,-1.195030,0.990535,3.133331,-1.720399
1790539240.1604,-0.018900,-0.012210,-0.126098,-0.015935,-0.011168,-0.126098,0.335100,0.447711,-0.492041,2.600310,2.649991,-3.971448
1790539240.1744,-0.011306,-0.023107,-0.140662,-0.012695,-0.019525,-0.140662,0.784332,-0.252849,-0.643809,-3.225543,1.348691,-10.025993
1790539240.1883,0.005995,-0.040106,-0.162854,0.000388,-0.033932,-0.162854,1.278488,-1.001975,-1.037191,-1.999048,2.166651,-10.181238
1790539240.2019,0.021518,-0.048088,-0.184714,0.015179,-0.043841,-0.184714,0.892391,-1.012902,-1.046904,-0.350944,3.988471,-5.717951
1790539240.2155,0.025539,-0.052191,-0.176520,0.022431,-0.049686,-0.176520,0.523292,-0.402189,-0.921848,1.795423,3.393591,-5.873196
1790539240.2295,0.033821,-0.062897,-0.187647,0.030404,-0.058934,-0.187647,0.756407,-0.532102,-0.933989,0.032335,1.311511,-9.870749
1790539240.2434,0.022839,-0.074656,-0.175815,0.025108,-0.069939,-0.175815,0.707841,0.728177,-0.981341,2.485326,-0.584669,-13.674245
1790539240.2572,0.006757,-0.065985,-0.191794,0.012263,-0.067171,-0.191794,-0.618002,1.244188,-0.810147,-0.235960,2.352551,-16.856763
1790539240.2711,0.003694,-0.057929,-0.211408,0.006265,-0.060701,-0.211408,-0.747915,0.527844,-0.859926,-4.068759,-1.848788,-10.802217
1790539240.2851,0.000388,-0.047301,-0.226313,0.002151,-0.051321,-0.226313,-0.938535,0.541200,-0.744583,-2.458983,-1.179549,-6.455364
1790539240.2994,-0.010307,-0.030574,-0.240609,-0.006570,-0.036798,-0.240609,-1.348916,1.074208,-0.672949,-2.343999,-1.030829,-5.795574
1790539240.3134,-0.019019,-0.014452,-0.255113,-0.015284,-0.021156,-0.255113,-1.277281,0.989218,-0.516324,-4.682006,-0.844929,-9.599070
1790539240.3275,-0.026651,-0.001082,-0.268670,-0.023241,-0.007104,-0.268670,-1.019883,0.883588,-0.536965,-3.532167,0.196111,-8.784035
1790539240.3414,-0.027582,0.008045,-0.276528,-0.026280,0.003500,-0.276528,-0.728489,0.257090,-0.278352,-2.573967,0.493551,-12.548721
1790539240.3558,-0.021543,0.003729,-0.269719,-0.022964,0.003661,-0.269719,0.196687,-0.536959,0.356644,1.373815,0.084571,-14.450469
1790539240.3715,-0.024539,-0.007832,-0.245810,-0.024066,-0.004384,-0.245810,0.665346,-0.142362,0.935790,4.363398,0.493551,-12.121798
1790539240.3861,-0.021291,-0.021570,-0.234260,-0.022124,-0.016414,-0.234260,1.005306,-0.234637,0.768238,-1.079176,1.832031,-6.921098
1790539240.4007,-0.030669,-0.031064,-0.222329,-0.028106,-0.026669,-0.222329,0.695700,0.453781,0.556977,1.373815,1.385871,-6.183686
1790539240.4160,-0.041704,-0.045432,-0.214731,-0.037625,-0.039803,-0.214731,0.930029,0.622547,0.474416,1.527127,1.497411,-13.208511
1790539240.4297,-0.058919,-0.059158,-0.203595,-0.052531,-0.053351,-0.203595,1.055086,1.076636,0.706317,2.102047,2.166651,-9.405014
1790539240.4432,-0.072246,-0.068043,-0.194981,-0.066331,-0.063635,-0.194981,0.804973,0.888444,0.828945,0.875551,3.244871,-8.124245
1790539240.4569,-0.077874,-0.079029,-0.183329,-0.074411,-0.074411,-0.183329,0.858395,0.297157,0.839872,1.373815,2.464091,-9.676693
1790539240.4710,-0.071265,-0.089427,-0.167881,-0.072209,-0.084922,-0.167881,0.583999,-0.533316,0.903008,0.645583,-0.993649,-12.432287
1790539240.4850,-0.062979,-0.088715,-0.156011,-0.065748,-0.087577,-0.156011,-0.143272,-0.632876,0.758525,0.530599,-0.026969,-14.217602
1790539240.4991,-0.051525,-0.084899,-0.128637,-0.055792,-0.085702,-0.128637,-0.457735,-1.099106,0.835016,4.899989,-1.960328,-11.617252
1790539240.5130,-0.043059,-0.072957,-0.107801,-0.046879,-0.076781,-0.107801,-1.023525,-0.950981,0.853228,5.014973,-1.365448,-9.831937
1790539240.5268,-0.032043,-0.058627,-0.091080,-0.036494,-0.064073,-0.091080,-1.219002,-1.116104,0.707531,4.363398,-1.700068,-9.560259
1790539240.5410,-0.028726,-0.042990,-0.085039,-0.031056,-0.049315,-0.085039,-1.312491,-0.607379,0.536337,3.405198,-1.439808,-5.562707
1790539240.5554,-0.017504,-0.026828,-0.073871,-0.021570,-0.033574,-0.073871,-1.208075,-0.986191,0.424636,1.910407,-0.064149,-7.192776
1790539240.5695,-0.006741,-0.010126,-0.073522,-0.011189,-0.017160,-0.073522,-1.209289,-1.006832,0.359072,2.370342,0.790991,-7.852567
1790539240.5835,-0.003429,0.008100,-0.084330,-0.005757,0.000522,-0.084330,-1.248142,-0.420401,0.161167,2.715294,2.612811,-10.996273
1790539240.5975,-0.026746,0.002560,-0.069686,-0.020450,0.001948,-0.069686,0.214900,1.711633,-0.477472,2.676966,-2.146228,-20.660259
1790539240.6114,-0.023070,-0.000684,-0.084198,-0.022284,0.000106,-0.084198,0.242825,0.127177,-1.301874,-2.650623,1.311511,-9.288581
1790539240.6254,-0.017633,0.000443,-0.238017,-0.019028,0.000342,-0.238017,0.552431,-0.158146,-1.046904,-0.465928,5.066691,-2.496623
1790539240.6394,-0.022879,-0.008098,-0.234013,-0.021724,-0.005566,-0.234013,0.659276,0.315369,-0.609813,1.603783,1.385871,-5.834385
1790539240.6534,-0.008060,-0.021443,-0.214528,-0.012159,-0.016680,-0.214528,0.984666,-0.666872,-0.773722,-5.218598,2.129471,-9.715504
1790539240.6670,0.004340,-0.035183,-0.234165,-0.000610,-0.029632,-0.234165,1.067227,-0.692369,-1.050547,-1.500784,2.203831,-9.987182
1790539240.6806,0.015322,-0.046135,-0.257750,0.010542,-0.041184,-0.257750,0.883892,-0.613450,-1.216884,-1.040848,2.352551,-9.094525
1790539240.6946,0.023907,-0.050735,-0.273555,0.019898,-0.047870,-0.273555,0.355740,-0.529674,-0.987411,0.032335,1.794851,-9.366203
1790539240.7087,0.029833,-0.057400,-0.289385,0.026852,-0.054541,-0.289385,0.528148,-0.335411,-0.753082,-0.389272,1.832031,-7.969000
1790539240.7225,0.011664,-0.059285,-0.300337,0.016220,-0.057862,-0.300337,0.137194,1.369244,-0.611027,0.108991,2.241011,-16.817952
1790539240.7364,-0.001004,-0.044475,-0.281203,0.004164,-0.048491,-0.281203,-1.089089,1.276970,-0.470187,-7.479949,1.162791,-12.315854
1790539240.7503,-0.004662,-0.029213,-0.264702,-0.002015,-0.034997,-0.264702,-1.266354,0.621333,-0.556391,-5.601878,-1.551348,-10.724595
1790539240.7643,-0.019416,-0.014542,-0.271068,-0.014195,-0.020678,-0.271068,-1.151010,1.334034,-0.590387,-2.535639,-0.361589,-8.085434
1790539240.7783,-0.028639,-0.003372,-0.262672,-0.024306,-0.008564,-0.262672,-1.024740,1.070566,-0.595243,-2.037376,-1.068009,-3.622147
1790539240.7923,-0.037187,0.009821,-0.272725,-0.033323,0.004305,-0.272725,-0.920323,1.007430,-0.552749,-1.654096,0.567911,-3.272846
1790539240.8066,-0.030034,0.004929,-0.276219,-0.031021,0.004742,-0.276219,0.365453,-0.433757,-0.332989,-0.120976,3.542311,-18.370399
1790539240.8206,-0.021801,-0.004794,-0.259719,-0.024567,-0.001933,-0.259719,0.676274,-0.903629,0.692961,4.056774,1.720491,-11.694875
1790539240.8346,-0.025191,-0.016269,-0.242229,-0.025003,-0.011968,-0.242229,0.766120,-0.000308,1.198044,1.335487,0.902531,-10.802217
1790539240.8486,-0.023073,-0.028819,-0.229425,-0.023652,-0.023764,-0.229425,0.858395,-0.298987,0.859299,0.645583,0.939711,-10.646972
1790539240.8625,-0.035101,-0.051396,-0.215505,-0.031666,-0.043106,-0.215505,1.540743,0.638331,0.972214,2.217030,0.084571,-10.452916
1790539240.8763,-0.058505,-0.070825,-0.201536,-0.050453,-0.062509,-0.201536,1.426613,1.455449,1.132481,2.830278,1.757671,-9.948371
1790539240.8899,-0.078477,-0.082395,-0.192603,-0.070070,-0.076429,-0.192603,1.025946,1.325535,1.076630,1.220503,3.244871,-6.727042
1790539240.9036,-0.085178,-0.093877,-0.182163,-0.080646,-0.088642,-0.182163,0.885106,0.478064,1.148265,-0.274288,2.724351,-10.064805
1790539240.9172,-0.076971,-0.099271,-0.169478,-0.078074,-0.096083,-0.169478,0.360597,-0.628019,1.071774,0.032335,1.534591,-12.005364
1790539240.9311,-0.075109,-0.102069,-0.152546,-0.075999,-0.100273,-0.152546,0.067988,-0.218853,1.013495,1.412143,-0.584669,-12.975644
1790539240.9450,-0.074540,-0.112086,-0.122191,-0.074977,-0.108542,-0.122191,0.463799,-0.278346,1.255109,4.516709,-3.150088,-12.471098
1790539240.9590,-0.061829,-0.116280,-0.099716,-0.065774,-0.113958,-0.099716,0.117768,-1.083323,1.119125,3.021918,-1.700068,-11.733686
1790539240.9730,-0.053102,-0.111906,-0.078190,-0.056903,-0.112522,-0.078190,-0.446808,-0.851421,1.259966,2.945262,-0.659029,-8.706413
1790539240.9871,-0.041533,-0.103927,-0.052280,-0.046144,-0.106505,-0.052280,-0.780697,-1.021401,1.270893,2.063719,-1.737248,-7.969000
1790539241.0010,-0.032347,-0.094453,-0.034050,-0.036486,-0.098069,-0.034050,-0.879043,-0.907272,1.030493,2.945262,-1.960328,-8.434735
1790539241.0150,-0.025480,-0.079921,-0.027160,-0.028782,-0.085365,-0.027160,-1.147368,-0.749433,0.714816,3.290214,-0.733389,-9.016902
1790539241.0288,-0.010257,-0.062695,-0.015806,-0.015814,-0.069496,-0.015806,-1.344059,-1.270300,0.518125,1.833751,-0.510309,-9.210958
1790539241.0431,-0.000867,-0.037341,-0.025062,-0.005351,-0.046987,-0.025062,-1.773865,-0.983763,0.529052,3.060246,0.567911,-6.571797
1790539241.0575,0.010119,-0.011416,-0.009962,0.005478,-0.022088,-0.009962,-1.878281,-0.964337,0.564262,1.105519,0.047391,-6.106063
1790539241.0715,0.005788,0.000771,-0.003292,0.005695,-0.006086,-0.003292,-0.902111,0.246163,0.299579,0.300631,1.497411,-13.635434
1790539241.0855,-0.024197,-0.025005,0.007503,-0.015230,-0.019329,0.007503,1.688868,2.244641,-0.328132,-0.350944,-1.960328,-21.281238
1790539241.0995,-0.019145,-0.027500,-0.033400,-0.017970,-0.025049,-0.033400,0.403092,-0.022162,-1.136751,-3.685479,4.992331,-10.142427
1790539241.1134,-0.029012,-0.035895,-0.043275,-0.025700,-0.032641,-0.043275,0.574286,0.546056,-0.222502,3.635166,0.642271,-10.491728
1790539241.1271,-0.009136,-0.054637,-0.030205,-0.014105,-0.048038,-0.030205,1.367120,-1.079680,-0.340274,-4.375383,0.753811,-6.921098
1790539241.1407,0.007159,-0.080937,-0.042532,0.000780,-0.071068,-0.042532,2.023971,-1.033543,-0.570961,-1.692424,1.869211,-8.124245
1790539241.1547,0.024290,-0.099655,-0.092105,0.017237,-0.091079,-0.092105,1.737434,-1.165884,-0.504183,-0.504256,4.062831,-4.670049
1790539241.1685,0.015820,-0.101500,-0.110557,0.016245,-0.098374,-0.110557,0.400663,0.692967,-0.433763,-1.040848,4.732071,-8.434735
1790539241.1825,0.010533,-0.091839,-0.106100,0.012247,-0.093799,-0.106100,-0.755200,0.606763,-0.388839,-7.020013,-0.398769,-18.991378
1790539241.1964,0.011565,-0.077976,-0.094497,0.011769,-0.082723,-0.094497,-1.087875,0.192741,-0.229787,-5.065286,-0.844929,-10.879840
1790539241.2103,0.000342,-0.068577,-0.079465,0.003770,-0.072821,-0.079465,-0.917895,1.037784,-0.221288,-2.957247,-2.592388,-8.085434
1790539241.2242,-0.016644,-0.051495,-0.077542,-0.010519,-0.057893,-0.077542,-1.305206,1.535582,-0.171508,-1.922392,-0.138509,-3.699769
1790539241.2381,-0.024580,-0.030807,-0.084670,-0.020362,-0.038933,-0.084670,-1.484899,1.002574,-0.601314,-4.183743,0.642271,-6.144874
1790539241.2519,-0.035613,-0.019712,-0.094120,-0.031038,-0.025478,-0.094120,-0.909396,1.048711,-0.471401,-2.995575,-0.659029,-11.306763
1790539241.2658,-0.035218,-0.010615,-0.095605,-0.033964,-0.015074,-0.095605,-0.658069,0.271660,-0.383983,-5.831846,1.794851,-14.838581
1790539241.2798,-0.032015,-0.008202,-0.098963,-0.032600,-0.010264,-0.098963,-0.282899,-0.230995,0.144169,-0.197632,-0.250049,-13.363756
1790539241.2937,-0.025161,-0.010158,-0.090326,-0.027393,-0.010190,-0.090326,0.103198,-0.603736,0.651680,0.300631,1.162791,-10.297672
1790539241.3082,-0.020226,-0.019396,-0.076078,-0.022376,-0.016634,-0.076078,0.580356,-0.444684,0.986784,-0.465928,0.567911,-8.085434
1790539241.3222,-0.023537,-0.035948,-0.071752,-0.023189,-0.030154,-0.071752,1.086654,0.059185,0.881153,0.568927,-0.064149,-4.980539
1790539241.3362,-0.034335,-0.047082,-0.060696,-0.030991,-0.042004,-0.060696,0.824399,0.650472,0.799806,0.760567,1.757671,-9.521448
1790539241.3498,-0.046530,-0.056986,-0.045058,-0.041868,-0.052491,-0.045058,0.794045,0.814382,0.860513,0.300631,2.538451,-10.103616
1790539241.3634,-0.059565,-0.065456,-0.027660,-0.054256,-0.061567,-0.027660,0.664132,0.883588,1.015923,0.223975,2.166651,-9.637881
1790539241.3769,-0.065239,-0.071839,-0.008401,-0.061944,-0.068757,-0.008401,0.534219,0.333581,1.035349,0.645583,3.282051,-12.082986
1790539241.3908,-0.054286,-0.076517,0.004840,-0.056583,-0.074189,0.004840,0.264679,-0.824710,0.927291,-0.312616,0.567911,-11.772497
1790539241.4047,-0.047325,-0.073328,0.014616,-0.050102,-0.073586,0.014616,-0.279256,-0.629233,0.797377,1.565455,0.716631,-11.423196
1790539241.4187,-0.041251,-0.075016,0.012523,-0.043907,-0.074587,0.012523,-0.110491,-0.677799,0.945503,2.791950,-2.332128,-9.172147
1790539241.4326,-0.030572,-0.066369,0.020494,-0.034573,-0.068835,0.020494,-0.684780,-1.076038,0.989212,3.443526,0.233291,-8.473546
1790539241.4466,-0.018637,-0.052960,0.027172,-0.023417,-0.057723,0.027172,-1.062378,-1.091822,0.754883,3.021918,-0.547489,-10.879840
1790539241.4606,-0.013230,-0.033552,0.030895,-0.016286,-0.040803,0.030895,-1.418122,-0.711795,0.526624,4.056774,0.716631,-8.667602
1790539241.4745,-0.006320,-0.012681,0.032044,-0.009310,-0.021118,0.032044,-1.538322,-0.739720,0.223088,3.136902,0.679451,-8.900469
1790539241.4885,0.005718,0.006324,0.031413,0.001210,-0.001908,0.031413,-1.371984,-1.061468,0.048252,2.217030,1.051251,-7.580888
1790539241.5024,-0.005851,0.005212,0.027466,-0.003732,0.003076,0.027466,-0.004860,0.831380,-0.317205,1.603783,0.530731,-16.507462
1790539241.5163,-0.013324,-0.006991,0.019803,-0.010446,-0.003971,0.019803,0.932457,0.888444,-1.127038,-3.493839,3.133331,-12.975644
1790539241.5303,-0.002778,-0.024501,0.012048,-0.005079,-0.018342,0.012048,1.262704,-0.345124,-1.510707,-3.455511,1.534591,-10.025993
1790539241.5445,-0.012775,-0.026584,-0.012348,-0.010466,-0.024111,-0.012348,0.316887,0.453781,-0.608599,2.638638,1.794851,-3.544525
1790539241.5589,-0.011814,-0.042213,-0.013021,-0.011410,-0.036783,-0.013021,1.027161,0.142961,-0.660807,-2.842263,0.233291,-13.480189
1790539241.5728,0.007251,-0.060183,-0.014493,0.001653,-0.053163,-0.014493,1.333124,-0.995904,-1.068759,-4.796990,1.757671,-9.560259
1790539241.5864,0.011213,-0.070995,-0.035540,0.008345,-0.065645,-0.035540,0.972524,-0.271061,-1.147678,0.875551,3.058971,-7.076343
1790539241.6000,0.017763,-0.075641,-0.054628,0.014938,-0.072642,-0.054628,0.505079,-0.396118,-1.176818,-0.044320,2.910251,-7.115154
1790539241.6139,0.027407,-0.084685,-0.069512,0.023666,-0.081072,-0.069512,0.605853,-0.617092,-1.153749,-0.197632,0.419191,-8.318301
1790539241.6277,0.018807,-0.092415,-0.082052,0.020264,-0.089012,-0.082052,0.518435,0.620119,-0.893922,1.220503,0.828171,-16.158161
1790539241.6416,0.002565,-0.086465,-0.094586,0.007875,-0.087229,-0.094586,-0.444380,1.255115,-0.817431,-1.117504,1.571771,-21.281238
1790539241.6554,0.001504,-0.070314,-0.099339,0.003415,-0.075389,-0.099339,-1.228715,0.439212,-0.696017,-5.755190,-0.101329,-9.948371
1790539241.6694,0.003489,-0.055799,-0.106789,0.003467,-0.061676,-0.106789,-1.227501,0.207311,-0.738512,-3.378855,-1.514168,-6.300119
1790539241.6833,-0.016040,-0.033228,-0.122110,-0.010188,-0.041763,-0.122110,-1.647594,1.280612,-0.643809,1.680439,0.382011,-4.708860
1790539241.6972,-0.028207,-0.013702,-0.133962,-0.022802,-0.022120,-0.133962,-1.517681,0.934582,-0.668092,0.683911,-0.435949,-7.969000
1790539241.7111,-0.042346,-0.002306,-0.142802,-0.036483,-0.008250,-0.142802,-0.699349,1.143414,-0.555177,-0.159304,3.282051,-9.870749
1790539241.7251,-0.027773,-0.014530,-0.139973,-0.030386,-0.012646,-0.139973,0.773405,-1.015331,-0.007599,-0.772552,-0.287229,-19.107812
1790539241.7389,-0.037806,-0.015394,-0.133323,-0.035580,-0.014569,-0.133323,0.006067,0.482921,0.825303,2.217030,0.716631,-9.172147
1790539241.7529,-0.034539,-0.018470,-0.117265,-0.034852,-0.017300,-0.117265,0.131124,-0.453183,1.179832,0.990535,0.456371,-9.366203
1790539241.7670,-0.022884,-0.037627,-0.094896,-0.026474,-0.031529,-0.094896,1.209282,-0.825924,0.957644,-1.615768,-0.770569,-7.736133
1790539241.7809,-0.031154,-0.048060,-0.095872,-0.029750,-0.043101,-0.095872,0.798902,0.272874,0.747598,3.941790,1.943571,-8.745224
1790539241.7950,-0.050717,-0.060805,-0.087413,-0.044427,-0.055494,-0.087413,0.840183,1.210192,0.917578,2.370342,0.382011,-12.354665
1790539241.8091,-0.057987,-0.077901,-0.072200,-0.053919,-0.071179,-0.072200,1.203211,0.452567,1.074202,-0.005993,1.460231,-9.909560
1790539241.8228,-0.069709,-0.083801,-0.059516,-0.064972,-0.080015,-0.059516,0.632564,0.765816,1.057204,0.607255,3.988471,-7.270399
1790539241.8364,-0.071022,-0.088500,-0.044519,-0.069207,-0.085954,-0.044519,0.382451,0.066470,1.121553,-0.159304,2.278191,-9.366203
1790539241.8504,-0.062872,-0.087125,-0.028780,-0.064772,-0.086774,-0.028780,-0.095921,-0.654730,1.127624,0.492271,2.278191,-12.005364
1790539241.8642,-0.057949,-0.082828,-0.012558,-0.059996,-0.084012,-0.012558,-0.463806,-0.509033,0.987998,2.370342,-1.179549,-13.247322
1790539241.8780,-0.052255,-0.078631,0.007618,-0.054577,-0.080245,0.007618,-0.505087,-0.714223,1.092414,5.244941,-2.294948,-12.160609
1790539241.8919,-0.037191,-0.064992,0.021533,-0.042407,-0.069568,0.021533,-1.059950,-1.301868,0.987998,2.370342,0.270471,-9.831937
1790539241.9059,-0.028244,-0.050316,0.036031,-0.032493,-0.056091,0.036031,-1.178936,-0.960694,0.888438,2.868606,-0.510309,-6.882287
1790539241.9197,-0.021939,-0.034464,0.048355,-0.025105,-0.040952,0.048355,-1.251784,-0.813783,0.853228,3.175230,-0.324409,-6.727042
1790539241.9339,-0.011297,-0.018258,0.058317,-0.015439,-0.025067,0.058317,-1.219002,-0.940054,0.504769,1.527127,0.196111,-7.852567
1790539241.9479,-0.000517,-0.000209,0.060631,-0.004994,-0.007666,0.060631,-1.322204,-0.993476,0.306864,2.715294,0.828171,-9.637881
1790539241.9618,-0.011209,-0.003308,0.066178,-0.009344,-0.004615,0.066178,0.069202,0.690539,-0.255284,3.865134,-1.551348,-17.050819
1790539241.9759,-0.013141,-0.021948,0.059582,-0.012002,-0.016748,0.059582,1.350122,0.512060,-1.137965,-4.720334,2.575631,-13.286133
1790539241.9899,-0.007713,-0.030511,-0.001659,-0.009000,-0.026382,-0.001659,1.010163,-0.295344,-1.140393,0.568927,5.698751,-5.873196
1790539242.0037,-0.016303,-0.033691,-0.001540,-0.014112,-0.031498,-0.001540,0.592498,0.360292,-0.407051,2.293686,2.984611,-2.380189
1790539242.0178,-0.005896,-0.050838,-0.007053,-0.008361,-0.045036,-0.007053,1.222637,-0.577025,-0.553963,-2.420655,1.460231,-13.596623
1790539242.0316,0.011628,-0.072802,-0.025135,0.005631,-0.064473,-0.025135,1.650015,-1.140387,-0.919419,-0.964192,1.980751,-10.258860
1790539242.0452,0.021483,-0.085180,-0.052954,0.016727,-0.078968,-0.052954,1.057514,-0.668086,-1.150106,0.185647,2.389731,-6.688231
1790539242.0597,0.032743,-0.094126,-0.067476,0.027938,-0.089578,-0.067476,0.638635,-0.799213,-0.999553,0.645583,0.939711,-6.106063
1790539242.0737,0.022603,-0.110718,-0.062863,0.024204,-0.104376,-0.062863,1.053872,0.655329,-0.918205,2.063719,-1.030829,-12.703965
1790539242.0877,0.005970,-0.108361,-0.072753,0.011440,-0.107166,-0.072753,-0.223406,1.268471,-0.885423,-1.309144,-0.026969,-18.836133
1790539242.1016,0.002698,-0.092920,-0.064879,0.005321,-0.097194,-0.064879,-1.234786,0.559412,-0.753082,-6.943357,-1.700068,-12.975644
1790539242.1155,0.002956,-0.077779,-0.060505,0.003665,-0.083603,-0.060505,-1.269996,0.332367,-0.892708,-4.682006,-1.997508,-8.473546
1790539242.1295,-0.011403,-0.059854,-0.064975,-0.006883,-0.066979,-0.064975,-1.439976,1.244188,-0.896351,-1.155832,-0.844929,-5.252217
1790539242.1438,-0.025188,-0.041955,-0.067430,-0.019696,-0.049462,-0.067430,-1.449689,1.148271,-0.732442,-0.695896,-1.105189,-4.514804
1790539242.1577,-0.039508,-0.027277,-0.083575,-0.033565,-0.033932,-0.083575,-0.974960,1.289111,-0.823502,-1.500784,1.608951,-6.921098
1790539242.1717,-0.044868,-0.010678,-0.099013,-0.041477,-0.017654,-0.099013,-1.046594,0.554555,-0.659593,-1.040848,3.579491,-10.608161
1790539242.1857,-0.040401,0.000002,-0.099737,-0.040724,-0.005295,-0.099737,-0.854760,-0.238280,-0.307492,-0.504256,-0.026969,-16.779140
1790539242.1996,-0.033483,-0.003710,-0.093949,-0.035655,-0.004185,-0.093949,0.139623,-0.545458,0.178165,0.645583,-0.584669,-13.829490
1790539242.2134,-0.033428,-0.008545,-0.097708,-0.034096,-0.007237,-0.097708,0.350883,-0.340268,0.658965,3.941790,1.571771,-8.939280
1790539242.2273,-0.029345,-0.023814,-0.085492,-0.030770,-0.018841,-0.085492,0.960383,-0.425258,0.533909,0.722239,-0.473129,-6.765853
1790539242.2414,-0.035763,-0.037946,-0.085123,-0.034265,-0.032214,-0.085123,1.016233,0.308084,0.442848,1.718767,1.385871,-9.172147
1790539242.2554,-0.050731,-0.048714,-0.081651,-0.045791,-0.043764,-0.081651,0.769762,0.946723,0.599472,1.833751,1.757671,-12.859210
1790539242.2690,-0.064333,-0.055203,-0.081609,-0.058771,-0.051772,-0.081609,0.559716,0.890873,0.743955,1.182175,3.133331,-10.724595
1790539242.2826,-0.074285,-0.058080,-0.084236,-0.069631,-0.056187,-0.084236,0.360597,0.660186,0.756097,0.607255,3.914111,-9.210958
1790539242.2962,-0.070516,-0.059737,-0.079010,-0.070250,-0.058672,-0.079010,0.189403,-0.252849,0.729386,-0.964192,2.835891,-9.754315
1790539242.3109,-0.067193,-0.060082,-0.072455,-0.068110,-0.059659,-0.072455,0.075273,-0.382763,0.718458,2.140375,2.724351,-10.025993
1790539242.3249,-0.056716,-0.061222,-0.055742,-0.060134,-0.060753,-0.055742,-0.038856,-0.789500,0.709959,0.032335,-0.361589,-12.781588
1790539242.3391,-0.047826,-0.056069,-0.041243,-0.051519,-0.057474,-0.041243,-0.432238,-0.813783,0.745169,2.178703,0.493551,-9.870749
1790539242.3530,-0.038851,-0.049712,-0.022490,-0.042651,-0.052041,-0.022490,-0.569436,-0.893916,0.703889,2.791950,-0.287229,-8.589979
1790539242.3669,-0.027607,-0.039664,-0.014323,-0.032120,-0.043377,-0.014323,-0.741844,-0.975264,0.522981,1.335487,0.790991,-7.076343
1790539242.3807,-0.021344,-0.032141,0.000338,-0.024577,-0.035512,0.000338,-0.661711,-0.592809,0.327505,1.488799,-0.435949,-8.589979
1790539242.3947,-0.012568,-0.022370,0.003620,-0.016171,-0.026313,0.003620,-0.735774,-0.739720,0.065250,1.335487,0.642271,-8.085434
1790539242.4087,-0.009053,-0.014562,0.002257,-0.011188,-0.018087,0.002257,-0.608289,-0.326912,-0.301421,1.872079,0.567911,-9.599070
1790539242.4230,-0.015162,-0.024451,-0.003243,-0.013970,-0.022542,-0.003243,0.659276,0.618905,-0.742155,-1.807408,1.051251,-13.984735
1790539242.4377,-0.010947,-0.041354,-0.019740,-0.011854,-0.035711,-0.019740,1.157074,0.047044,-1.312801,-3.838791,1.646131,-12.626343
1790539242.4527,-0.010370,-0.047742,-0.046652,-0.010815,-0.044132,-0.046652,0.558502,0.064042,-0.932775,0.032335,2.538451,-7.542077
1790539242.4671,-0.004956,-0.057503,-0.054497,-0.006713,-0.053491,-0.054497,0.700556,-0.205498,-0.546678,-2.114032,1.460231,-10.452916
1790539242.4816,0.012815,-0.076489,-0.060416,0.006956,-0.069590,-0.060416,1.263918,-1.062682,-0.753082,-2.420655,0.419191,-13.441378
1790539242.4964,0.026643,-0.089522,-0.095793,0.020737,-0.083543,-0.095793,1.165573,-0.831995,-0.885423,-0.810880,4.360271,-6.338930
1790539242.5100,0.035274,-0.098373,-0.116048,0.030913,-0.093924,-0.116048,0.900890,-0.612235,-0.772508,0.070663,3.467951,-6.028441
1790539242.5237,0.027097,-0.106906,-0.124774,0.028242,-0.103011,-0.124774,0.620423,0.605549,-0.584316,0.108991,1.497411,-17.827042
1790539242.5377,0.019872,-0.113266,-0.129580,0.022383,-0.110189,-0.129580,0.390950,0.637117,-0.420407,-3.110559,-0.621849,-16.080539
1790539242.5520,0.018519,-0.114068,-0.132040,0.019678,-0.112904,-0.132040,-0.027929,0.276517,-0.407051,-4.337055,-1.142369,-13.751868
1790539242.5665,0.008220,-0.108759,-0.133743,0.011658,-0.110003,-0.133743,-0.448022,0.960079,-0.417979,-3.187215,-0.621849,-7.037532
1790539242.5806,0.000298,-0.099881,-0.138047,0.003706,-0.102918,-0.138047,-0.736988,0.754889,-0.481114,-2.880591,-1.142369,-9.715504
1790539242.5947,-0.009067,-0.088655,-0.141809,-0.005235,-0.092934,-0.141809,-0.916681,0.816810,-0.393696,-1.539112,-0.956469,-7.309210
1790539242.6085,-0.016188,-0.076730,-0.143064,-0.012902,-0.081591,-0.143064,-1.004099,0.666256,-0.247999,-1.960720,-1.514168,-9.133336
1790539242.6225,-0.022962,-0.058670,-0.141730,-0.019944,-0.065546,-0.141730,-1.385340,0.592194,0.042181,-1.462456,-0.510309,-8.745224
1790539242.6366,-0.031846,-0.037669,-0.139168,-0.028275,-0.046032,-0.139168,-1.622097,0.762173,0.118672,-1.769080,-0.807749,-8.395923
1790539242.6504,-0.038889,-0.017068,-0.139017,-0.035705,-0.025757,-0.139017,-1.653665,0.639545,0.034896,-1.232488,-0.919289,-6.610609
1790539242.6644,-0.028998,-0.013487,-0.134195,-0.031010,-0.017168,-0.134195,-0.397028,-0.607379,0.153882,-2.688951,-1.105189,-13.596623
1790539242.6783,0.003017,-0.027253,-0.124380,-0.007191,-0.024228,-0.124380,0.768548,-2.417665,0.894509,-0.925864,-3.298808,-14.528091
1790539242.6921,-0.009674,-0.032609,-0.113433,-0.008929,-0.030095,-0.113433,0.574286,0.476850,1.026850,3.558510,2.724351,-5.329839
1790539242.7060,-0.007985,-0.039621,-0.090735,-0.008269,-0.036763,-0.090735,0.518435,0.095609,0.367571,-3.493839,1.014071,-7.542077
1790539242.7199,-0.017232,-0.050824,-0.089696,-0.014543,-0.046606,-0.089696,0.866894,0.499919,0.372428,2.255358,2.166651,-10.064805
1790539242.7334,-0.034142,-0.061297,-0.084986,-0.028263,-0.056890,-0.084986,0.906960,1.064495,0.512054,3.136902,3.988471,-11.733686
1790539242.7470,-0.049781,-0.065900,-0.074609,-0.043325,-0.063197,-0.074609,0.537861,1.077850,0.526624,0.760567,3.988471,-8.434735
1790539242.7610,-0.056340,-0.077456,-0.064061,-0.052436,-0.073178,-0.064061,0.926387,0.468351,0.575189,-0.235960,2.278191,-7.813756
1790539242.7749,-0.055163,-0.083667,-0.057088,-0.054344,-0.080520,-0.057088,0.427374,-0.154504,0.491414,1.220503,1.014071,-12.315854
1790539242.7889,-0.047664,-0.080612,-0.050228,-0.049668,-0.080584,-0.050228,-0.237975,-0.597666,0.450133,1.105519,1.088431,-13.519000
1790539242.8028,-0.039827,-0.075429,-0.043605,-0.042779,-0.076975,-0.043605,-0.462592,-0.773716,0.609185,3.826806,-0.398769,-12.665154
1790539242.8172,-0.026661,-0.064573,-0.037406,-0.031496,-0.068294,-0.037406,-0.814693,-1.128246,0.490200,2.906934,0.121751,-9.405014
1790539242.8310,-0.008592,-0.051600,-0.032277,-0.015463,-0.056608,-0.032277,-1.022311,-1.464563,0.306864,1.872079,-0.287229,-9.172147
1790539242.8450,0.001474,-0.035136,-0.031779,-0.003608,-0.041578,-0.031779,-1.257855,-0.991048,0.157525,3.328542,-0.212869,-7.697322
1790539242.8590,0.013560,-0.014923,-0.034200,0.008410,-0.022919,-0.034200,-1.424192,-1.114890,0.066464,2.830278,1.274331,-7.270399
1790539242.8729,0.016346,0.001159,-0.038163,0.013965,-0.006064,-0.038163,-1.129156,-0.415544,-0.051308,2.868606,1.608951,-7.930189
1790539242.8869,-0.005244,-0.003023,-0.053561,0.000519,-0.003935,-0.053561,0.316887,1.528297,-0.631668,3.175230,2.761531,-13.519000
1790539242.9007,-0.001935,-0.015060,-0.067801,-0.001199,-0.011722,-0.067801,0.906960,0.203668,-1.348012,-6.023486,3.096151,-13.557812
1790539242.9146,-0.003212,-0.018080,-0.092132,-0.002608,-0.016173,-0.092132,0.338742,0.363935,-1.324943,-1.462456,3.542311,-9.754315
1790539242.9285,-0.013993,-0.024083,-0.101584,-0.010578,-0.021710,-0.101584,0.479582,0.650472,-0.730013,3.520182,1.906391,-8.357112
1790539242.9426,-0.006762,-0.035699,-0.109629,-0.007907,-0.031502,-0.109629,0.800116,-0.228566,-0.861141,-3.378855,0.790991,-10.879840
1790539242.9564,0.009821,-0.048421,-0.124725,0.004503,-0.043345,-0.124725,0.974952,-0.932769,-1.016551,-2.842263,2.241011,-10.064805
1790539242.9701,0.018077,-0.054938,-0.144036,0.014005,-0.051460,-0.144036,0.626494,-0.489607,-1.084543,-0.274288,3.021791,-7.619700
1790539242.9837,0.024392,-0.058997,-0.158907,0.021276,-0.056736,-0.158907,0.326601,-0.387619,-1.031120,0.070663,1.534591,-7.930189
1790539242.9976,0.033500,-0.065601,-0.168422,0.029833,-0.062942,-0.168422,0.390950,-0.624377,-1.065116,0.683911,0.196111,-9.172147
1790539243.0116,0.023324,-0.071208,-0.181422,0.025277,-0.068728,-0.181422,0.387308,0.758531,-0.907278,1.143847,2.389731,-19.418301
1790539243.0255,0.010401,-0.054761,-0.196167,0.014864,-0.058951,-0.196167,-1.189863,1.147056,-0.751868,-4.222071,1.943571,-16.041728
1790539243.0395,0.010801,-0.038458,-0.201706,0.012020,-0.044606,-0.201706,-1.308849,0.270446,-0.715444,-4.988630,-1.328269,-12.238231
1790539243.0534,0.000541,-0.022050,-0.216267,0.003985,-0.028817,-0.216267,-1.172865,0.980719,-0.818646,-1.347472,0.939711,-5.717951
1790539243.0682,-0.026420,0.000646,-0.205524,-0.017299,-0.008193,-0.205524,-1.170437,1.643641,-0.675377,2.293686,3.207691,-1.953266
1790539243.0825,-0.030061,0.008187,-0.216368,-0.026232,0.003273,-0.216368,-0.633786,0.451353,-0.603742,-1.654096,-0.510309,-12.082986
1790539243.0965,-0.008399,-0.012538,-0.208235,-0.013749,-0.007795,-0.208235,1.471537,-1.687965,0.021541,3.328542,2.352551,-16.429840
1790539243.1105,-0.027432,-0.012215,-0.204802,-0.023327,-0.010889,-0.204802,0.193045,0.945509,0.819232,7.046356,6.367990,-9.637881
1790539243.1244,-0.021702,-0.022138,-0.194044,-0.022190,-0.018763,-0.194044,0.650777,-0.436185,1.032921,-1.654096,0.456371,-8.434735
1790539243.1384,-0.021403,-0.034046,-0.173562,-0.021639,-0.029461,-0.173562,0.851110,-0.271061,1.185903,1.297159,1.199971,-7.580888
1790539243.1524,-0.017736,-0.045027,-0.167363,-0.018907,-0.040357,-0.167363,0.666560,-0.152076,0.764596,-2.688951,-0.621849,-7.891378
1790539243.1662,-0.033802,-0.057079,-0.148169,-0.029333,-0.052063,-0.148169,0.840183,0.917584,1.040206,3.826806,1.051251,-14.528091
1790539243.1802,-0.042799,-0.073371,-0.134309,-0.038760,-0.066979,-0.134309,1.159502,0.527844,1.094842,0.722239,1.385871,-11.190329
1790539243.1938,-0.055064,-0.077027,-0.130140,-0.050172,-0.074012,-0.130140,0.461370,0.712394,1.229612,1.680439,3.914111,-7.580888
1790539243.2073,-0.054666,-0.078133,-0.129275,-0.053318,-0.076897,-0.129275,0.188188,-0.025805,1.026850,-0.810880,3.133331,-9.405014
1790539243.2212,-0.047064,-0.077627,-0.112912,-0.048940,-0.077408,-0.112912,-0.026715,-0.689940,1.057204,1.412143,1.869211,-10.608161
1790539243.2351,-0.046392,-0.077535,-0.090385,-0.047157,-0.077497,-0.090385,-0.082565,-0.220068,0.906650,2.408670,0.233291,-12.315854
1790539243.2491,-0.040290,-0.078203,-0.060928,-0.042350,-0.077991,-0.060928,-0.134773,-0.602522,0.825303,2.255358,-1.997508,-12.082986
1790539243.2631,-0.036192,-0.077548,-0.035945,-0.038040,-0.077681,-0.035945,-0.183339,-0.507819,0.714816,3.098574,-1.105189,-10.763406
1790539243.2769,-0.028127,-0.068523,-0.020411,-0.031101,-0.071270,-0.020411,-0.709063,-0.730007,0.639539,1.450471,0.233291,-8.628791
1790539243.2909,-0.026345,-0.057334,-0.007201,-0.027772,-0.061515,-0.007201,-0.886327,-0.388833,0.419779,3.175230,-0.212869,-7.813756
1790539243.3048,-0.023181,-0.048577,0.013717,-0.024558,-0.052458,0.013717,-0.835333,-0.485965,0.522981,3.136902,-1.885968,-8.473546
1790539243.3193,-0.018895,-0.036517,0.032143,-0.020594,-0.041299,0.032143,-1.015026,-0.405831,0.232801,0.990535,-1.179549,-6.300119
1790539243.3334,-0.005485,-0.021281,0.044019,-0.010018,-0.027286,0.044019,-1.192291,-1.006832,0.033682,0.568927,-0.287229,-8.046623
1790539243.3477,-0.001759,-0.009943,0.048806,-0.004237,-0.015146,0.048806,-0.938535,-0.415544,0.089533,2.063719,-0.882109,-8.861658
1790539243.3618,-0.014488,-0.024319,0.039494,-0.011413,-0.021567,0.039494,0.869322,0.807097,-0.448332,5.206613,-2.257768,-17.671798
1790539243.3758,-0.021533,-0.036346,0.002251,-0.018497,-0.031912,0.002251,1.018662,0.679612,-0.926704,-1.002520,4.025651,-11.772497
1790539243.3897,-0.017468,-0.036631,-0.052710,-0.017777,-0.035216,-0.052710,0.293819,-0.385191,-0.383983,1.757095,3.505131,-6.455364
1790539243.4037,-0.010864,-0.049502,-0.054240,-0.012938,-0.045216,-0.054240,0.905746,-0.356051,-0.294136,-1.539112,0.939711,-11.073895
1790539243.4178,0.011667,-0.070622,-0.070506,0.004286,-0.063000,-0.070506,1.592951,-1.329793,-0.388839,-3.877119,1.906391,-8.124245
1790539243.4315,0.030792,-0.085851,-0.105204,0.022840,-0.078996,-0.105204,1.379262,-1.210807,-0.488399,-1.999048,3.653851,-6.377742
1790539243.4452,0.039227,-0.100316,-0.118861,0.034311,-0.093920,-0.118861,1.240850,-0.688726,-0.305064,1.067191,3.542311,-9.210958
1790539243.4592,0.027319,-0.108267,-0.126652,0.029417,-0.103963,-0.126652,0.543932,0.888444,-0.500540,-0.810880,0.753811,-16.352217
1790539243.4730,0.019446,-0.102469,-0.126969,0.022437,-0.102917,-0.126969,-0.496588,0.742747,-0.400981,-4.605350,-0.770569,-15.808861
1790539243.4870,0.017603,-0.092918,-0.114765,0.019053,-0.095918,-0.114765,-0.817121,0.433141,-0.422835,-5.640206,-1.514168,-10.142427
1790539243.5011,0.004347,-0.081522,-0.107743,0.008759,-0.085841,-0.107743,-1.007742,1.106990,-0.553963,-1.577440,-1.625708,-7.037532
1790539243.5150,-0.010692,-0.059375,-0.120674,-0.004857,-0.067315,-0.120674,-1.578388,1.323107,-0.597672,-1.079176,0.419191,-3.389280
1790539243.5290,-0.019051,-0.037855,-0.127300,-0.014793,-0.046693,-0.127300,-1.590530,1.008644,-0.629239,-3.110559,0.010211,-4.747672
1790539243.5429,-0.037079,-0.019014,-0.131871,-0.030393,-0.027318,-0.131871,-1.416907,1.340105,-0.366985,0.530599,0.158931,-11.112707
1790539243.5571,-0.041786,-0.004989,-0.133335,-0.038368,-0.011688,-0.133335,-1.066020,0.542414,-0.184863,-3.877119,0.010211,-13.984735
1790539243.5718,-0.035659,-0.000671,-0.128611,-0.036471,-0.003976,-0.128611,-0.344820,-0.493249,0.168452,1.297159,1.014071,-12.393476
1790539243.5859,-0.033371,-0.007637,-0.116337,-0.034301,-0.006539,-0.116337,0.461370,-0.398546,0.792521,2.025391,1.237151,-9.521448
1790539243.6000,-0.030324,-0.020666,-0.102759,-0.031517,-0.016428,-0.102759,0.993165,-0.671728,1.057204,3.251886,1.720491,-5.096972
1790539243.6140,-0.026675,-0.034872,-0.094801,-0.028128,-0.029338,-0.094801,1.016233,-0.194571,0.611614,-1.615768,0.976891,-6.921098
1790539243.6279,-0.032092,-0.046848,-0.092410,-0.030903,-0.041595,-0.092410,0.970096,0.263161,0.498699,1.373815,2.947431,-9.327392
1790539243.6418,-0.047779,-0.058583,-0.087060,-0.042716,-0.053486,-0.087060,0.885106,0.996503,0.563048,1.987063,2.129471,-11.229140
1790539243.6554,-0.062553,-0.068562,-0.084364,-0.056602,-0.064039,-0.084364,0.853538,1.011073,0.781594,0.607255,3.058971,-8.861658
1790539243.6690,-0.072761,-0.074531,-0.080909,-0.067913,-0.071384,-0.080909,0.581570,0.691753,0.866584,0.415615,3.653851,-8.861658
1790539243.6830,-0.066765,-0.076429,-0.076093,-0.067110,-0.074915,-0.076093,0.188188,-0.397332,0.827731,-1.385800,3.282051,-12.665154
1790539243.6968,-0.062027,-0.076350,-0.060183,-0.063552,-0.075920,-0.060183,-0.059497,-0.473823,0.889652,1.795423,0.976891,-12.238231
1790539243.7106,-0.055225,-0.075816,-0.038952,-0.057723,-0.075847,-0.038952,-0.168769,-0.635304,0.887224,1.910407,-0.621849,-12.160609
1790539243.7246,-0.046457,-0.071040,-0.005810,-0.049837,-0.072482,-0.005810,-0.488089,-0.932769,0.975856,3.750150,-0.733389,-8.822846
1790539243.7385,-0.040854,-0.062776,0.020750,-0.043549,-0.065688,0.020750,-0.755200,-0.668086,0.827731,3.175230,-1.068009,-8.939280
1790539243.7524,-0.029639,-0.053003,0.039238,-0.033812,-0.056809,0.039238,-0.825620,-0.942482,0.612828,1.067191,-0.473129,-7.813756
1790539243.7664,-0.022347,-0.037263,0.042574,-0.025787,-0.043127,0.042574,-1.109730,-0.743363,0.391854,3.060246,1.571771,-9.676693
1790539243.7803,-0.010839,-0.017719,0.048425,-0.015324,-0.025341,0.048425,-1.432691,-1.004403,0.112601,2.830278,0.976891,-10.491728
1790539243.7944,-0.003068,0.002434,0.044029,-0.006745,-0.005898,0.044029,-1.409623,-0.702082,-0.192148,2.830278,1.832031,-9.482637
1790539243.8084,-0.015637,-0.000951,0.029820,-0.012970,-0.002435,0.029820,0.213685,1.227190,-0.704516,-3.953775,1.162791,-11.423196
1790539243.8227,-0.012211,-0.015564,0.008056,-0.012438,-0.011626,0.008056,0.993165,0.210953,-1.254523,-6.253454,0.790991,-12.898021
1790539243.8367,-0.010402,-0.016997,-0.028322,-0.011013,-0.015385,-0.028322,0.324172,0.113822,-1.076044,-1.692424,5.587211,-10.336483
1790539243.8507,-0.010876,-0.025690,-0.037924,-0.010917,-0.022598,-0.037924,0.610710,0.208525,-0.579460,-1.884064,1.348691,-12.199420
1790539243.8647,-0.001266,-0.039850,-0.054864,-0.004161,-0.034674,-0.054864,1.035660,-0.443470,-0.984983,-2.918919,2.055111,-13.286133
1790539243.8783,0.009611,-0.051743,-0.075276,0.005479,-0.046622,-0.075276,0.940956,-0.601308,-1.150106,-1.539112,2.612811,-11.073895
1790539243.8919,0.016803,-0.058569,-0.098007,0.013406,-0.054985,-0.098007,0.685987,-0.413116,-1.255737,-0.044320,3.430771,-7.309210
1790539243.9055,0.023422,-0.064346,-0.118389,0.020417,-0.061538,-0.118389,0.528148,-0.363336,-1.157391,-0.312616,1.832031,-5.756762
1790539243.9194,0.031877,-0.076653,-0.134552,0.028439,-0.072118,-0.134552,0.835326,-0.466538,-1.054189,-1.002520,0.530731,-8.357112
1790539243.9334,0.024852,-0.086887,-0.142914,0.025928,-0.082457,-0.142914,0.679916,0.513274,-0.907278,1.297159,0.865351,-20.155714
1790539243.9472,0.011777,-0.075516,-0.158925,0.016022,-0.077598,-0.158925,-0.858402,1.127630,-0.755510,-4.490366,1.051251,-20.000469
1790539243.9612,0.010003,-0.058629,-0.170854,0.011808,-0.064320,-0.170854,-1.314920,0.407644,-0.757939,-5.486894,-0.882109,-14.101168
1790539243.9753,0.002483,-0.042108,-0.171775,0.005280,-0.048772,-0.171775,-1.437548,0.729392,-0.824716,-0.925864,-1.588528,-4.708860
1790539243.9894,-0.019701,-0.024584,-0.165142,-0.012207,-0.031840,-0.165142,-1.178936,1.360745,-0.637738,1.757095,0.790991,-2.923546
1790539244.0034,-0.035157,-0.012516,-0.173727,-0.028272,-0.018313,-0.173727,-0.953105,1.230832,-0.685090,-0.005993,-0.212869,-7.813756
1790539244.0172,-0.035674,-0.007830,-0.184222,-0.033453,-0.010975,-0.184222,-0.359390,0.277731,-0.482328,-3.877119,1.385871,-15.343126
1790539244.0310,-0.028914,-0.012302,-0.176316,-0.030276,-0.011904,-0.176316,0.261037,-0.533316,0.474416,-0.619240,1.311511,-20.039280
1790539244.0450,-0.036334,-0.013283,-0.159963,-0.034517,-0.012869,-0.159963,0.156621,0.243735,1.151907,2.868606,3.951291,-11.306763
1790539244.0590,-0.034399,-0.021982,-0.134452,-0.034434,-0.019248,-0.134452,0.630136,-0.562456,1.321887,1.872079,0.902531,-4.087881
1790539244.0734,-0.017428,-0.037732,-0.132335,-0.022530,-0.032187,-0.132335,1.130363,-1.110034,0.492628,-1.462456,1.274331,-6.183686
1790539244.0875,-0.037339,-0.049093,-0.113117,-0.032896,-0.044021,-0.113117,0.774619,1.058424,0.663822,6.471437,0.902531,-11.423196
1790539244.1015,-0.052973,-0.064780,-0.100716,-0.046950,-0.058552,-0.100716,1.059942,1.029285,0.831373,0.760567,0.419191,-12.160609
1790539244.1151,-0.063228,-0.074956,-0.098900,-0.058344,-0.070035,-0.098900,0.854752,0.733034,1.060846,-0.504256,2.910251,-8.318301
1790539244.1287,-0.070381,-0.077707,-0.094041,-0.066770,-0.075406,-0.094041,0.280463,0.478064,0.934576,0.262303,3.467951,-11.694875
1790539244.1429,-0.064527,-0.085098,-0.073954,-0.065200,-0.082190,-0.073954,0.344813,-0.477466,0.986784,0.338959,-1.476988,-12.044175
1790539244.1567,-0.060227,-0.087163,-0.059965,-0.061719,-0.085671,-0.059965,0.024279,-0.352409,0.711173,0.377287,-0.733389,-11.035084
1790539244.1707,-0.055375,-0.089894,-0.036056,-0.057278,-0.088627,-0.036056,0.009709,-0.572169,0.843515,3.673494,-1.923148,-10.918651
1790539244.1847,-0.042280,-0.085660,-0.016436,-0.046779,-0.086551,-0.016436,-0.427382,-1.141601,0.878725,2.523654,-0.659029,-9.249770
1790539244.1988,-0.036610,-0.075151,0.000188,-0.039661,-0.078571,0.000188,-0.849903,-0.655945,0.855656,3.213558,-0.398769,-9.172147
1790539244.2128,-0.030549,-0.061821,0.017257,-0.033283,-0.066846,0.017257,-1.086661,-0.696011,0.781594,3.328542,-0.956469,-9.249770
1790539244.2266,-0.020255,-0.042348,0.025608,-0.024164,-0.049698,0.025608,-1.450903,-0.916985,0.453775,1.757095,0.493551,-8.279490
1790539244.2405,-0.013894,-0.021412,0.030279,-0.016975,-0.029898,0.030279,-1.584459,-0.668086,0.172094,2.753622,0.121751,-8.628791
1790539244.2545,-0.003633,-0.002808,0.033778,-0.007635,-0.010935,0.033778,-1.362271,-0.847779,0.045824,1.450471,0.865351,-8.822846
1790539244.2684,-0.020828,-0.007252,0.032487,-0.016870,-0.008357,0.032487,0.236754,1.239331,-0.397338,2.408670,0.344831,-17.788231
1790539244.2824,-0.015708,-0.018232,0.005857,-0.016057,-0.015269,0.005857,0.826827,0.081040,-1.241167,-4.835318,1.757671,-9.831937
1790539244.2964,-0.026410,-0.021159,-0.071330,-0.023304,-0.019392,-0.071330,0.565787,0.550913,-0.895137,4.095102,3.951291,-4.087881
1790539244.3104,-0.021778,-0.029037,-0.093193,-0.022236,-0.026144,-0.093193,0.713912,-0.181215,-0.595243,-0.580912,1.869211,-5.213406
1790539244.3247,-0.008008,-0.048724,-0.104202,-0.012276,-0.041950,-0.104202,1.385332,-0.733650,-0.825930,-2.918919,1.534591,-12.509909
1790539244.3384,0.012117,-0.067641,-0.129420,0.004799,-0.059934,-0.129420,1.533458,-1.294583,-1.078472,-1.194160,3.133331,-8.628791
1790539244.3520,0.019637,-0.079056,-0.139876,0.015186,-0.073319,-0.139876,1.049015,-0.615878,-1.006838,1.603783,3.505131,-6.843476
1790539244.3656,0.032020,-0.088938,-0.156987,0.026970,-0.084252,-0.156987,0.764906,-0.869634,-1.048118,0.223975,2.017931,-10.918651
1790539244.3796,0.013716,-0.098744,-0.156040,0.017692,-0.094397,-0.156040,0.614352,1.247830,-1.093042,3.366870,-0.064149,-16.817952
1790539244.3934,-0.002330,-0.090248,-0.172622,0.003676,-0.091493,-0.172622,-0.644713,1.300038,-1.023836,-2.497311,0.753811,-19.573546
1790539244.4073,-0.001663,-0.076995,-0.170518,-0.000061,-0.081345,-0.170518,-1.109730,0.201240,-0.919419,-3.992103,-2.034688,-12.082986
1790539244.4215,0.001315,-0.063375,-0.163731,0.000902,-0.068766,-0.163731,-1.151010,0.195169,-0.969199,-4.490366,-1.737248,-6.610609
1790539244.4354,-0.015965,-0.042623,-0.161313,-0.010904,-0.050466,-0.161313,-1.673091,1.283040,-0.808932,0.300631,-0.584669,-3.350469
1790539244.4495,-0.020342,-0.020307,-0.174854,-0.017511,-0.029355,-0.174854,-1.669449,0.689325,-0.862355,-1.922392,-0.175689,-4.049070
1790539244.4636,-0.035791,-0.004688,-0.189034,-0.030307,-0.012088,-0.189034,-1.132798,1.324321,-0.886638,-0.964192,0.679451,-8.551168
1790539244.4774,-0.044890,0.011664,-0.205429,-0.040515,0.004538,-0.205429,-1.120657,0.915155,-0.810147,-1.807408,2.426911,-11.229140
1790539244.4913,-0.032017,0.009523,-0.205344,-0.034566,0.008028,-0.205344,0.041277,-0.833209,-0.450761,-0.542584,-0.621849,-19.185434
1790539244.5055,-0.025205,0.008526,-0.199135,-0.028013,0.008377,-0.199135,0.036421,-0.590381,0.241300,1.297159,1.311511,-10.763406
1790539244.5213,-0.022630,-0.000066,-0.185309,-0.024245,0.002467,-0.185309,0.428589,-0.416759,0.516911,2.140375,-0.324409,-6.338930
1790539244.5360,-0.023394,-0.011513,-0.189761,-0.023649,-0.007319,-0.189761,0.814686,-0.115651,-0.030667,2.063719,1.348691,-6.144874
1790539244.5504,-0.036397,-0.023583,-0.195849,-0.032573,-0.018704,-0.195849,0.944599,0.671113,0.274082,3.251886,2.612811,-7.774944
1790539244.5661,-0.053250,-0.034569,-0.194743,-0.047047,-0.029809,-0.194743,0.750336,0.978291,0.520553,1.373815,2.724351,-11.345574
1790539244.5798,-0.066376,-0.039388,-0.196085,-0.060577,-0.036514,-0.196085,0.434659,0.933367,0.665036,-0.197632,2.389731,-7.930189
1790539244.5932,-0.066302,-0.040519,-0.197206,-0.064584,-0.039317,-0.197206,0.183332,0.050686,0.700246,-1.347472,2.761531,-8.007811
1790539244.6072,-0.066039,-0.042815,-0.185236,-0.065602,-0.041766,-0.185236,0.095914,-0.099867,0.733028,0.377287,0.567911,-7.619700
1790539244.6211,-0.064211,-0.043601,-0.174375,-0.064628,-0.043050,-0.174375,0.024279,-0.227352,0.832588,0.492271,1.237151,-8.745224
1790539244.6350,-0.055084,-0.041096,-0.166675,-0.057947,-0.041682,-0.166675,-0.162699,-0.693583,0.833802,-0.772552,2.984611,-13.402567
1790539244.6489,-0.045266,-0.035640,-0.145370,-0.049071,-0.037453,-0.145370,-0.439523,-0.954623,1.140980,2.830278,1.720491,-13.014455
1790539244.6628,-0.032118,-0.022806,-0.127427,-0.037204,-0.027200,-0.127427,-0.940964,-1.185310,1.029279,2.025391,1.980751,-11.306763
1790539244.6767,-0.024768,-0.011251,-0.103311,-0.028499,-0.016035,-0.103311,-0.835333,-0.895131,0.901794,2.676966,1.125611,-6.144874
1790539244.6906,-0.020245,0.000021,-0.088761,-0.022721,-0.004796,-0.088761,-0.834119,-0.553957,0.556977,2.332014,1.311511,-9.482637
1790539244.7045,-0.024197,-0.006746,-0.078817,-0.023754,-0.006161,-0.078817,0.384879,0.263161,0.020327,0.798895,-0.101329,-16.080539
1790539244.7185,-0.012438,-0.011390,-0.097888,-0.015833,-0.009821,-0.097888,0.398235,-0.529674,-0.802862,-3.915447,2.724351,-11.267951
1790539244.7325,-0.012289,-0.019419,-0.111399,-0.013352,-0.016539,-0.111399,0.563358,0.138104,-1.046904,0.070663,1.348691,-11.694875
1790539244.7463,-0.016631,-0.024601,-0.124527,-0.015647,-0.022182,-0.124527,0.451657,0.269232,-0.785864,2.255358,2.129471,-8.163056
1790539244.7603,0.001966,-0.034244,-0.131301,-0.003318,-0.030626,-0.131301,0.633779,-1.091822,-0.740941,-2.727279,0.307651,-10.142427
1790539244.7743,0.010701,-0.053434,-0.140762,0.006495,-0.046592,-0.140762,1.316126,-0.502963,-0.975270,-0.542584,0.382011,-12.121798
1790539244.7882,0.020917,-0.069902,-0.167174,0.016590,-0.062909,-0.167174,1.221423,-0.505391,-1.431787,-1.462456,1.571771,-7.813756
1790539244.8018,0.035964,-0.076995,-0.181878,0.030152,-0.072769,-0.181878,0.499009,-1.125818,-1.367438,1.258831,0.939711,-7.580888
1790539244.8154,0.038239,-0.086812,-0.199469,0.035813,-0.082599,-0.199469,0.764906,-0.200641,-1.101541,1.297159,1.980751,-8.784035
1790539244.8296,0.023339,-0.092343,-0.207277,0.027081,-0.089420,-0.207277,0.282891,1.043854,-1.048118,1.450471,-0.435949,-15.537182
1790539244.8435,0.017893,-0.091455,-0.216332,0.020650,-0.090844,-0.216332,-0.193052,0.582480,-0.938846,-3.340527,-1.402628,-13.945924
1790539244.8574,0.012268,-0.088912,-0.221814,0.014783,-0.089492,-0.221814,-0.381244,0.631046,-0.953415,-3.455511,-2.666748,-11.306763
1790539244.8712,0.009022,-0.080320,-0.233588,0.010750,-0.083071,-0.233588,-0.790410,0.524202,-1.048118,-3.915447,-1.811608,-10.181238
1790539244.8851,-0.004471,-0.060650,-0.249052,0.000096,-0.067376,-0.249052,-1.437548,1.086349,-1.040834,-0.159304,0.382011,-4.553616
1790539244.8990,-0.014607,-0.044227,-0.258386,-0.010196,-0.051171,-0.258386,-1.382911,1.045069,-0.765223,-2.535639,-1.625708,-6.106063
1790539244.9129,-0.027179,-0.024316,-0.272974,-0.022084,-0.032372,-0.272974,-1.470330,1.289111,-0.642595,-2.305671,0.158931,-4.320748
1790539244.9269,-0.046891,-0.004743,-0.283862,-0.039449,-0.013032,-0.283862,-1.565033,1.593861,-0.665664,-1.002520,-2.146228,-13.169700
1790539244.9408,-0.047871,0.010110,-0.293361,-0.045345,0.003167,-0.293361,-1.090303,0.405216,-0.755510,-4.260399,0.828171,-13.208511
1790539244.9548,-0.016309,-0.001401,-0.293031,-0.025020,-0.000031,-0.293031,0.543932,-2.132341,-0.041595,-2.957247,-3.782148,-11.229140
1790539244.9687,-0.021367,-0.005780,-0.297805,-0.022463,-0.004055,-0.297805,0.388522,0.068898,0.456204,2.446998,1.720491,-5.756762
1790539244.9826,-0.014732,-0.015219,-0.289420,-0.017051,-0.011870,-0.289420,0.645920,-0.454397,0.343288,-1.002520,0.790991,-8.240679
1790539244.9966,-0.014574,-0.031993,-0.287848,-0.015317,-0.025956,-0.287848,1.262704,-0.057372,0.163595,0.415615,2.055111,-9.016902
1790539245.0105,-0.029316,-0.051410,-0.287782,-0.025116,-0.043774,-0.287782,1.448468,0.893301,0.412494,2.791950,2.464091,-11.966553
1790539245.0246,-0.042380,-0.066882,-0.282379,-0.037201,-0.059949,-0.282379,1.181357,0.862947,0.549693,0.645583,2.835891,-10.996273
1790539245.0382,-0.061308,-0.074816,-0.276205,-0.054076,-0.070356,-0.276205,0.734552,1.309752,0.701460,0.760567,3.021791,-7.736133
1790539245.0518,-0.071126,-0.081113,-0.266935,-0.066011,-0.077886,-0.266935,0.484439,0.748818,0.714816,-0.772552,1.869211,-10.569350
1790539245.0660,-0.060769,-0.086219,-0.256072,-0.062341,-0.083719,-0.256072,0.307174,-0.719080,0.678392,-0.657568,0.642271,-11.927742
1790539245.0801,-0.056067,-0.085376,-0.247281,-0.057949,-0.084879,-0.247281,-0.118990,-0.438613,0.620113,1.603783,0.307651,-11.035084
1790539245.0940,-0.049122,-0.084210,-0.235779,-0.051770,-0.084411,-0.235779,-0.256188,-0.745791,0.804662,4.171758,-1.885968,-11.190329
1790539245.1084,-0.046585,-0.082031,-0.224623,-0.048140,-0.082745,-0.224623,-0.310824,-0.465324,0.811947,5.474909,-1.960328,-11.694875
1790539245.1224,-0.028284,-0.066366,-0.215181,-0.034241,-0.071280,-0.215181,-1.168008,-1.530127,0.756097,2.906934,0.530731,-10.375294
1790539245.1364,-0.017986,-0.048861,-0.205352,-0.022863,-0.055586,-0.205352,-1.351344,-1.055397,0.679606,3.366870,-0.435949,-7.348021
1790539245.1503,-0.009745,-0.028803,-0.199546,-0.013680,-0.036838,-0.199546,-1.517681,-0.889060,0.456204,2.676966,0.010211,-6.416553
1790539245.1643,0.000684,-0.013387,-0.193790,-0.003625,-0.020422,-0.193790,-1.166794,-0.921842,0.259513,1.718767,0.270471,-8.046623
1790539245.1781,0.006967,0.000720,-0.196020,0.003789,-0.005623,-0.196020,-1.025954,-0.688726,0.156310,2.753622,1.088431,-8.201867
1790539245.1921,-0.010341,-0.002711,-0.196390,-0.006102,-0.003584,-0.196390,0.126267,1.134915,-0.266211,4.440053,-0.584669,-15.964105
1790539245.2061,-0.007308,-0.014004,-0.203164,-0.006946,-0.010878,-0.203164,0.828041,0.132034,-1.054189,-4.605350,2.612811,-13.868301
1790539245.2200,-0.013222,-0.019928,-0.247571,-0.011339,-0.017213,-0.247571,0.704199,0.365149,-0.980127,1.412143,2.278191,-3.428091
1790539245.2339,-0.012667,-0.026564,-0.272642,-0.012269,-0.023759,-0.272642,0.784332,-0.041589,-0.432548,0.568927,3.356411,-4.514804
1790539245.2478,-0.006382,-0.044634,-0.277076,-0.008148,-0.038371,-0.277076,1.311270,-0.264991,-0.539393,-2.382327,1.460231,-11.267951
1790539245.2614,0.016989,-0.060159,-0.286960,0.009448,-0.053623,-0.286960,1.248134,-1.466991,-0.790720,-2.918919,2.464091,-8.434735
1790539245.2749,0.029021,-0.070541,-0.304825,0.023149,-0.065465,-0.304825,0.883892,-0.827139,-0.864783,-0.082648,2.687171,-8.357112
1790539245.2891,0.027355,-0.080893,-0.313617,0.026093,-0.076265,-0.313617,0.777047,0.050686,-0.681448,2.063719,2.315371,-11.694875
1790539245.3029,0.009312,-0.084161,-0.321945,0.014346,-0.081792,-0.321945,0.157835,1.342533,-0.885423,0.415615,-0.064149,-15.498371
1790539245.3170,-0.008472,-0.076126,-0.329368,-0.001626,-0.077826,-0.329368,-0.635000,1.380172,-0.759153,-1.117504,-0.064149,-13.557812
1790539245.3309,-0.009473,-0.066928,-0.311006,-0.007119,-0.070197,-0.311006,-0.868115,0.345723,-0.689947,-3.532167,-2.406488,-9.210958
1790539245.3450,-0.012136,-0.049596,-0.306283,-0.010631,-0.055777,-0.306283,-1.370770,0.535129,-0.757939,-3.302199,-1.030829,-6.649420
1790539245.3594,-0.023256,-0.028816,-0.313357,-0.019468,-0.036904,-0.313357,-1.499469,0.991646,-0.691161,-1.500784,0.158931,-7.192776
1790539245.3735,-0.033517,-0.016772,-0.320519,-0.029302,-0.022812,-0.320519,-0.894826,1.108204,-0.704516,-3.800463,0.233291,-7.813756
1790539245.3875,-0.037364,-0.004440,-0.332058,-0.034946,-0.009951,-0.332058,-0.735774,0.597050,-0.601314,-2.343999,2.315371,-5.834385
1790539245.4014,-0.026427,-0.005886,-0.334303,-0.028983,-0.007106,-0.334303,0.026707,-0.723936,-0.339059,-0.274288,0.270471,-16.973196
1790539245.4154,-0.030580,-0.013100,-0.335114,-0.030101,-0.011302,-0.335114,0.573071,-0.071942,0.437991,7.582948,3.319231,-12.005364
1790539245.4294,-0.034425,-0.024902,-0.323314,-0.033128,-0.020822,-0.323314,0.821971,0.102894,0.895723,1.182175,1.534591,-11.073895
1790539245.4433,-0.031401,-0.037327,-0.309985,-0.031919,-0.032375,-0.309985,0.847468,-0.317199,0.862941,0.032335,0.902531,-11.267951
1790539245.4572,-0.038062,-0.046130,-0.303511,-0.036219,-0.042003,-0.303511,0.683558,0.325082,0.708745,1.143847,1.683311,-7.348021
1790539245.4712,-0.057796,-0.051314,-0.297764,-0.051323,-0.048521,-0.297764,0.468655,1.205335,0.889652,2.217030,2.724351,-8.240679
1790539245.4850,-0.064570,-0.061213,-0.287821,-0.060596,-0.057405,-0.287821,0.719983,0.462280,0.913935,-0.389272,1.534591,-8.667602
1790539245.4986,-0.071379,-0.064733,-0.282388,-0.068144,-0.062535,-0.282388,0.415233,0.383361,0.882367,0.990535,3.542311,-7.658511
1790539245.5123,-0.068541,-0.069606,-0.272358,-0.068422,-0.067485,-0.272358,0.372738,-0.184857,1.008638,-1.232488,2.092291,-9.560259
1790539245.5261,-0.057853,-0.069329,-0.255466,-0.061024,-0.068776,-0.255466,-0.087422,-0.868419,1.161620,0.453943,1.199971,-13.402567
1790539245.5400,-0.049761,-0.062001,-0.236175,-0.053139,-0.064034,-0.236175,-0.590077,-0.750648,1.225970,1.642111,1.162791,-12.898021
1790539245.5539,-0.042841,-0.057598,-0.213012,-0.045931,-0.059528,-0.213012,-0.432238,-0.726365,1.200473,2.446998,-0.138509,-11.423196
1790539245.5680,-0.037375,-0.049951,-0.187093,-0.039942,-0.052824,-0.187093,-0.662925,-0.716652,1.138551,3.405198,-0.324409,-8.512357
1790539245.5825,-0.032419,-0.036313,-0.168848,-0.034676,-0.041267,-0.168848,-1.039309,-0.552742,0.842301,1.795423,-0.026969,-8.318301
1790539245.5965,-0.026893,-0.021812,-0.154186,-0.029228,-0.027648,-0.154186,-1.152224,-0.539387,0.536337,1.450471,-0.324409,-10.646972
1790539245.6104,-0.019501,-0.008417,-0.147133,-0.022419,-0.014187,-0.147133,-1.035667,-0.621949,0.134456,0.952207,0.270471,-7.852567
1790539245.6245,-0.020472,-0.003053,-0.147958,-0.021056,-0.006393,-0.147958,-0.424953,0.032474,-0.209146,1.373815,0.865351,-10.724595
1790539245.6385,-0.023702,-0.011975,-0.154402,-0.022908,-0.010301,-0.154402,0.593712,0.383361,-0.704516,-0.619240,0.679451,-11.462007
1790539245.6523,-0.018029,-0.025164,-0.172613,-0.019493,-0.020705,-0.172613,1.008948,-0.126579,-1.180460,-1.769080,1.832031,-9.055714
1790539245.6663,-0.020075,-0.025115,-0.219056,-0.019900,-0.023792,-0.219056,0.361811,0.077397,-0.920634,1.987063,3.951291,-4.126693
1790539245.6802,-0.017835,-0.029147,-0.227062,-0.018455,-0.027540,-0.227062,0.312031,-0.159360,-0.624383,1.680439,1.869211,-11.850119
1790539245.6940,-0.006661,-0.039891,-0.239122,-0.010199,-0.036186,-0.239122,0.786760,-0.624377,-0.878139,-1.807408,1.608951,-13.014455
1790539245.7078,0.005389,-0.050116,-0.261935,0.000713,-0.045937,-0.261935,0.864466,-0.647446,-1.085757,-1.730752,2.910251,-8.745224
1790539245.7214,0.017987,-0.056799,-0.285976,0.012805,-0.053541,-0.285976,0.665346,-0.700868,-1.144036,-1.270816,2.464091,-5.601518
1790539245.7349,0.021668,-0.063712,-0.301040,0.019009,-0.060661,-0.301040,0.607067,-0.218853,-0.927918,0.185647,1.906391,-6.532986
1790539245.7489,0.016223,-0.073234,-0.318480,0.017059,-0.069462,-0.318480,0.760049,0.499919,-0.810147,-0.810880,2.464091,-9.521448
1790539245.7629,0.001695,-0.075449,-0.326532,0.006304,-0.073653,-0.326532,0.093485,1.096063,-0.722728,-0.005993,0.010211,-18.603266
1790539245.7768,-0.005731,-0.066060,-0.334489,-0.002121,-0.068338,-0.334489,-0.762485,0.769458,-0.642595,-4.567022,-0.844929,-14.566903
1790539245.7907,-0.007244,-0.057062,-0.336666,-0.005707,-0.060445,-0.336666,-0.783125,0.396717,-0.578245,-4.375383,-1.476988,-10.491728
1790539245.8047,-0.017154,-0.041553,-0.345520,-0.013720,-0.047220,-0.345520,-1.157081,0.998931,-0.544250,-1.999048,0.158931,-5.174595
1790539245.8185,-0.017807,-0.029505,-0.339444,-0.016581,-0.034820,-0.339444,-1.087875,0.436783,-0.526037,-1.922392,-0.993649,-2.962357
1790539245.8327,-0.027407,-0.019277,-0.349234,-0.024159,-0.023940,-0.349234,-0.777055,0.900586,-0.493256,-1.692424,0.196111,-7.115154
1790539245.8467,-0.036587,-0.006291,-0.356375,-0.032859,-0.011585,-0.356375,-0.933679,0.828951,-0.345130,-2.190688,1.683311,-13.402567
1790539245.8606,-0.024249,-0.010470,-0.356831,-0.026832,-0.010805,-0.356831,0.071631,-0.703296,-0.079233,-5.946830,-5.120628,-19.728791
1790539245.8745,-0.028431,-0.019165,-0.345442,-0.027952,-0.016657,-0.345442,0.513578,-0.040374,0.729386,4.785005,-0.473129,-10.724595
1790539245.8884,-0.028162,-0.028730,-0.331333,-0.028099,-0.025108,-0.331333,0.780690,-0.103510,0.760953,-0.082648,2.575631,-8.046623
1790539245.9023,-0.020443,-0.041908,-0.324868,-0.022740,-0.036868,-0.324868,0.834112,-0.458039,0.406424,-1.309144,-0.361589,-5.329839
1790539245.9162,-0.033625,-0.047362,-0.318935,-0.030360,-0.044214,-0.318935,0.450443,0.759745,0.339646,2.255358,1.646131,-7.503266
1790539245.9301,-0.046896,-0.058706,-0.313405,-0.041935,-0.054359,-0.313405,0.825613,0.895729,0.459846,0.760567,1.683311,-12.238231
1790539245.9440,-0.061775,-0.068191,-0.301792,-0.055823,-0.064041,-0.301792,0.774619,0.963721,0.699032,1.297159,2.984611,-9.948371
1790539245.9576,-0.077546,-0.074149,-0.290281,-0.071029,-0.071117,-0.290281,0.531791,1.079065,0.726957,1.067191,2.798711,-9.210958
1790539245.9712,-0.084908,-0.082877,-0.281298,-0.080744,-0.079349,-0.281298,0.617995,0.547270,0.725743,-0.235960,1.199971,-10.181238
1790539245.9851,-0.079252,-0.091411,-0.272414,-0.079700,-0.087793,-0.272414,0.540290,-0.374264,0.709959,-0.772552,0.419191,-11.500819
1790539245.9991,-0.073363,-0.091245,-0.261128,-0.075264,-0.090209,-0.261128,-0.036428,-0.489607,0.711173,1.067191,1.199971,-10.918651
1790539246.0130,-0.061270,-0.093122,-0.247751,-0.065469,-0.092248,-0.247751,-0.043713,-1.037185,0.894509,2.791950,-1.662888,-11.462007
1790539246.0270,-0.054236,-0.092660,-0.234238,-0.057606,-0.092536,-0.234238,-0.205194,-0.749433,0.821660,3.980118,-1.737248,-10.258860
1790539246.0410,-0.043859,-0.087172,-0.222911,-0.047983,-0.088781,-0.222911,-0.518442,-0.981335,0.678392,3.865134,-1.030829,-10.491728
1790539246.0549,-0.037060,-0.075828,-0.214022,-0.040337,-0.079714,-0.214022,-0.897255,-0.711795,0.560620,2.945262,-0.250049,-8.667602
1790539246.0691,-0.027300,-0.058990,-0.205190,-0.031211,-0.065207,-0.205190,-1.260283,-0.954623,0.529052,3.903462,-0.064149,-9.599070
1790539246.0834,-0.012881,-0.034406,-0.201210,-0.018380,-0.043646,-0.201210,-1.710730,-1.232662,0.276511,2.561982,0.939711,-7.270399
1790539246.0974,0.000684,-0.009363,-0.194783,-0.005035,-0.019648,-0.194783,-1.844285,-1.242375,0.218232,2.561982,0.307651,-6.300119
1790539246.1114,-0.014815,-0.001313,-0.197734,-0.011881,-0.006813,-0.197734,-0.592505,1.023214,-0.031882,2.063719,1.497411,-11.850119
1790539246.1254,-0.030796,-0.016131,-0.210949,-0.025122,-0.013336,-0.210949,1.075726,1.259972,-0.745797,0.683911,2.798711,-19.069001
1790539246.1394,-0.024670,-0.029224,-0.230190,-0.024806,-0.024457,-0.230190,1.050229,-0.116865,-1.229026,-3.263871,3.579491,-12.432287
1790539246.1534,-0.033507,-0.028558,-0.243619,-0.030896,-0.027328,-0.243619,0.166334,0.308084,-0.455617,4.631693,2.947431,-4.437182
1790539246.1674,-0.028625,-0.042342,-0.247115,-0.029306,-0.037838,-0.247115,0.956740,-0.131435,-0.563676,-2.612295,0.493551,-11.112707
1790539246.1809,-0.006593,-0.062639,-0.258194,-0.013407,-0.055199,-0.258194,1.552884,-1.298226,-0.870854,-4.222071,1.832031,-9.909560
1790539246.1946,0.009875,-0.076168,-0.278788,0.002890,-0.069877,-0.278788,1.208068,-1.128246,-0.960700,-0.120976,3.282051,-6.882287
1790539246.2085,0.019347,-0.081758,-0.297161,0.014410,-0.078194,-0.297161,0.609496,-0.628019,-0.879353,0.032335,3.282051,-6.649420
1790539246.2225,0.028825,-0.096900,-0.312969,0.024501,-0.091288,-0.312969,1.177714,-0.551528,-0.711801,-1.654096,2.464091,-9.599070
1790539246.2365,0.008407,-0.098909,-0.320215,0.013235,-0.096623,-0.320215,0.100770,1.434808,-0.765223,1.757095,0.493551,-16.740329
1790539246.2504,-0.002993,-0.084593,-0.331751,0.001875,-0.088202,-0.331751,-1.119443,1.082707,-0.832001,-6.138470,-1.068009,-17.089630
1790539246.2643,-0.004638,-0.072006,-0.340568,-0.002684,-0.076865,-0.340568,-1.034453,0.462280,-0.966771,-5.563550,-1.700068,-11.151518
1790539246.2782,-0.016186,-0.056990,-0.345457,-0.012136,-0.062952,-0.345457,-1.297922,1.069351,-0.738512,-2.535639,-2.592388,-8.939280
1790539246.2920,-0.026625,-0.037357,-0.336491,-0.022278,-0.045035,-0.336491,-1.548035,1.366816,-0.723943,-2.458983,-0.547489,-1.371098
1790539246.3060,-0.030446,-0.019055,-0.357838,-0.027995,-0.026849,-0.357838,-1.422978,0.780386,-0.937632,-3.570495,-0.621849,-4.631238
1790539246.3198,-0.046728,-0.005358,-0.364552,-0.041108,-0.011805,-0.364552,-0.849903,1.331606,-0.682662,-0.235960,2.092291,-6.067252
1790539246.3343,-0.024212,-0.006837,-0.371028,-0.029281,-0.008327,-0.371028,0.030350,-1.424496,-0.383983,-3.148887,0.456371,-21.281238
1790539246.3482,-0.018141,-0.012303,-0.363060,-0.021483,-0.011111,-0.363060,0.377595,-0.618306,0.516911,2.523654,1.906391,-14.062357
1790539246.3621,-0.021886,-0.019510,-0.344638,-0.021765,-0.016990,-0.344638,0.571857,0.005763,1.120339,1.757095,2.241011,-8.939280
1790539246.3761,-0.015127,-0.033690,-0.331665,-0.017118,-0.028680,-0.331665,1.035660,-0.434971,0.827731,-2.420655,1.571771,-8.861658
1790539246.3900,-0.027476,-0.040020,-0.312928,-0.024369,-0.036618,-0.312928,0.665346,0.621333,0.598258,2.140375,2.873071,-5.213406
1790539246.4039,-0.041385,-0.054160,-0.302837,-0.036280,-0.048897,-0.302837,1.012591,0.831380,0.692961,2.446998,1.497411,-12.354665
1790539246.4176,-0.060629,-0.064421,-0.286278,-0.053325,-0.059764,-0.286278,0.887534,1.219905,0.968572,1.872079,3.356411,-8.318301
1790539246.4313,-0.070333,-0.071749,-0.272556,-0.065231,-0.068153,-0.272556,0.616781,0.675969,1.083915,-0.389272,3.058971,-9.327392
1790539246.4452,-0.069406,-0.073643,-0.261874,-0.068153,-0.071996,-0.261874,0.225827,-0.030661,1.015923,-1.270816,3.021791,-8.473546
1790539246.4591,-0.057379,-0.078734,-0.256283,-0.060612,-0.076713,-0.256283,0.157835,-0.895131,0.958858,-0.427600,-2.071868,-12.238231
1790539246.4730,-0.049053,-0.079380,-0.245694,-0.052520,-0.078580,-0.245694,-0.072852,-0.696011,0.841087,1.182175,-0.696209,-13.402567
1790539246.4869,-0.041740,-0.077527,-0.234996,-0.044974,-0.077843,-0.234996,-0.304753,-0.686298,0.860513,2.178703,-1.811608,-11.850119
1790539246.5007,-0.030431,-0.069919,-0.219347,-0.034794,-0.072296,-0.219347,-0.622859,-1.077252,0.822874,2.523654,0.047391,-7.464455
1790539246.5147,-0.021723,-0.059013,-0.204022,-0.025644,-0.062998,-0.204022,-0.842618,-0.919413,0.786450,2.945262,0.121751,-7.386832
1790539246.5285,-0.011338,-0.044712,-0.193146,-0.015630,-0.050198,-0.193146,-1.090303,-0.915771,0.589759,1.488799,0.270471,-9.133336
1790539246.5424,-0.002105,-0.027899,-0.186087,-0.006162,-0.034588,-0.186087,-1.273639,-0.822282,0.302008,1.910407,0.196111,-10.181238
1790539246.5563,0.007612,-0.010880,-0.184538,0.003480,-0.017993,-0.184538,-1.267568,-0.857492,-0.097445,2.715294,0.753811,-10.297672
1790539246.5704,-0.008338,-0.014555,-0.194824,-0.004793,-0.015586,-0.194824,0.235540,1.086349,-0.631668,4.018446,1.794851,-15.808861
1790539246.5855,-0.011028,-0.029642,-0.217474,-0.009157,-0.025425,-0.217474,1.011377,0.499919,-1.242381,-3.992103,2.055111,-14.566903
1790539246.6006,-0.018288,-0.032506,-0.242261,-0.015548,-0.030382,-0.242261,0.539075,0.520559,-0.727585,0.645583,4.174371,-4.126693
1790539246.6152,-0.017141,-0.049509,-0.251959,-0.016664,-0.043770,-0.251959,1.072084,0.102894,-0.551534,-2.305671,-0.807749,-11.850119
1790539246.6295,0.001944,-0.072503,-0.267593,-0.003638,-0.063883,-0.267593,1.601450,-1.089393,-0.929133,-3.953775,0.902531,-13.363756
1790539246.6443,0.014579,-0.090182,-0.287150,0.009114,-0.082292,-0.287150,1.316126,-0.685084,-1.263022,-1.194160,2.426911,-7.348021
1790539246.6580,0.023059,-0.098944,-0.291548,0.018876,-0.093948,-0.291548,0.854752,-0.739720,-1.122181,1.642111,2.724351,-5.135783
1790539246.6717,0.029715,-0.111304,-0.297815,0.026463,-0.106097,-0.297815,0.955526,-0.507819,-0.626811,0.338959,1.162791,-6.843476
1790539246.6856,0.020325,-0.117760,-0.313606,0.022167,-0.114261,-0.313606,0.405520,0.788885,-0.830787,-2.573967,-0.175689,-16.779140
1790539246.6996,0.012364,-0.105617,-0.332523,0.015304,-0.108210,-0.332523,-0.954319,0.752460,-0.830787,-4.413711,-0.993649,-16.934385
1790539246.7135,0.011456,-0.090851,-0.358899,0.012611,-0.096059,-0.358899,-1.212932,0.479278,-0.958272,-6.598406,-1.848788,-8.745224
1790539246.7275,0.002051,-0.074574,-0.379621,0.005219,-0.081019,-0.379621,-1.444833,1.024428,-1.029906,-2.267343,-1.848788,-4.087881
1790539246.7415,-0.009475,-0.051261,-0.396714,-0.005067,-0.060188,-0.396714,-1.699803,0.924868,-1.033549,-0.005993,0.196111,-3.971448
1790539246.7554,-0.024075,-0.030119,-0.413055,-0.018373,-0.039140,-0.413055,-1.743512,1.100919,-0.823502,0.377287,-0.956469,-3.544525
1790539246.7694,-0.037549,-0.004107,-0.427093,-0.031796,-0.014617,-0.427093,-1.875853,1.167697,-0.790720,-1.194160,0.976891,-11.035084
1790539246.7834,-0.040571,0.007914,-0.437924,-0.037939,0.001154,-0.437924,-0.887542,0.487777,-0.747011,-3.570495,1.237151,-16.585084
1790539246.7974,-0.014239,-0.008756,-0.414589,-0.021349,-0.005783,-0.414589,1.245706,-1.567765,0.066464,-6.023486,2.017931,-8.318301
1790539246.8114,-0.016226,-0.012386,-0.400554,-0.017763,-0.010405,-0.400554,0.288962,-0.187286,0.645610,3.098574,1.460231,-7.153965
1790539246.8255,-0.011821,-0.016330,-0.378837,-0.013604,-0.014552,-0.378837,0.537861,-0.340268,0.322648,-0.312616,4.992331,-7.619700
1790539246.8399,-0.012867,-0.030886,-0.372626,-0.013088,-0.025986,-0.372626,1.046587,-0.160575,0.117458,3.865134,1.757671,-9.599070
1790539246.8538,-0.022784,-0.049894,-0.365041,-0.019875,-0.042722,-0.365041,1.391403,0.493848,0.357858,3.788478,1.869211,-11.617252
1790539246.8676,-0.043506,-0.062352,-0.354179,-0.036417,-0.056463,-0.354179,1.011377,1.334034,0.581260,2.906934,3.839751,-12.548721
1790539246.8811,-0.051524,-0.067785,-0.344636,-0.046992,-0.064388,-0.344636,0.545146,0.572767,0.735456,-0.312616,4.062831,-10.724595
1790539246.8948,-0.059844,-0.067629,-0.330866,-0.055989,-0.066657,-0.330866,0.105627,0.479278,0.739099,1.335487,2.798711,-8.046623
1790539246.9088,-0.065508,-0.071548,-0.319698,-0.062653,-0.070080,-0.319698,0.246467,0.309298,0.712388,0.875551,0.716631,-7.774944
1790539246.9226,-0.065945,-0.075248,-0.311347,-0.064957,-0.073698,-0.311347,0.324172,0.015476,0.712388,-0.120976,2.166651,-8.667602
1790539246.9366,-0.057462,-0.076923,-0.302739,-0.059711,-0.075955,-0.302739,0.116554,-0.625591,0.697818,-0.235960,1.794851,-12.587532
1790539246.9506,-0.042620,-0.071155,-0.288456,-0.047747,-0.072595,-0.288456,-0.435881,-1.181668,0.679606,2.255358,1.571771,-16.119350
1790539246.9645,-0.026327,-0.058835,-0.271904,-0.032753,-0.062963,-0.271904,-0.957962,-1.468206,0.618899,3.328542,0.047391,-7.852567
1790539246.9785,-0.019551,-0.045419,-0.258995,-0.023511,-0.050682,-0.258995,-1.035667,-0.857492,0.627398,3.596838,-0.064149,-6.183686
1790539246.9925,0.001204,-0.029723,-0.246436,-0.006211,-0.036011,-0.246436,-1.182578,-1.612688,0.484129,0.338959,0.047391,-3.234035
1790539247.0066,0.018346,-0.016444,-0.234414,0.010979,-0.022314,-0.234414,-0.938535,-1.411141,0.444062,1.680439,1.274331,-9.599070
1790539247.0206,0.010783,-0.012180,-0.229258,0.010842,-0.015220,-0.229258,-0.335107,0.402787,0.184236,2.945262,1.571771,-16.701518
1790539247.0345,-0.001422,-0.015373,-0.237635,0.002257,-0.015327,-0.237635,0.172405,0.869018,-0.730013,2.217030,0.790991,-11.423196
1790539247.0483,0.000987,-0.017756,-0.262716,0.001368,-0.017027,-0.262716,0.231897,0.095609,-1.153749,-1.807408,2.464091,-9.676693
1790539247.0623,-0.004369,-0.025771,-0.276758,-0.002648,-0.023148,-0.276758,0.440730,0.514488,-1.144036,0.377287,-0.621849,-8.124245
1790539247.0764,-0.000101,-0.035885,-0.308084,-0.000865,-0.032064,-0.308084,0.802544,0.026403,-0.796791,-2.842263,1.943571,-6.727042
1790539247.0913,0.010781,-0.059417,-0.326368,0.007287,-0.051211,-0.326368,1.510389,-0.515104,-0.919419,-2.229015,-0.138509,-9.715504
1790539247.1049,0.025988,-0.075551,-0.350878,0.020377,-0.068249,-0.350878,1.288201,-0.857492,-1.215670,-2.688951,2.910251,-9.094525
1790539247.1187,0.039159,-0.082261,-0.362625,0.033524,-0.078057,-0.362625,0.556073,-0.958266,-1.161034,0.875551,2.352551,-8.784035
1790539247.1326,0.044446,-0.090060,-0.375985,0.041170,-0.086459,-0.375985,0.696914,-0.328126,-0.862355,-0.312616,3.170511,-8.279490
1790539247.1465,0.028200,-0.096480,-0.385016,0.032091,-0.093473,-0.385016,0.360597,1.172553,-0.799219,0.645583,-0.547489,-13.130889
1790539247.1603,0.021247,-0.088417,-0.408412,0.024500,-0.089934,-0.408412,-0.678709,0.745175,-0.804076,-4.873646,-0.696209,-14.062357
1790539247.1741,0.020139,-0.082208,-0.434895,0.021447,-0.084526,-0.434895,-0.626501,0.387004,-0.926704,-5.026958,-2.183408,-11.112707
1790539247.1882,0.009312,-0.068989,-0.458761,0.012953,-0.073650,-0.458761,-1.076948,1.062067,-1.004409,-2.918919,-0.844929,-7.697322
1790539247.2021,-0.003184,-0.050681,-0.480976,0.001657,-0.057572,-0.480976,-1.436334,1.187123,-1.014122,-1.539112,-0.398769,-4.747672
1790539247.2160,-0.014834,-0.034197,-0.499170,-0.009887,-0.041209,-0.499170,-1.402338,1.051139,-0.717872,-1.309144,-1.588528,-6.688231
1790539247.2300,-0.024905,-0.015252,-0.509375,-0.020400,-0.023039,-0.509375,-1.356200,0.986790,-0.648666,-2.037376,0.828171,-7.153965
1790539247.2439,-0.032658,0.003043,-0.517782,-0.028980,-0.004782,-0.517782,-1.301564,0.782814,-0.543035,-2.229015,1.832031,-11.073895
1790539247.2577,-0.018874,-0.002048,-0.524780,-0.021906,-0.002868,-0.524780,0.229469,-0.870848,-0.158152,-3.263871,-1.291089,-18.603266
1790539247.2715,-0.019992,-0.017852,-0.513699,-0.020566,-0.013357,-0.513699,1.061157,-0.212783,0.768238,4.899989,0.196111,-15.537182
1790539247.2856,-0.028641,-0.028046,-0.459185,-0.026218,-0.023639,-0.459185,1.061157,0.292300,0.866584,1.795423,3.244871,-3.466902
1790539247.2994,-0.023772,-0.036999,-0.457875,-0.024506,-0.032991,-0.457875,0.815900,-0.061015,0.146597,-3.148887,2.426911,-4.980539
1790539247.3134,-0.031202,-0.054440,-0.448359,-0.029194,-0.048005,-0.448359,1.279702,0.320226,0.185450,2.945262,1.311511,-8.163056
1790539247.3274,-0.048466,-0.071371,-0.439514,-0.042684,-0.064361,-0.439514,1.262704,1.115489,0.336004,2.217030,2.166651,-11.539630
1790539247.3417,-0.062506,-0.087738,-0.429935,-0.056560,-0.080725,-0.429935,1.166787,0.977077,0.726957,-0.274288,1.794851,-11.617252
1790539247.3555,-0.059184,-0.094514,-0.416330,-0.058397,-0.090377,-0.416330,0.582785,-0.260134,0.689319,0.032335,2.984611,-10.802217
1790539247.3695,-0.049550,-0.096157,-0.406332,-0.052204,-0.094423,-0.406332,0.078916,-0.727579,0.692961,0.415615,0.642271,-11.617252
1790539247.3833,-0.041206,-0.099074,-0.392786,-0.044505,-0.097678,-0.392786,0.101984,-0.790714,0.864155,2.600310,-0.696209,-9.987182
1790539247.3975,-0.032392,-0.097603,-0.378216,-0.036026,-0.097626,-0.378216,-0.199123,-0.823496,0.878725,2.638638,-0.584669,-9.482637
1790539247.4118,-0.026987,-0.091414,-0.363809,-0.029698,-0.093278,-0.363809,-0.535440,-0.676585,0.889652,4.516709,-0.882109,-9.676693
1790539247.4259,-0.010446,-0.075401,-0.353016,-0.016222,-0.080764,-0.353016,-1.187435,-1.271515,0.637111,0.683911,0.121751,-9.055714
1790539247.4400,-0.007221,-0.053095,-0.345832,-0.009921,-0.061396,-0.345832,-1.673091,-0.539387,0.480486,4.210086,-0.547489,-8.667602
1790539247.4540,0.002379,-0.029368,-0.338400,-0.001311,-0.038976,-0.338400,-1.765366,-0.920627,0.337218,2.906934,-0.064149,-9.055714
1790539247.4678,0.013077,-0.008344,-0.332539,0.008760,-0.017533,-0.332539,-1.571104,-1.029900,0.242515,2.906934,0.382011,-8.318301
1790539247.4819,0.014329,0.004750,-0.328527,0.012658,-0.001935,-0.328527,-1.011384,-0.172716,0.108959,0.837223,0.307651,-9.987182
1790539247.4958,0.001341,-0.007283,-0.341303,0.004736,-0.005678,-0.341303,0.808615,1.171339,-0.529680,-4.107087,1.274331,-15.925294
1790539247.5098,0.004409,-0.018991,-0.364223,0.004507,-0.014997,-0.364223,0.851110,0.157531,-1.142822,-7.134997,3.356411,-18.292777
1790539247.5239,0.001245,-0.022787,-0.376751,0.002223,-0.020450,-0.376751,0.367881,0.325082,-0.747011,-0.005993,2.241011,-6.959909
1790539247.5378,0.005953,-0.032769,-0.390880,0.004834,-0.029073,-0.390880,0.747908,-0.052516,-0.490827,-2.957247,1.423051,-7.153965
1790539247.5518,0.019831,-0.053222,-0.406299,0.015332,-0.045978,-0.406299,1.420543,-0.734864,-0.884209,-3.263871,0.642271,-10.685784
1790539247.5655,0.037650,-0.066502,-0.417802,0.030955,-0.060345,-0.417802,1.200783,-1.136745,-1.034763,-1.270816,3.876931,-6.610609
1790539247.5794,0.036024,-0.071075,-0.420466,0.034503,-0.067856,-0.420466,0.570643,-0.008807,-0.832001,2.255358,4.248731,-6.377742
1790539247.5940,0.047422,-0.081870,-0.434498,0.043546,-0.077666,-0.434498,0.712698,-0.672943,-0.897565,-1.194160,1.051251,-10.103616
1790539247.6081,0.037216,-0.094107,-0.443939,0.039115,-0.089174,-0.443939,0.744265,0.665042,-0.924276,2.255358,-0.844929,-13.674245
1790539247.6220,0.018971,-0.082939,-0.458791,0.025014,-0.084810,-0.458791,-0.790410,1.397170,-0.903636,-1.155832,2.761531,-17.982287
1790539247.6359,0.014294,-0.071152,-0.495060,0.017510,-0.075249,-0.495060,-1.056307,0.723321,-0.912135,-5.103614,-2.220588,-8.240679
1790539247.6498,0.008129,-0.058779,-0.517328,0.010943,-0.063720,-0.517328,-1.041738,0.745175,-0.864783,-2.037376,-0.696209,-5.096972
1790539247.6637,-0.002989,-0.041749,-0.533338,0.001191,-0.048341,-0.533338,-1.381697,0.952794,-0.636524,-0.542584,-0.510309,-4.204315
1790539247.6775,-0.012456,-0.021847,-0.544779,-0.008362,-0.029795,-0.544779,-1.500683,1.046283,-0.617098,-3.992103,0.158931,-7.969000
1790539247.6915,-0.021338,-0.003627,-0.549466,-0.017445,-0.011477,-0.549466,-1.221431,0.835022,-0.519967,-1.692424,2.538451,-8.900469
1790539247.7054,-0.007887,-0.008315,-0.555679,-0.010754,-0.009263,-0.555679,0.211257,-0.898773,-0.039166,-2.612295,-1.105189,-21.281238
1790539247.7192,-0.011473,-0.014533,-0.534302,-0.011258,-0.012952,-0.534302,0.469869,-0.126579,0.835016,4.861661,1.720491,-10.064805
1790539247.7330,-0.015265,-0.023793,-0.512616,-0.014063,-0.020541,-0.512616,0.684772,-0.102296,1.126410,3.711822,1.534591,-9.366203
1790539247.7470,-0.009878,-0.031290,-0.496563,-0.011133,-0.028065,-0.496563,0.777047,-0.269847,0.408852,-1.500784,2.687171,-4.320748
1790539247.7608,-0.022176,-0.041789,-0.486113,-0.018863,-0.037672,-0.486113,0.786760,0.673541,0.412494,3.520182,1.869211,-11.423196
1790539247.7746,-0.040587,-0.054874,-0.478513,-0.034070,-0.049714,-0.478513,0.950670,1.227190,0.549693,1.565455,1.534591,-12.703965
1790539247.7882,-0.053218,-0.064580,-0.469318,-0.047473,-0.060120,-0.469318,0.770977,0.899372,0.668678,-0.082648,2.017931,-8.900469
1790539247.8018,-0.057302,-0.072067,-0.457724,-0.054354,-0.068483,-0.457724,0.653205,0.287444,0.742741,-0.350944,3.021791,-9.715504
1790539247.8153,-0.053502,-0.076763,-0.444461,-0.053757,-0.074279,-0.444461,0.353312,-0.337839,0.883582,0.223975,2.017931,-12.354665
1790539247.8294,-0.047614,-0.075771,-0.428051,-0.049457,-0.075323,-0.428051,-0.069210,-0.543029,0.882367,1.373815,1.683311,-11.306763
1790539247.8437,-0.041208,-0.076296,-0.410275,-0.043682,-0.076004,-0.410275,-0.055854,-0.687512,0.889652,3.136902,-0.250049,-9.754315
1790539247.8579,-0.032816,-0.072853,-0.392430,-0.036076,-0.073798,-0.392430,-0.297468,-0.856278,0.819232,3.558510,0.270471,-9.560259
1790539247.8720,-0.025217,-0.065883,-0.378471,-0.028475,-0.068257,-0.378471,-0.542725,-0.805284,0.607971,3.443526,0.270471,-8.900469
1790539247.8860,-0.018529,-0.055277,-0.368998,-0.021513,-0.059171,-0.368998,-0.773412,-0.734864,0.351787,4.171758,0.939711,-10.530539
1790539247.8999,-0.013105,-0.041218,-0.363173,-0.015627,-0.046604,-0.363173,-1.013812,-0.615878,0.140527,3.826806,1.125611,-10.297672
1790539247.9139,-0.007712,-0.024118,-0.361300,-0.010087,-0.030864,-0.361300,-1.202004,-0.615878,-0.025811,3.175230,1.311511,-7.658511
1790539247.9277,0.001551,-0.006262,-0.362780,-0.001940,-0.013643,-0.362780,-1.216574,-0.788286,-0.143583,1.412143,1.869211,-6.532986
1790539247.9416,-0.006540,-0.005862,-0.363447,-0.005160,-0.008196,-0.363447,-0.154200,0.518131,-0.495684,2.983590,-0.584669,-12.238231
1790539247.9556,-0.011993,-0.020859,-0.389277,-0.009943,-0.017060,-0.389277,1.058728,0.718464,-1.202315,-3.608823,1.608951,-14.528091
1790539247.9695,0.005573,-0.036301,-0.420677,0.000918,-0.030529,-0.420677,1.168001,-0.909700,-1.532561,-2.957247,2.315371,-10.103616
1790539247.9836,0.002782,-0.042964,-0.444524,0.002223,-0.039234,-0.444524,0.700556,-0.065871,-0.840500,3.941790,3.058971,-4.165504
1790539247.9979,0.007959,-0.055542,-0.452513,0.006238,-0.050649,-0.452513,0.834112,-0.302629,-0.842928,0.338959,0.456371,-11.850119
1790539248.0119,0.026844,-0.076516,-0.472707,0.020662,-0.068756,-0.472707,1.427827,-1.106391,-1.128252,-3.302199,0.047391,-12.082986
1790539248.0256,0.049645,-0.095468,-0.497483,0.040950,-0.087455,-0.497483,1.438755,-1.481561,-1.207171,-2.037376,2.241011,-9.327392
1790539248.0393,0.049802,-0.108844,-0.510131,0.047146,-0.102427,-0.510131,1.022304,-0.036732,-0.959486,0.645583,2.017931,-9.055714
1790539248.0532,0.033210,-0.114944,-0.526288,0.037391,-0.111189,-0.526288,0.390950,1.280612,-0.946131,-1.462456,0.605091,-14.334035
1790539248.0672,0.024288,-0.114005,-0.542583,0.028219,-0.113160,-0.542583,-0.188196,0.797384,-0.858712,-4.145415,-1.923148,-17.594175
1790539248.0813,0.021571,-0.109430,-0.558576,0.023565,-0.110549,-0.558576,-0.507515,0.401573,-0.855070,-3.608823,-2.592388,-10.879840
1790539248.0960,0.004570,-0.093487,-0.572613,0.010268,-0.098605,-0.572613,-1.178936,1.250259,-0.861141,-0.810880,-0.621849,-9.210958
1790539248.1101,-0.000283,-0.076242,-0.590435,0.002882,-0.082951,-0.590435,-1.324633,0.652901,-0.753082,-1.424128,-0.287229,-3.039979
1790539248.1241,-0.011355,-0.058428,-0.603697,-0.007084,-0.065785,-0.603697,-1.378055,0.949151,-0.723943,-0.695896,-0.324409,-5.096972
1790539248.1381,-0.017466,-0.033075,-0.613159,-0.014351,-0.042888,-0.613159,-1.853999,0.577624,-0.449546,-1.117504,0.233291,-7.969000
1790539248.1521,-0.029965,-0.011105,-0.622845,-0.025281,-0.020640,-0.622845,-1.726514,1.081493,-0.427692,-2.037376,-1.439808,-11.694875
1790539248.1660,-0.022104,-0.010779,-0.624812,-0.023057,-0.013738,-0.624812,-0.229476,-0.419187,-0.154510,-4.145415,-4.228308,-20.078091
1790539248.1800,-0.014308,-0.016101,-0.616792,-0.016933,-0.015392,-0.616792,0.251324,-0.739720,0.456204,2.676966,-0.919289,-13.829490
1790539248.1939,-0.016327,-0.023376,-0.594406,-0.016509,-0.020981,-0.594406,0.608282,-0.285631,0.849586,5.436581,2.724351,-8.551168
1790539248.2078,-0.010709,-0.034998,-0.587834,-0.012449,-0.030793,-0.587834,0.846253,-0.438613,0.428278,-0.274288,1.014071,-7.115154
1790539248.2217,-0.019628,-0.045044,-0.577278,-0.017474,-0.040769,-0.577278,0.831684,0.346937,0.482915,3.788478,2.575631,-8.085434
1790539248.2357,-0.031892,-0.060584,-0.569827,-0.027566,-0.054640,-0.569827,1.171643,0.717250,0.571547,2.561982,2.947431,-13.014455
1790539248.2494,-0.048797,-0.071339,-0.562709,-0.042428,-0.066329,-0.562709,0.955526,1.100919,0.733028,1.488799,3.542311,-8.434735
1790539248.2630,-0.064105,-0.076303,-0.554779,-0.057602,-0.073311,-0.554779,0.508722,1.008644,0.818018,1.297159,3.653851,-9.172147
1790539248.2767,-0.060831,-0.082344,-0.546630,-0.059863,-0.079634,-0.546630,0.432231,-0.228566,0.815590,-0.810880,1.534591,-11.694875
1790539248.2907,-0.054771,-0.085240,-0.534114,-0.056299,-0.083558,-0.534114,0.182118,-0.512676,0.843515,0.798895,1.125611,-10.763406
1790539248.3046,-0.046840,-0.086444,-0.518607,-0.049677,-0.085578,-0.518607,0.009709,-0.677799,0.886010,1.220503,0.121751,-11.500819
1790539248.3185,-0.040187,-0.087856,-0.496672,-0.043034,-0.087172,-0.496672,-0.047355,-0.671728,0.929719,2.638638,-1.328269,-10.841028
1790539248.3324,-0.032120,-0.084613,-0.475169,-0.035394,-0.085381,-0.475169,-0.352105,-0.851421,0.816804,3.520182,-0.807749,-8.900469
1790539248.3472,-0.017821,-0.071403,-0.459165,-0.023093,-0.075596,-0.459165,-0.974960,-1.139173,0.655323,1.680439,-0.212869,-8.163056
1790539248.3617,-0.008162,-0.051690,-0.443635,-0.012641,-0.058862,-0.443635,-1.486114,-0.933983,0.459846,3.635166,-1.105189,-8.861658
1790539248.3758,0.006233,-0.029854,-0.433549,0.000571,-0.038556,-0.433549,-1.633025,-1.286084,0.305650,3.520182,-0.324409,-9.094525
1790539248.3898,0.015745,-0.007565,-0.431965,0.011193,-0.016863,-0.431965,-1.597815,-0.909700,0.146597,2.638638,1.125611,-8.163056
1790539248.4038,-0.009745,-0.009132,-0.432999,-0.003464,-0.011451,-0.432999,0.008495,1.801479,-0.308706,2.715294,-0.064149,-19.767602
1790539248.4180,-0.007561,-0.022238,-0.451809,-0.006332,-0.019002,-0.451809,0.965239,0.105323,-1.020193,-3.455511,3.467951,-17.400119
1790539248.4320,0.002296,-0.029680,-0.511750,-0.000293,-0.026476,-0.511750,0.792831,-0.115651,-1.231454,-6.406766,4.285911,-4.825294
1790539248.4459,-0.002043,-0.040409,-0.522670,-0.001518,-0.036229,-0.522670,0.778261,0.405216,-0.681448,-0.120976,0.976891,-7.037532
1790539248.4597,0.009945,-0.050870,-0.535838,0.006506,-0.046478,-0.535838,0.773405,-0.595237,-0.845357,-2.995575,1.385871,-9.094525
1790539248.4738,0.024483,-0.064627,-0.552895,0.019090,-0.059182,-0.552895,1.018662,-0.790714,-1.031120,-2.880591,1.980751,-9.948371
1790539248.4874,0.031523,-0.073207,-0.571958,0.027793,-0.069000,-0.571958,0.728482,-0.416759,-1.215670,-0.274288,2.761531,-8.628791
1790539248.5010,0.040556,-0.076583,-0.590654,0.036727,-0.074308,-0.590654,0.435873,-0.519961,-1.134323,-0.772552,2.835891,-5.523895
1790539248.5151,0.044111,-0.082480,-0.602205,0.041896,-0.080028,-0.602205,0.426160,-0.256492,-1.078472,0.645583,1.274331,-7.153965
1790539248.5289,0.034923,-0.086378,-0.618133,0.037015,-0.084473,-0.618133,0.375166,0.737891,-0.861141,-0.734224,3.802571,-12.432287
1790539248.5429,0.006986,-0.078240,-0.628930,0.015994,-0.080110,-0.628930,-0.576721,2.010312,-0.745797,1.220503,2.798711,-21.281238
1790539248.5569,0.008279,-0.056558,-0.642789,0.010594,-0.063623,-0.642789,-1.643952,0.255876,-0.725157,-6.943357,-0.659029,-12.820399
