t,imu_roll,imu_pitch,imu_yaw,lpf_roll,lpf_pitch,lpf_yaw,gyro_x,gyro_y,gyro_z,acc_x,acc_y,acc_z
1790539141.7996,-0.003273,-0.047203,0.007029,-0.002291,-0.033042,0.007029,-0.017087,-0.002774,0.002254,0.070663,1.199971,-10.220049
1790539141.8150,-0.015142,-0.045279,-0.002803,-0.011287,-0.041608,-0.002803,0.001125,-0.006417,-0.011102,0.300631,1.237151,-9.793126
1790539141.8287,-0.013956,-0.046814,-0.001593,-0.013156,-0.045252,-0.001593,0.016909,0.002082,-0.007459,0.147319,1.199971,-9.987182
1790539141.8425,-0.011520,-0.048372,0.000777,-0.012011,-0.047436,0.000777,0.009624,0.005725,-0.000174,0.070663,1.162791,-9.948371
1790539141.8565,-0.012728,-0.047889,-0.000285,-0.012513,-0.047753,-0.000285,-0.031657,-0.011273,0.004682,0.223975,1.274331,-10.452916
1790539141.8705,-0.014235,-0.046191,-0.001672,-0.013718,-0.046660,-0.001672,-0.137287,-0.057411,0.025323,0.300631,1.274331,-10.414105
1790539141.8846,-0.021320,-0.046171,-0.005272,-0.019040,-0.046318,-0.005272,-0.223491,0.015438,0.066604,0.683911,1.088431,-10.452916
1790539141.8991,-0.021680,-0.046867,-0.000406,-0.020888,-0.046702,-0.000406,-0.194352,0.034864,0.126097,0.223975,0.976891,-9.948371
1790539141.9130,-0.021166,-0.043071,0.003447,-0.021082,-0.044160,0.003447,-0.239275,0.016652,0.207444,0.147319,1.237151,-9.443825
1790539141.9270,-0.014550,-0.044120,0.016665,-0.016510,-0.044132,0.016665,-0.213778,-0.141187,0.288792,-0.274288,0.865351,-9.637881
1790539141.9409,-0.014608,-0.044949,0.019567,-0.015178,-0.044704,0.019567,-0.153071,-0.194609,0.384709,0.377287,0.939711,-9.831937
1790539141.9548,-0.015850,-0.047900,0.026376,-0.015648,-0.046941,0.026376,-0.130002,-0.040413,0.491553,0.300631,0.716631,-10.220049
1790539141.9686,-0.015663,-0.047610,0.032044,-0.015659,-0.047409,0.032044,-0.179782,-0.152114,0.503695,0.338959,1.051251,-10.841028
1790539141.9825,-0.003402,-0.040044,0.063831,-0.007079,-0.042254,0.063831,-0.315766,-0.129045,0.389565,-1.232488,1.534591,-8.900469
1790539141.9964,0.005820,-0.041564,0.077915,0.001950,-0.041771,0.077915,-0.173712,-0.169112,0.241440,-1.155832,0.790991,-11.073895
1790539142.0103,0.003694,-0.042644,0.065830,0.003171,-0.042382,0.065830,-0.102077,-0.173968,0.225656,0.683911,1.051251,-11.656063
1790539142.0241,-0.002364,-0.039445,0.054158,-0.000703,-0.040326,0.054158,-0.085079,-0.023415,0.263295,0.952207,1.571771,-9.599070
1790539142.0381,-0.004858,-0.038966,0.054524,-0.003611,-0.039374,0.054524,0.047262,0.047006,0.262080,0.300631,1.460231,-9.676693
1790539142.0518,-0.007615,-0.034521,0.057313,-0.006414,-0.035977,0.057313,-0.165213,0.193917,0.174662,0.070663,1.646131,-9.366203
1790539142.0654,-0.005202,-0.031369,0.063668,-0.005565,-0.032751,0.063668,-0.170069,-0.042841,0.132167,-0.312616,1.571771,-10.142427
1790539142.0793,-0.001531,-0.025233,0.067747,-0.002741,-0.027489,0.067747,-0.190710,-0.258958,0.092101,-0.005993,2.017931,-9.327392
1790539142.0933,-0.000297,-0.017026,0.066507,-0.001030,-0.020165,0.066507,-0.278128,-0.426510,0.121240,0.875551,2.203831,-8.900469
1790539142.1072,0.000834,-0.008600,0.066118,0.000275,-0.012069,0.066118,-0.304839,-0.556423,0.207444,1.258831,2.315371,-8.978091
1790539142.1211,0.002596,-0.000059,0.068237,0.001900,-0.003662,0.068237,-0.383758,-0.552781,0.266937,1.258831,2.501271,-10.142427
1790539142.1350,-0.010234,-0.002294,0.078128,-0.006594,-0.002704,0.078128,0.060618,0.475598,0.128525,2.217030,1.906391,-13.984735
1790539142.1494,-0.014977,-0.012184,0.062479,-0.012462,-0.009340,0.062479,0.854667,0.644363,-0.223576,-1.040848,2.835891,-13.169700
1790539142.1634,-0.008128,-0.003348,-0.000919,-0.009429,-0.005145,-0.000919,0.645834,0.505951,-0.550181,-2.267343,4.434631,-5.679140
1790539142.1774,-0.011641,-0.012223,-0.025713,-0.010978,-0.010100,-0.025713,0.886234,0.656505,-0.705591,-0.542584,1.534591,-6.106063
1790539142.1913,0.001782,-0.007601,-0.034640,-0.002046,-0.008350,-0.034640,0.339871,-0.224962,-0.750514,-1.960720,3.282051,-7.231588
1790539142.2050,0.010870,-0.002837,-0.038907,0.006995,-0.004491,-0.038907,-0.212564,-0.524855,-1.101401,0.032335,3.319231,-14.993826
1790539142.2189,0.004693,-0.007542,-0.026664,0.005384,-0.006627,-0.026664,0.013266,0.286192,-1.226458,1.948735,0.382011,-14.295224
1790539142.2329,-0.001493,-0.004296,-0.015882,0.000570,-0.004995,-0.015882,-0.337621,0.303189,-1.315090,1.258831,1.014071,-8.589979
1790539142.2469,-0.001508,-0.007891,-0.044602,-0.000885,-0.007022,-0.044602,-0.194352,0.272836,-1.272595,-0.159304,-0.361589,-9.172147
1790539142.2610,-0.005500,-0.013466,-0.068878,-0.004116,-0.011533,-0.068878,0.234240,0.530234,-1.372155,-0.005993,0.753811,-9.599070
1790539142.2746,-0.002027,-0.010956,-0.096440,-0.002654,-0.011129,-0.096440,-0.131217,0.142923,-1.419506,-0.772552,1.906391,-10.608161
1790539142.2884,-0.009198,-0.007652,-0.094770,-0.007235,-0.008695,-0.094770,-0.257487,0.380895,-1.227672,1.757095,1.534591,-10.297672
1790539142.3021,-0.013133,-0.004816,-0.104945,-0.011363,-0.005980,-0.104945,-0.258702,0.362682,-1.001841,0.607255,1.348691,-10.103616
1790539142.3161,-0.011169,-0.005328,-0.117260,-0.011228,-0.005524,-0.117260,-0.074152,0.000868,-0.784510,0.070663,0.865351,-8.434735
1790539142.3299,-0.007390,-0.005765,-0.129858,-0.008541,-0.005693,-0.129858,0.055761,-0.071980,-0.621815,-0.350944,1.497411,-8.628791
1790539142.3439,-0.010285,-0.001153,-0.133316,-0.009762,-0.002515,-0.133316,-0.160356,0.246125,-0.534397,0.377287,2.389731,-9.210958
1790539142.3578,-0.010241,0.003266,-0.140777,-0.010097,0.001532,-0.140777,-0.212564,0.105284,-0.536825,0.070663,3.505131,-15.304315
1790539142.3717,-0.002604,-0.009718,-0.130117,-0.004852,-0.006343,-0.130117,0.854667,-0.750686,-0.241789,1.948735,1.720491,-14.760958
1790539142.3877,-0.018921,-0.010687,-0.118880,-0.014700,-0.009384,-0.118880,0.809744,0.361468,0.357998,3.596838,5.326951,-6.067252
1790539142.4022,-0.025126,-0.019491,-0.111206,-0.021998,-0.016459,-0.111206,0.565701,0.351755,0.606897,0.223975,1.497411,-11.112707
1790539142.4161,-0.032305,-0.027962,-0.082934,-0.029213,-0.024511,-0.082934,0.470998,0.257052,0.943214,1.143847,0.902531,-11.229140
1790539142.4303,-0.026625,-0.032942,-0.113477,-0.027401,-0.030413,-0.113477,0.365368,-0.144829,1.176329,-1.577440,1.237151,-7.464455
1790539142.4448,-0.021908,-0.036238,-0.102117,-0.023556,-0.034490,-0.102117,-0.018301,-0.348805,1.141119,-0.542584,-0.026969,-9.366203
1790539142.4592,-0.021778,-0.043443,-0.084843,-0.022312,-0.040757,-0.084843,0.191745,-0.078051,1.018491,-0.197632,-0.621849,-10.957462
1790539142.4734,-0.025737,-0.052104,-0.067420,-0.024710,-0.048700,-0.067420,0.427289,0.162349,1.111980,0.185647,0.196111,-11.073895
1790539142.4875,-0.033074,-0.061705,-0.048847,-0.030565,-0.057803,-0.048847,0.480711,0.402749,1.193327,0.262303,0.010211,-10.142427
1790539142.5019,-0.041118,-0.064305,-0.042150,-0.037952,-0.062355,-0.042150,0.171105,0.615224,0.977210,-0.542584,1.088431,-8.745224
1790539142.5156,-0.041900,-0.063646,-0.042200,-0.040715,-0.063259,-0.042200,-0.042584,0.282549,0.761093,-1.232488,1.051251,-7.891378
1790539142.5293,-0.043505,-0.065503,-0.041011,-0.042668,-0.064830,-0.041011,0.053333,0.219414,0.583828,-0.580912,0.642271,-9.599070
1790539142.5434,-0.046170,-0.067598,-0.036964,-0.045119,-0.066768,-0.036964,0.138323,0.197559,0.421133,0.147319,1.088431,-10.064805
1790539142.5572,-0.040861,-0.069238,-0.034806,-0.042139,-0.068497,-0.034806,0.090971,-0.360946,0.285149,0.070663,0.939711,-10.258860
1790539142.5710,-0.035049,-0.061387,-0.010329,-0.037176,-0.063520,-0.010329,-0.426253,-0.704548,0.258438,2.868606,2.835891,-12.820399
1790539142.5849,-0.026086,-0.047814,0.013794,-0.029413,-0.052526,0.013794,-0.945906,-1.009298,0.209872,3.366870,1.869211,-12.121798
1790539142.5987,-0.022562,-0.035760,0.041757,-0.024617,-0.040790,0.041757,-1.112243,-0.793181,0.168592,3.481854,-0.361589,-8.201867
1790539142.6126,-0.012139,-0.022749,0.054101,-0.015883,-0.028162,0.054101,-1.202090,-1.151353,-0.082736,2.063719,-0.361589,-6.261308
1790539142.6265,-0.000359,-0.010949,0.064090,-0.005016,-0.016113,0.064090,-1.041823,-1.005656,-0.234504,0.798895,0.084571,-5.601518
1790539142.6405,-0.008244,-0.017972,0.072836,-0.007276,-0.017414,0.072836,0.264594,0.655291,-0.378987,-0.120976,-0.510309,-17.632987
1790539142.6548,0.004181,-0.022887,0.022580,0.000744,-0.021245,0.022580,0.540204,-0.343948,-0.805150,-4.528694,3.802571,-12.393476
1790539142.6688,0.009534,-0.024558,-0.003416,0.006897,-0.023564,-0.003416,0.212386,0.000868,-1.329660,-1.999048,2.724351,-12.160609
1790539142.6828,-0.005116,-0.029615,-0.028937,-0.001512,-0.027800,-0.028937,0.292519,0.717212,-1.289593,3.251886,0.530731,-6.843476
1790539142.6965,-0.003072,-0.035472,-0.035601,-0.002604,-0.033170,-0.035601,0.320444,0.136852,-1.043122,-0.657568,0.270471,-6.106063
1790539142.7104,0.007882,-0.045529,-0.042897,0.004736,-0.041821,-0.042897,0.623980,-0.609845,-1.089260,-0.427600,0.456371,-10.685784
1790539142.7242,0.016759,-0.065062,-0.053896,0.013152,-0.058090,-0.053896,1.341538,-0.403441,-1.193676,-1.232488,0.605091,-12.044175
1790539142.7377,0.029824,-0.067241,-0.108410,0.024822,-0.064496,-0.108410,0.586341,-0.810179,-1.329660,-0.389272,3.839751,-7.619700
1790539142.7512,0.039819,-0.075206,-0.118475,0.035320,-0.071993,-0.118475,0.487996,-0.719118,-1.222815,0.492271,0.493551,-11.811308
1790539142.7650,0.042653,-0.081662,-0.138826,0.040453,-0.078761,-0.138826,0.569343,-0.257744,-1.077118,0.913879,2.129471,-10.103616
1790539142.7789,0.029275,-0.087042,-0.138900,0.032629,-0.084558,-0.138900,0.211171,0.938186,-0.911995,0.837223,-0.473129,-12.703965
1790539142.7928,0.016543,-0.081027,-0.139619,0.021368,-0.082086,-0.139619,-0.613231,1.035317,-0.813649,-0.810880,-0.770569,-14.528091
1790539142.8078,0.016500,-0.073479,-0.141573,0.017961,-0.076061,-0.141573,-0.794138,0.419747,-0.822148,-3.762135,-2.034688,-10.336483
1790539142.8222,0.010340,-0.059937,-0.154892,0.012626,-0.064774,-0.154892,-1.113458,0.907832,-0.932635,-2.650623,-0.398769,-6.843476
1790539142.8366,-0.004865,-0.042774,-0.166137,0.000382,-0.049374,-0.166137,-1.267654,1.155517,-0.693449,-0.005993,0.307651,-5.640329
1790539142.8510,-0.007336,-0.028352,-0.184753,-0.005020,-0.034658,-0.184753,-1.239728,0.790060,-0.688593,-3.340527,-0.770569,-5.950818
1790539142.8657,-0.011944,-0.012528,-0.187505,-0.009867,-0.019167,-0.187505,-1.074605,0.507165,-0.539253,-1.462456,2.352551,-16.002917
1790539142.8797,0.001276,-0.023410,-0.201391,-0.002067,-0.022137,-0.201391,0.566915,-0.949805,-0.124017,0.185647,-1.068009,-21.281238
1790539142.8938,-0.014179,-0.025279,-0.236577,-0.010545,-0.024336,-0.236577,0.233026,0.514450,0.756236,6.011501,2.947431,-11.229140
1790539142.9082,-0.001346,-0.034293,-0.196618,-0.004106,-0.031306,-0.196618,0.583913,-0.725189,0.730739,-1.309144,0.493551,-4.941727
1790539142.9221,0.003399,-0.044669,-0.193368,0.001148,-0.040660,-0.193368,0.610624,-0.390086,0.404135,-0.044320,-0.026969,-5.329839
1790539142.9363,-0.013711,-0.053569,-0.210142,-0.009253,-0.049697,-0.210142,0.581485,0.910261,0.466056,3.021918,0.790991,-11.462007
1790539142.9503,-0.020583,-0.066735,-0.199577,-0.017184,-0.061624,-0.199577,1.030717,0.467099,0.515836,-0.044320,2.464091,-12.082986
1790539142.9638,-0.037580,-0.072301,-0.194677,-0.031461,-0.069097,-0.194677,0.664046,1.000107,0.770806,2.063719,3.319231,-8.589979
1790539142.9774,-0.049759,-0.073773,-0.178354,-0.044270,-0.072370,-0.178354,0.354440,0.836198,0.835156,0.300631,3.170511,-8.046623
1790539142.9915,-0.050231,-0.080480,-0.165760,-0.048443,-0.078047,-0.165760,0.489210,0.045791,0.708885,-0.235960,1.311511,-9.210958
1790539143.0071,-0.044027,-0.085842,-0.152742,-0.045352,-0.083503,-0.152742,0.242739,-0.430152,0.725883,0.108991,0.121751,-11.151518
1790539143.0212,-0.033963,-0.083524,-0.145368,-0.037379,-0.083518,-0.145368,-0.257487,-0.830819,0.589899,1.450471,0.233291,-13.945924
1790539143.0359,-0.023260,-0.077117,-0.136921,-0.027496,-0.079038,-0.136921,-0.605946,-1.054221,0.708885,3.750150,-0.919289,-11.462007
1790539143.0502,-0.015187,-0.067130,-0.125102,-0.018880,-0.070703,-0.125102,-0.894912,-1.010512,0.716170,3.405198,-0.844929,-7.425644
1790539143.0643,-0.005200,-0.053689,-0.119025,-0.009304,-0.058793,-0.119025,-1.086746,-1.059078,0.614182,1.948735,-0.138509,-6.261308
1790539143.0782,0.000054,-0.039481,-0.115277,-0.002754,-0.045274,-0.115277,-1.143811,-0.779825,0.438131,2.791950,-0.101329,-7.115154
1790539143.0922,0.008063,-0.022636,-0.130013,0.004818,-0.029427,-0.130013,-1.155953,-0.856316,0.260866,2.217030,1.646131,-8.784035
1790539143.1061,-0.000506,-0.018022,-0.112688,0.001092,-0.021444,-0.112688,-0.505172,0.411248,-0.002603,4.018446,-0.398769,-16.313406
1790539143.1200,-0.004786,-0.024225,-0.114912,-0.003023,-0.023391,-0.114912,0.466141,0.507165,-0.631528,-1.347472,2.315371,-13.674245
1790539143.1339,0.007905,-0.031366,-0.088183,0.004627,-0.028974,-0.088183,0.566915,-0.305096,-1.300520,-5.755190,2.575631,-11.190329
1790539143.1481,-0.001564,-0.032806,-0.182372,0.000293,-0.031656,-0.182372,0.454000,0.414891,-0.695878,3.136902,3.765391,-6.921098
1790539143.1623,0.008124,-0.040898,-0.177697,0.005775,-0.038126,-0.177697,0.671331,-0.390086,-0.510114,-1.922392,1.832031,-6.959909
1790539143.1764,0.024823,-0.059044,-0.171531,0.019109,-0.052769,-0.171531,1.292972,-0.855102,-0.888926,-3.225543,1.497411,-11.035084
1790539143.1903,0.042451,-0.070984,-0.192493,0.035448,-0.065519,-0.192493,1.065928,-1.049365,-1.001841,-1.462456,2.910251,-7.697322
1790539143.2038,0.044459,-0.074183,-0.211814,0.041756,-0.071584,-0.211814,0.524420,-0.226176,-1.009126,1.143847,3.356411,-6.727042
1790539143.2174,0.052407,-0.082979,-0.222053,0.049211,-0.079561,-0.222053,0.604554,-0.580706,-1.030981,0.453943,0.902531,-10.258860
1790539143.2311,0.038216,-0.090501,-0.227033,0.041515,-0.087219,-0.227033,0.475854,0.964897,-0.958132,1.603783,0.679451,-12.121798
1790539143.2451,0.021778,-0.087515,-0.237396,0.027699,-0.087426,-0.237396,-0.263558,1.286645,-0.805150,-1.117504,0.939711,-17.438931
1790539143.2590,0.016396,-0.079338,-0.217372,0.019787,-0.081765,-0.217372,-0.803851,0.701428,-0.699520,-3.493839,-1.625708,-10.763406
1790539143.2729,0.013350,-0.071829,-0.201273,0.015281,-0.074810,-0.201273,-0.859702,0.671075,-0.686165,-3.723807,-2.257768,-7.115154
1790539143.2868,-0.001623,-0.055345,-0.204252,0.003448,-0.061184,-0.204252,-1.359928,1.232008,-0.570821,-0.504256,-0.473129,-5.058161
1790539143.3007,-0.003179,-0.038193,-0.211757,-0.001191,-0.045090,-0.211757,-1.406066,0.537519,-0.465191,-2.803935,-0.584669,-5.989630
1790539143.3145,-0.012417,-0.021131,-0.215745,-0.009049,-0.028319,-0.215745,-1.272510,0.813129,-0.453049,-0.580912,0.902531,-8.784035
1790539143.3284,-0.011551,-0.009558,-0.217481,-0.010800,-0.015186,-0.217481,-0.845132,0.031222,-0.309780,-0.465928,1.608951,-11.966553
1790539143.3424,-0.002287,-0.012050,-0.248987,-0.004841,-0.012991,-0.248987,0.186889,-1.019011,0.213515,4.440053,1.906391,-11.345574
1790539143.3562,-0.007668,-0.015940,-0.259592,-0.006820,-0.015055,-0.259592,0.299804,-0.051340,0.840012,3.788478,1.646131,-9.288581
1790539143.3704,-0.001857,-0.028281,-0.248349,-0.003346,-0.024313,-0.248349,0.832812,-0.635342,0.937143,1.143847,1.125611,-10.802217
1790539143.3843,-0.003835,-0.031759,-0.250608,-0.003688,-0.029525,-0.250608,0.485568,0.054290,0.513408,0.223975,3.505131,-7.697322
1790539143.3984,-0.015780,-0.037928,-0.246911,-0.012152,-0.035407,-0.246911,0.469784,0.553303,0.699172,3.328542,2.166651,-11.772497
1790539143.4127,-0.028128,-0.049145,-0.241321,-0.023336,-0.045024,-0.241321,0.821885,0.651648,0.911646,1.642111,1.794851,-9.637881
1790539143.4266,-0.047054,-0.050652,-0.240957,-0.039939,-0.048963,-0.240957,0.347155,1.194370,0.973568,1.028863,3.765391,-7.658511
1790539143.4403,-0.051598,-0.050562,-0.234140,-0.048100,-0.050082,-0.234140,0.162606,0.282549,1.046416,-0.312616,3.393591,-8.240679
1790539143.4544,-0.047702,-0.050651,-0.225407,-0.047821,-0.050480,-0.225407,0.075188,-0.316023,0.994208,-0.465928,2.538451,-9.094525
1790539143.4685,-0.051731,-0.050786,-0.202386,-0.050558,-0.050694,-0.202386,-0.034085,0.025151,0.997851,2.638638,1.460231,-10.879840
1790539143.4825,-0.040467,-0.048559,-0.195366,-0.043494,-0.049199,-0.195366,-0.111790,-0.907310,0.854582,0.415615,2.873071,-11.888930
1790539143.4965,-0.031369,-0.040821,-0.167550,-0.035007,-0.043335,-0.167550,-0.590162,-0.941306,0.874008,2.753622,1.423051,-10.336483
1790539143.5104,-0.019882,-0.033907,-0.139519,-0.024419,-0.036735,-0.139519,-0.625372,-1.008084,0.693101,1.220503,0.084571,-9.366203
1790539143.5244,-0.011718,-0.027895,-0.112374,-0.015528,-0.030547,-0.112374,-0.545239,-0.833248,0.472127,1.872079,0.158931,-7.697322
1790539143.5383,-0.001856,-0.020666,-0.120601,-0.005958,-0.023631,-0.120601,-0.404399,-0.771326,0.266937,0.262303,2.575631,-8.667602
1790539143.5522,-0.006024,-0.023774,-0.100827,-0.006004,-0.023731,-0.100827,0.097042,0.162349,-0.113089,3.290214,-0.026969,-15.459560
1790539143.5660,-0.002386,-0.028761,-0.122167,-0.003472,-0.027252,-0.122167,0.441858,0.002082,-0.823363,-2.842263,3.393591,-14.722147
1790539143.5798,0.000181,-0.039665,-0.130355,-0.000915,-0.035941,-0.130355,0.718683,-0.006417,-1.293236,-0.044320,0.344831,-9.521448
1790539143.5935,-0.003340,-0.047395,-0.155631,-0.002612,-0.043959,-0.155631,0.650691,0.265551,-1.237385,1.182175,1.311511,-5.756762
1790539143.6072,-0.000288,-0.055088,-0.160864,-0.000985,-0.051749,-0.160864,0.553560,-0.254102,-0.686165,0.952207,0.679451,-6.416553
1790539143.6211,0.017590,-0.069637,-0.162921,0.012018,-0.064270,-0.162921,0.989437,-1.134355,-0.778439,-1.615768,0.344831,-13.014455
1790539143.6349,0.028794,-0.083532,-0.199171,0.023761,-0.077754,-0.199171,1.144847,-0.635342,-1.119613,-1.079176,2.501271,-8.667602
1790539143.6489,0.043491,-0.091268,-0.236562,0.037572,-0.087214,-0.236562,0.689543,-0.874528,-1.273809,-1.500784,3.393591,-10.918651
1790539143.6626,0.039467,-0.098299,-0.231426,0.038898,-0.094973,-0.231426,0.405434,0.208486,-1.157252,1.297159,0.047391,-6.959909
1790539143.6764,0.039871,-0.113468,-0.223819,0.039579,-0.107920,-0.223819,0.936014,-0.018558,-0.839146,0.223975,-1.365448,-13.790679
1790539143.6904,0.030473,-0.120096,-0.223010,0.033205,-0.116443,-0.223010,0.344727,0.746351,-0.774797,-1.040848,-1.142369,-14.295224
1790539143.7044,0.020454,-0.121874,-0.223166,0.024279,-0.120245,-0.223166,-0.032871,0.911475,-0.807579,-2.765607,-1.662888,-11.694875
1790539143.7184,0.023669,-0.114821,-0.251587,0.023852,-0.116448,-0.251587,-0.578021,0.180561,-1.064977,-5.755190,-0.398769,-9.987182
1790539143.7322,0.014266,-0.102098,-0.259683,0.017142,-0.106403,-0.259683,-1.074605,0.957612,-0.952062,-1.922392,-0.770569,-6.067252
1790539143.7460,0.010039,-0.089056,-0.268332,0.012170,-0.094260,-0.268332,-1.192377,0.667432,-0.797866,-2.382327,-1.514168,-5.058161
1790539143.7599,0.004118,-0.075188,-0.274197,0.006534,-0.080909,-0.274197,-1.199662,0.649220,-0.627886,-1.500784,-1.216729,-6.416553
1790539143.7737,-0.005580,-0.056780,-0.280467,-0.001946,-0.064019,-0.280467,-1.476486,0.865337,-0.567179,-1.002520,-0.659029,-8.240679
1790539143.7876,-0.013283,-0.033150,-0.286114,-0.009882,-0.042411,-0.286114,-1.835872,0.810701,-0.619387,-1.845736,-0.584669,-8.201867
1790539143.8015,-0.022502,-0.009608,-0.298762,-0.018716,-0.019449,-0.298762,-1.872296,0.896905,-0.641241,-1.539112,-1.179549,-9.676693
1790539143.8154,0.001336,-0.006461,-0.305479,-0.004680,-0.010358,-0.305479,-0.360689,-1.537450,-0.729874,-1.654096,-0.510309,-15.071448
1790539143.8294,0.011584,-0.018349,-0.347254,0.006705,-0.015951,-0.347254,0.778176,-1.127070,0.365283,4.785005,0.419191,-10.918651
1790539143.8434,0.006493,-0.022565,-0.349635,0.006556,-0.020581,-0.349635,0.330157,0.163563,0.632394,1.412143,1.794851,-9.831937
1790539143.8573,0.008978,-0.026830,-0.303085,0.008252,-0.024955,-0.303085,0.400578,0.095571,0.107884,-3.033903,2.055111,-7.192776
1790539143.8711,-0.001273,-0.039323,-0.326838,0.001584,-0.035013,-0.326838,0.880164,0.486525,0.224442,3.366870,0.976891,-10.491728
1790539143.8847,-0.019675,-0.050505,-0.340076,-0.013297,-0.045858,-0.340076,0.937228,1.105737,0.402921,3.520182,3.096151,-10.763406
1790539143.8985,-0.037998,-0.057220,-0.336459,-0.030588,-0.053811,-0.336459,0.690758,1.221081,0.512194,1.143847,3.839751,-8.667602
1790539143.9125,-0.042761,-0.063419,-0.322912,-0.039109,-0.060536,-0.322912,0.524420,0.352969,0.604469,-0.695896,2.873071,-10.763406
1790539143.9266,-0.048246,-0.067086,-0.314053,-0.045505,-0.065121,-0.314053,0.319230,0.342042,0.625109,0.262303,2.092291,-9.016902
1790539143.9406,-0.049778,-0.068395,-0.306166,-0.048496,-0.067413,-0.306166,0.222099,0.011795,0.597184,1.258831,3.839751,-11.229140
1790539143.9544,-0.038267,-0.069127,-0.296428,-0.041335,-0.068613,-0.296428,0.010838,-0.903668,0.616610,0.760567,1.311511,-14.955014
1790539143.9684,-0.027029,-0.059426,-0.290112,-0.031321,-0.062182,-0.290112,-0.655726,-1.009298,0.508551,3.251886,2.612811,-13.053266
1790539143.9824,-0.020136,-0.050160,-0.269819,-0.023492,-0.053767,-0.269819,-0.762570,-0.872100,0.474555,4.785005,-0.101329,-8.822846
1790539143.9962,-0.008125,-0.039220,-0.261456,-0.012735,-0.043584,-0.261456,-0.877914,-1.083361,0.297291,1.642111,0.084571,-6.300119
1790539144.0100,0.001949,-0.023765,-0.267250,-0.002456,-0.029711,-0.267250,-1.052750,-0.980159,0.209872,1.680439,1.237151,-5.135783
1790539144.0239,0.004749,-0.014595,-0.266618,0.002587,-0.019130,-0.266618,-0.678795,-0.309952,0.021680,2.025391,1.794851,-13.868301
1790539144.0379,-0.008435,-0.020540,-0.276640,-0.005128,-0.020117,-0.276640,0.422432,1.015891,-0.567179,0.875551,2.538451,-18.137532
1790539144.0518,-0.003754,-0.021976,-0.297187,-0.004166,-0.021418,-0.297187,0.214814,-0.025843,-1.233743,-2.880591,4.508991,-15.032637
1790539144.0656,-0.009991,-0.022342,-0.318962,-0.008244,-0.022065,-0.318962,0.185675,0.344470,-1.228886,2.140375,1.683311,-4.204315
1790539144.0794,-0.008869,-0.027826,-0.338865,-0.008681,-0.026098,-0.338865,0.515921,0.087072,-0.663096,-0.504256,1.571771,-5.213406
1790539144.0934,-0.005133,-0.043627,-0.333570,-0.006197,-0.038368,-0.333570,1.028289,-0.074409,-0.811221,-1.309144,-0.324409,-11.151518
1790539144.1074,0.015608,-0.057254,-0.356426,0.009067,-0.051589,-0.356426,1.112065,-1.226630,-1.090474,-1.807408,2.612811,-8.007811
1790539144.1208,0.024930,-0.061845,-0.377571,0.020171,-0.058768,-0.377571,0.536562,-0.705763,-1.302949,1.450471,3.021791,-6.727042
1790539144.1345,0.026564,-0.064318,-0.391871,0.024646,-0.062653,-0.391871,0.316802,-0.167898,-1.101401,1.910407,2.984611,-8.318301
1790539144.1484,0.032987,-0.070208,-0.411016,0.030485,-0.067942,-0.411016,0.421218,-0.339092,-1.181534,-0.312616,1.199971,-8.706413
1790539144.1626,0.020220,-0.073275,-0.437760,0.023300,-0.071675,-0.437760,0.307089,1.012248,-1.032195,-0.312616,3.653851,-13.596623
1790539144.1767,0.008159,-0.070089,-0.448677,0.012701,-0.070565,-0.448677,-0.280556,0.977038,-0.938706,-0.887536,0.790991,-20.854315
1790539144.1906,0.002101,-0.058754,-0.433131,0.005281,-0.062297,-0.433131,-1.015112,0.718426,-0.829433,-3.493839,-2.109048,-11.229140
1790539144.2045,-0.001132,-0.042928,-0.424304,0.000792,-0.048739,-0.424304,-1.332003,0.705071,-0.800294,-3.263871,-1.068009,-4.864105
1790539144.2183,-0.014654,-0.027040,-0.433110,-0.010020,-0.033549,-0.433110,-1.334431,1.320641,-0.683736,-1.769080,-0.844929,-4.864105
1790539144.2322,-0.026788,-0.014595,-0.444468,-0.021757,-0.020282,-0.444468,-0.994472,1.171301,-0.712876,-1.500784,-0.175689,-6.222497
1790539144.2460,-0.026061,-0.008269,-0.455179,-0.024770,-0.011873,-0.455179,-0.388615,0.184204,-0.734730,-1.769080,2.724351,-11.578441
1790539144.2599,-0.019642,-0.020333,-0.455117,-0.021180,-0.017795,-0.455117,0.725968,-0.443508,0.010753,-0.312616,-1.216729,-20.116903
1790539144.2740,-0.030330,-0.021381,-0.448792,-0.027585,-0.020305,-0.448792,0.054547,0.531448,0.691887,1.872079,1.125611,-7.852567
1790539144.2879,-0.023350,-0.030284,-0.434380,-0.024621,-0.027290,-0.434380,0.521992,-0.632914,0.905576,0.185647,0.084571,-8.589979
1790539144.3017,-0.018550,-0.045141,-0.423834,-0.020371,-0.039786,-0.423834,1.010077,-0.260172,0.470913,-1.424128,0.270471,-6.843476
1790539144.3156,-0.031214,-0.052718,-0.424050,-0.027961,-0.048838,-0.424050,0.576628,0.758493,0.333715,2.063719,1.646131,-9.405014
1790539144.3294,-0.048541,-0.067074,-0.419942,-0.042367,-0.061603,-0.419942,1.000364,1.165230,0.500052,1.412143,0.790991,-12.121798
1790539144.3432,-0.057889,-0.078446,-0.410798,-0.053232,-0.073393,-0.410798,0.889877,0.598226,0.798731,0.645583,2.278191,-8.939280
1790539144.3568,-0.072123,-0.084166,-0.402635,-0.066456,-0.080934,-0.402635,0.552345,0.968539,0.804802,0.798895,3.096151,-8.357112
1790539144.3704,-0.077826,-0.087820,-0.393106,-0.074415,-0.085754,-0.393106,0.352012,0.405177,0.826657,-0.005993,2.910251,-9.443825
1790539144.3845,-0.074120,-0.091690,-0.382027,-0.074209,-0.089910,-0.382027,0.264594,-0.284455,0.837584,0.070663,1.943571,-11.772497
1790539144.3987,-0.065446,-0.093115,-0.371626,-0.068075,-0.092154,-0.371626,-0.029229,-0.671767,0.661533,0.990535,-0.547489,-12.354665
1790539144.4130,-0.052209,-0.090100,-0.358495,-0.056969,-0.090716,-0.358495,-0.370403,-1.087003,0.672460,2.676966,-1.216729,-11.617252
1790539144.4270,-0.039655,-0.084277,-0.345215,-0.044849,-0.086209,-0.345215,-0.593805,-1.178064,0.650606,4.325070,-1.588528,-10.414105
1790539144.4411,-0.028378,-0.074938,-0.334363,-0.033319,-0.078319,-0.334363,-0.809922,-1.054221,0.587471,2.945262,-0.882109,-8.395923
1790539144.4550,-0.023565,-0.061988,-0.328911,-0.026491,-0.066887,-0.328911,-1.060035,-0.697264,0.549832,2.906934,-0.473129,-5.523895
1790539144.4688,-0.020271,-0.045769,-0.326499,-0.022137,-0.052104,-0.326499,-1.234872,-0.527284,0.425990,2.293686,0.196111,-5.601518
1790539144.4828,-0.009737,-0.028114,-0.309523,-0.013457,-0.035311,-0.309523,-1.401209,-0.884241,0.309432,1.373815,-0.547489,-9.327392
1790539144.4966,-0.002209,-0.010882,-0.300631,-0.005584,-0.018211,-0.300631,-1.384211,-0.731260,0.188018,2.485326,-0.473129,-10.336483
1790539144.5104,-0.023870,-0.014730,-0.294816,-0.018384,-0.015774,-0.294816,0.189317,1.687311,-0.341348,-0.657568,0.344831,-21.281238
1790539144.5245,-0.018551,-0.025944,-0.298229,-0.018501,-0.022893,-0.298229,0.796388,-0.028271,-1.153609,-5.486894,2.241011,-21.281238
1790539144.5385,-0.020896,-0.020465,-0.382198,-0.020177,-0.021193,-0.382198,0.022979,0.187846,-0.575678,0.913879,6.330810,-6.921098
1790539144.5523,-0.021979,-0.034932,-0.362535,-0.021438,-0.030811,-0.362535,0.983366,0.350541,-0.369273,-3.302199,0.382011,-10.530539
1790539144.5666,0.003391,-0.053686,-0.353255,-0.004057,-0.046824,-0.353255,1.350037,-1.392967,-0.757799,-5.333582,1.720491,-9.870749
1790539144.5803,0.017612,-0.072782,-0.364626,0.011111,-0.064995,-0.364626,1.380390,-0.919452,-1.007912,-0.389272,0.828171,-9.599070
1790539144.5939,0.031324,-0.079719,-0.394382,0.025260,-0.075302,-0.394382,0.723539,-0.971660,-1.067405,0.492271,3.653851,-7.697322
1790539144.6078,0.040640,-0.088070,-0.413757,0.036026,-0.084239,-0.413757,0.640978,-0.691193,-1.102615,1.143847,1.608951,-7.969000
1790539144.6217,0.029096,-0.093065,-0.435308,0.031175,-0.090417,-0.435308,0.472212,0.838626,-0.897425,0.798895,3.170511,-10.414105
1790539144.6356,0.002278,-0.084264,-0.445682,0.010947,-0.086110,-0.445682,-0.647227,2.157184,-0.708019,-4.835318,1.497411,-18.680889
1790539144.6496,-0.002712,-0.069052,-0.431980,0.001386,-0.074170,-0.431980,-1.192377,0.793703,-0.636385,-8.629789,-1.253909,-12.160609
1790539144.6639,-0.000712,-0.057880,-0.443729,-0.000083,-0.062767,-0.443729,-0.994472,0.414891,-0.777225,-6.943357,-2.592388,-5.679140
1790539144.6779,-0.026174,-0.034397,-0.453461,-0.018346,-0.042908,-0.453461,-1.359928,1.575610,-0.500401,2.063719,2.315371,-2.690678
1790539144.6919,-0.041559,-0.016204,-0.472283,-0.034595,-0.024215,-0.472283,-0.972617,1.488192,-0.751728,-1.385800,2.129471,-2.690678
1790539144.7058,-0.042260,-0.015225,-0.489110,-0.039961,-0.017922,-0.489110,-0.105720,0.258266,-0.831862,-1.462456,0.753811,-19.612357
1790539144.7196,-0.037558,-0.022222,-0.480842,-0.038279,-0.020932,-0.480842,0.580271,-0.494502,-0.192009,5.359925,4.211551,-15.847672
1790539144.7335,-0.042325,-0.016660,-0.468004,-0.041111,-0.017942,-0.468004,-0.304839,0.147779,0.506123,2.638638,3.691031,-10.491728
1790539144.7474,-0.029067,-0.025350,-0.459257,-0.032680,-0.023128,-0.459257,0.532919,-1.016583,0.759879,-0.810880,0.605091,-11.850119
1790539144.7614,-0.033394,-0.038718,-0.444554,-0.033180,-0.034041,-0.444554,0.902018,0.107713,0.795089,1.718767,0.902531,-9.366203
1790539144.7754,-0.043881,-0.050049,-0.442418,-0.040670,-0.045246,-0.442418,0.786675,0.793703,0.662747,-0.849208,0.716631,-6.106063
1790539144.7893,-0.056246,-0.064893,-0.434103,-0.051574,-0.058999,-0.434103,1.005220,0.856838,0.899505,-0.389272,0.790991,-11.035084
1790539144.8032,-0.066301,-0.078852,-0.418218,-0.061883,-0.072896,-0.418218,1.033146,0.609153,1.064628,0.990535,2.798711,-11.229140
1790539144.8169,-0.078466,-0.083301,-0.401022,-0.073491,-0.080180,-0.401022,0.403006,0.788846,1.201826,0.722239,2.984611,-8.512357
1790539144.8304,-0.082357,-0.089151,-0.393898,-0.079697,-0.086459,-0.393898,0.401792,0.332329,1.213968,-1.155832,1.646131,-8.551168
1790539144.8445,-0.076094,-0.092221,-0.374347,-0.077175,-0.090493,-0.374347,0.118897,-0.552781,1.330525,0.798895,0.976891,-10.064805
1790539144.8583,-0.072987,-0.091519,-0.357262,-0.074244,-0.091211,-0.357262,-0.194352,-0.318451,1.313528,0.645583,0.158931,-10.142427
1790539144.8722,-0.068726,-0.089506,-0.338533,-0.070381,-0.090018,-0.338533,-0.321837,-0.419225,1.410659,0.760567,-0.324409,-10.530539
1790539144.8874,-0.061589,-0.084670,-0.315866,-0.064227,-0.086274,-0.315866,-0.478461,-0.634128,1.262534,1.718767,-0.398769,-10.608161
1790539144.9029,-0.050217,-0.071195,-0.294826,-0.054420,-0.075719,-0.294826,-0.987187,-0.901239,1.039131,1.757095,0.047391,-10.103616
1790539144.9175,-0.043893,-0.058740,-0.276764,-0.047051,-0.063833,-0.276764,-1.011470,-0.640199,0.746523,3.290214,-1.216729,-12.587532
1790539144.9317,-0.028834,-0.041803,-0.266047,-0.034299,-0.048412,-0.266047,-1.296793,-1.176850,0.444202,1.143847,-0.026969,-9.599070
1790539144.9467,-0.017190,-0.022854,-0.256110,-0.022323,-0.030521,-0.256110,-1.365999,-0.947377,0.291220,1.488799,-0.064149,-6.494175
1790539144.9604,-0.023036,-0.020878,-0.253778,-0.022822,-0.023771,-0.253778,-0.287841,0.345684,-0.049954,2.102047,-0.993649,-12.277042
1790539144.9740,-0.028620,-0.033679,-0.262507,-0.026880,-0.030707,-0.262507,0.893519,0.598226,-0.691021,-1.730752,0.530731,-17.400119
1790539144.9880,-0.018917,-0.038149,-0.288773,-0.021306,-0.035916,-0.288773,0.568129,-0.562494,-1.140254,0.453943,5.103871,-9.754315
1790539145.0018,-0.028189,-0.041595,-0.297745,-0.026124,-0.039891,-0.297745,0.400578,0.491382,-0.398413,2.293686,1.943571,-5.019350
1790539145.0158,-0.021954,-0.055838,-0.310071,-0.023205,-0.051054,-0.310071,0.989437,-0.181253,-0.649740,-3.340527,0.382011,-11.772497
1790539145.0298,-0.004033,-0.072942,-0.329790,-0.009784,-0.066375,-0.329790,1.333039,-0.988658,-0.950847,-2.957247,2.278191,-8.822846
1790539145.0434,0.003792,-0.081558,-0.342085,-0.000281,-0.077003,-0.342085,0.840097,-0.534569,-1.157252,0.568927,2.389731,-5.485084
1790539145.0571,0.008933,-0.085947,-0.357274,0.006169,-0.083264,-0.357274,0.530491,-0.296597,-1.067405,0.070663,2.910251,-6.494175
1790539145.0711,0.018477,-0.095328,-0.368931,0.014785,-0.091709,-0.368931,0.673760,-0.626843,-0.996985,0.185647,0.902531,-9.094525
1790539145.0850,0.000939,-0.094579,-0.374669,0.005093,-0.093718,-0.374669,-0.132431,1.245364,-1.026124,2.561982,-0.584669,-16.429840
1790539145.0989,-0.007701,-0.081013,-0.397934,-0.003863,-0.084824,-0.397934,-1.058821,0.861695,-0.842789,-4.030431,-0.993649,-15.304315
1790539145.1129,-0.000815,-0.065271,-0.422015,-0.001730,-0.071137,-0.422015,-1.282223,-0.087764,-0.817292,-6.100142,-1.923148,-10.025993
1790539145.1267,-0.010862,-0.046304,-0.437488,-0.008122,-0.053754,-0.437488,-1.563904,1.130020,-0.909567,-2.075704,-1.030829,-3.932637
1790539145.1406,-0.027407,-0.024362,-0.450568,-0.021621,-0.033179,-0.450568,-1.620969,1.199226,-0.901068,0.453943,0.084571,-1.953266
1790539145.1546,-0.030048,-0.007701,-0.464631,-0.027520,-0.015345,-0.464631,-1.216660,0.564230,-0.984843,-0.734224,0.121751,-2.186133
1790539145.1690,-0.029639,-0.008008,-0.476747,-0.029004,-0.010209,-0.476747,0.035121,0.232769,-0.828219,-1.462456,1.125611,-8.240679
1790539145.1829,-0.025617,-0.011439,-0.465644,-0.026633,-0.011070,-0.465644,0.361725,-0.371874,-0.117946,2.446998,4.397451,-12.626343
1790539145.1968,-0.029058,-0.014653,-0.461002,-0.028331,-0.013578,-0.461002,0.199030,0.197559,0.485483,-0.044320,1.088431,-8.551168
1790539145.2107,-0.018858,-0.022726,-0.450706,-0.021700,-0.019981,-0.450706,0.498923,-0.909738,0.842440,0.760567,0.530731,-9.094525
1790539145.2247,-0.019068,-0.035710,-0.447977,-0.019857,-0.030991,-0.447977,0.878950,-0.036770,0.406563,0.108991,0.493551,-7.891378
1790539145.2386,-0.033049,-0.044438,-0.433092,-0.029092,-0.040404,-0.433092,0.715040,0.815557,0.478198,2.676966,2.947431,-10.103616
1790539145.2525,-0.049247,-0.058692,-0.423142,-0.043200,-0.053206,-0.423142,1.021004,1.018319,0.668818,2.293686,1.794851,-12.859210
1790539145.2662,-0.062704,-0.069846,-0.403532,-0.056853,-0.064854,-0.403532,0.892305,0.825271,1.011206,1.297159,2.687171,-8.318301
1790539145.2799,-0.072386,-0.072367,-0.385647,-0.067726,-0.070113,-0.385647,0.413933,0.667432,0.934715,-0.044320,4.100011,-6.455364
1790539145.2938,-0.070872,-0.077254,-0.370107,-0.069928,-0.075111,-0.370107,0.396935,-0.158185,1.074342,-0.082648,2.464091,-8.007811
1790539145.3078,-0.057007,-0.077449,-0.354434,-0.060884,-0.076747,-0.354434,-0.082651,-1.102787,1.045202,0.875551,0.716631,-12.005364
1790539145.3215,-0.051150,-0.073106,-0.334375,-0.054070,-0.074199,-0.334375,-0.418968,-0.624415,1.043988,3.021918,0.382011,-14.256413
1790539145.3354,-0.048453,-0.073234,-0.316487,-0.050138,-0.073523,-0.316487,-0.194352,-0.461720,1.073127,4.171758,-1.960328,-12.898021
1790539145.3494,-0.040065,-0.067503,-0.299921,-0.043087,-0.069309,-0.299921,-0.517314,-0.795609,0.871580,1.948735,0.010211,-9.288581
1790539145.3634,-0.034897,-0.056926,-0.287577,-0.037354,-0.060641,-0.287577,-0.893698,-0.577064,0.655462,2.332014,-0.696209,-8.784035
1790539145.3775,-0.033053,-0.044188,-0.277734,-0.034343,-0.049124,-0.277734,-1.079462,-0.415583,0.691887,3.290214,-1.216729,-8.512357
1790539145.3916,-0.023632,-0.030216,-0.270413,-0.026845,-0.035889,-0.270413,-1.036967,-0.730045,0.360426,0.262303,0.753811,-7.774944
1790539145.4058,-0.012769,-0.014537,-0.266169,-0.016992,-0.020942,-0.266169,-1.155953,-0.845389,0.043535,0.913879,0.493551,-7.153965
1790539145.4204,-0.020513,-0.017080,-0.265851,-0.019457,-0.018239,-0.265851,0.037549,0.485311,-0.097306,2.485326,-1.588528,-18.331588
1790539145.4346,-0.021503,-0.035157,-0.281521,-0.020889,-0.030082,-0.281521,1.256548,0.365111,-0.913209,-3.570495,0.939711,-14.411658
1790539145.4487,-0.011552,-0.041127,-0.298485,-0.014353,-0.037814,-0.298485,0.481925,-0.464148,-1.128112,-1.730752,2.092291,-11.190329
1790539145.4628,-0.010160,-0.045955,-0.303524,-0.011418,-0.043512,-0.303524,0.316802,0.049434,-0.296425,-1.654096,0.753811,-9.754315
1790539145.4768,0.000056,-0.065291,-0.312074,-0.003386,-0.058757,-0.312074,1.330610,-0.536997,-0.569607,-3.148887,0.047391,-14.411658
1790539145.4908,0.025710,-0.085420,-0.342198,0.016981,-0.077421,-0.342198,1.568582,-1.374755,-0.859787,-3.992103,1.757671,-4.437182
1790539145.5044,0.035345,-0.093792,-0.338595,0.029836,-0.088880,-0.338595,0.993079,-0.696049,-1.020054,0.377287,3.467951,-3.583336
1790539145.5180,0.041809,-0.104670,-0.343354,0.038217,-0.099933,-0.343354,0.938443,-0.579492,-0.907138,1.335487,1.980751,-5.679140
1790539145.5320,0.038298,-0.116087,-0.359025,0.038274,-0.111241,-0.359025,0.919016,0.331115,-1.006698,-0.695896,2.835891,-9.715504
1790539145.5459,0.024401,-0.114344,-0.379613,0.028563,-0.113413,-0.379613,-0.162784,1.136091,-0.844003,-3.302199,0.716631,-19.806413
1790539145.5597,0.021062,-0.101746,-0.414066,0.023312,-0.105246,-0.414066,-1.026039,0.513236,-0.717732,-5.946830,-1.365448,-15.071448
1790539145.5736,0.025059,-0.084147,-0.444510,0.024535,-0.090477,-0.444510,-1.390282,0.172062,-0.837932,-6.138470,-0.919289,-7.192776
1790539145.5875,0.007021,-0.061623,-0.441229,0.012275,-0.070279,-0.441229,-1.792163,1.091168,-0.587819,1.182175,-0.473129,-2.457811
1790539145.6014,0.003768,-0.041753,-0.452775,0.006320,-0.050311,-0.452775,-1.657393,0.717212,-0.529540,-2.765607,-1.142369,-2.845923
1790539145.6153,-0.006818,-0.024683,-0.469392,-0.002877,-0.032371,-0.469392,-1.283437,0.924830,-0.661882,-1.079176,0.605091,-11.306763
1790539145.6292,-0.023329,-0.011301,-0.484748,-0.017193,-0.017622,-0.484748,-1.004185,1.338853,-0.533183,-0.925864,0.976891,-13.751868
1790539145.6432,-0.019307,-0.006146,-0.491718,-0.018673,-0.009589,-0.491718,-0.502744,-0.016130,-0.344991,-4.720334,-1.105189,-13.402567
1790539145.6571,-0.006102,-0.010367,-0.501510,-0.009873,-0.010134,-0.501510,0.065474,-0.861173,0.231727,-2.458983,-2.332128,-10.724595
1790539145.6716,-0.006429,-0.008407,-0.484968,-0.007462,-0.008925,-0.484968,-0.098435,-0.273528,0.463628,2.485326,1.348691,-5.912007
1790539145.6856,-0.004712,-0.016411,-0.486123,-0.005537,-0.014165,-0.486123,0.500137,-0.211607,0.470913,0.223975,0.456371,-9.055714
1790539145.6995,-0.005379,-0.028064,-0.472720,-0.005427,-0.023894,-0.472720,0.894733,-0.172754,0.444202,2.178703,1.906391,-7.891378
1790539145.7134,-0.016071,-0.041573,-0.463166,-0.012878,-0.036269,-0.463166,0.989437,0.558159,0.668818,2.753622,2.092291,-12.005364
1790539145.7270,-0.035183,-0.047865,-0.448105,-0.028491,-0.044386,-0.448105,0.528063,1.313356,0.688244,0.837223,2.910251,-11.811308
1790539145.7406,-0.038009,-0.051628,-0.427185,-0.035154,-0.049455,-0.427185,0.309517,0.195131,0.841226,-1.117504,2.538451,-11.772497
1790539145.7545,-0.042947,-0.052009,-0.408905,-0.040609,-0.051243,-0.408905,0.054547,0.232769,0.882507,0.645583,1.720491,-7.852567
1790539145.7689,-0.041615,-0.053269,-0.390444,-0.041313,-0.052661,-0.390444,0.109184,-0.177611,0.823014,0.223975,1.832031,-8.589979
1790539145.7829,-0.033413,-0.050896,-0.369345,-0.035783,-0.051425,-0.369345,-0.137287,-0.751900,0.912861,1.642111,2.873071,-12.238231
1790539145.7970,-0.028146,-0.043964,-0.357166,-0.030437,-0.046202,-0.357166,-0.544025,-0.647484,0.895863,3.980118,1.274331,-13.208511
1790539145.8107,-0.020585,-0.034542,-0.348252,-0.023540,-0.038040,-0.348252,-0.755286,-0.878171,0.791446,4.746677,0.605091,-11.733686
1790539145.8247,-0.007528,-0.018252,-0.332209,-0.012331,-0.024188,-0.332209,-1.128027,-1.220559,0.742881,1.757095,1.460231,-5.873196
1790539145.8387,0.002421,-0.002153,-0.324227,-0.002004,-0.008763,-0.324227,-1.188734,-0.949805,0.490339,1.910407,0.753811,-7.425644
1790539145.8526,-0.012268,-0.006780,-0.328607,-0.009189,-0.007375,-0.328607,0.223313,0.945471,0.018038,2.868606,-0.287229,-13.286133
1790539145.8666,-0.002765,-0.013846,-0.332147,-0.004692,-0.011905,-0.332147,0.705327,-0.325736,-0.716518,-4.835318,5.364131,-9.831937
1790539145.8804,0.003656,-0.024835,-0.347031,0.001152,-0.020956,-0.347031,0.848596,-0.193395,-1.158466,-1.807408,2.464091,-10.685784
1790539145.8943,0.003511,-0.037834,-0.363897,0.002803,-0.032771,-0.363897,0.903232,0.095571,-1.173035,1.105519,0.716631,-8.784035
1790539145.9085,0.007880,-0.044617,-0.372269,0.006357,-0.041063,-0.372269,0.462499,-0.307524,-0.646098,0.990535,0.790991,-7.619700
1790539145.9231,0.019850,-0.055562,-0.383425,0.015802,-0.051212,-0.383425,0.733253,-0.658411,-0.767512,-1.730752,1.088431,-11.539630
1790539145.9373,0.029905,-0.061648,-0.390444,0.025674,-0.058517,-0.390444,0.681044,-0.534569,-1.177892,-0.772552,3.914111,-5.950818
1790539145.9513,0.034804,-0.067745,-0.401439,0.032065,-0.064976,-0.401439,0.562059,-0.246817,-1.233743,0.032335,2.835891,-7.386832
1790539145.9649,0.033090,-0.071763,-0.414041,0.032783,-0.069727,-0.414041,0.336228,0.215771,-1.186391,0.108991,1.869211,-8.279490
1790539145.9786,0.041539,-0.082910,-0.428394,0.038912,-0.078955,-0.428394,0.753893,-0.515142,-0.902282,-0.849208,0.382011,-11.462007
1790539145.9925,0.032901,-0.092782,-0.434925,0.034705,-0.088634,-0.434925,0.672545,0.576371,-0.703162,2.102047,0.865351,-15.149070
1790539146.0064,0.016994,-0.087551,-0.448465,0.022307,-0.087876,-0.448465,-0.432324,1.234436,-0.638813,-1.079176,0.270471,-15.498371
1790539146.0203,0.012991,-0.078379,-0.487272,0.015786,-0.081228,-0.487272,-0.811136,0.621295,-0.812435,-3.953775,-1.291089,-8.318301
1790539146.0342,0.007941,-0.069546,-0.512464,0.010295,-0.073050,-0.512464,-0.828134,0.576371,-0.868286,-1.347472,-1.291089,-6.183686
1790539146.0481,-0.011284,-0.053501,-0.523496,-0.004810,-0.059366,-0.523496,-1.199662,1.336424,-0.618173,1.067191,0.158931,-5.058161
1790539146.0621,-0.018675,-0.040132,-0.535125,-0.014516,-0.045902,-0.535125,-1.089175,0.763349,-0.527112,-2.650623,-1.179549,-10.336483
1790539146.0761,-0.027327,-0.025381,-0.543050,-0.023484,-0.031538,-0.543050,-1.148668,0.918760,-0.614530,-3.877119,-0.659029,-11.850119
1790539146.0900,-0.018841,-0.021615,-0.549533,-0.020234,-0.024592,-0.549533,-0.394685,-0.403441,-0.329207,-3.455511,-0.993649,-13.674245
1790539146.1040,-0.019142,-0.023168,-0.533269,-0.019470,-0.023595,-0.533269,0.139537,-0.364589,0.518264,5.666549,1.980751,-9.016902
1790539146.1178,-0.022277,-0.031699,-0.529979,-0.021435,-0.029268,-0.529979,0.507422,0.047006,0.819372,1.373815,-0.064149,-10.841028
1790539146.1318,-0.014650,-0.044067,-0.511984,-0.016686,-0.039628,-0.511984,0.931158,-0.672981,0.858224,0.300631,2.055111,-8.861658
1790539146.1455,-0.021850,-0.054806,-0.504351,-0.020300,-0.050253,-0.504351,0.784247,0.355398,0.660319,1.527127,1.199971,-8.589979
1790539146.1595,-0.036254,-0.064087,-0.495318,-0.031468,-0.059936,-0.495318,0.677402,0.906618,0.679745,1.488799,1.832031,-11.462007
1790539146.1741,-0.047455,-0.078220,-0.482097,-0.042659,-0.072735,-0.482097,0.968796,0.632222,0.876436,1.335487,1.460231,-9.366203
1790539146.1879,-0.061017,-0.083257,-0.452370,-0.055509,-0.080101,-0.452370,0.558416,0.825271,0.982067,1.450471,3.616671,-6.804665
1790539146.2016,-0.065351,-0.089092,-0.431909,-0.062398,-0.086395,-0.431909,0.518349,0.216985,1.025776,0.722239,2.649991,-7.542077
1790539146.2156,-0.059042,-0.093508,-0.419660,-0.060049,-0.091374,-0.419660,0.219670,-0.481146,1.005135,-0.235960,0.419191,-13.169700
1790539146.2295,-0.054017,-0.093994,-0.409264,-0.055827,-0.093208,-0.409264,-0.075366,-0.464148,0.855796,1.565455,-0.250049,-13.557812
1790539146.2434,-0.045730,-0.093454,-0.399614,-0.048759,-0.093380,-0.399614,-0.211350,-0.802894,0.883721,3.443526,-1.625708,-11.966553
1790539146.2573,-0.034735,-0.085909,-0.387304,-0.038942,-0.088151,-0.387304,-0.632657,-1.114928,0.825442,3.941790,-0.101329,-7.813756
1790539146.2712,-0.030196,-0.075664,-0.376754,-0.032820,-0.079410,-0.376754,-0.875486,-0.577064,0.724669,2.408670,-0.659029,-6.921098
1790539146.2850,-0.028682,-0.064742,-0.365787,-0.029923,-0.069143,-0.365787,-0.954405,-0.391300,0.738024,3.328542,-1.216729,-8.434735
1790539146.2988,-0.025371,-0.051013,-0.360840,-0.026737,-0.056452,-0.360840,-1.073391,-0.456863,0.449058,2.945262,0.084571,-9.637881
1790539146.3126,-0.018070,-0.032370,-0.359866,-0.020670,-0.039595,-0.359866,-1.386640,-0.685122,0.167377,1.910407,0.716631,-8.124245
1790539146.3264,-0.007166,-0.011773,-0.357371,-0.011217,-0.020119,-0.357371,-1.549335,-0.957090,0.110313,1.833751,0.530731,-7.542077
1790539146.3402,-0.006008,0.001050,-0.349587,-0.007571,-0.005301,-0.349587,-1.069748,-0.126617,-0.132516,1.603783,-0.770569,-13.868301
1790539146.3540,-0.018323,-0.011985,-0.347585,-0.015098,-0.009980,-0.347585,0.881378,1.165230,-0.675237,-3.800463,0.642271,-17.788231
1790539146.3679,-0.013759,-0.032276,-0.359837,-0.014160,-0.025587,-0.359837,1.492091,-0.107191,-1.100187,-1.385800,2.575631,-16.546273
1790539146.3817,-0.011950,-0.030831,-0.357301,-0.012613,-0.029258,-0.357301,-0.123932,0.047006,-0.342562,-1.500784,0.753811,-7.580888
1790539146.3955,-0.008963,-0.039594,-0.355041,-0.010058,-0.036493,-0.355041,0.608196,0.030008,-0.369273,-3.877119,0.939711,-12.121798
1790539146.4095,0.012401,-0.055745,-0.355278,0.005663,-0.049970,-0.355278,1.129063,-1.277624,-0.563536,-3.187215,0.642271,-9.443825
1790539146.4237,0.024981,-0.066337,-0.377035,0.019185,-0.061427,-0.377035,0.899590,-0.874528,-0.734730,0.568927,2.910251,-7.464455
1790539146.4378,0.031491,-0.072375,-0.396121,0.027800,-0.069091,-0.396121,0.548703,-0.467791,-0.695878,0.645583,2.278191,-6.765853
1790539146.4519,0.047492,-0.081401,-0.404074,0.041584,-0.077708,-0.404074,0.628836,-0.925522,-0.824577,-2.152360,0.865351,-7.619700
1790539146.4659,0.034015,-0.090787,-0.415666,0.036286,-0.086863,-0.415666,0.678616,0.974610,-0.603603,0.568927,2.315371,-16.856763
1790539146.4797,0.015832,-0.079714,-0.426034,0.021968,-0.081859,-0.426034,-0.760142,1.434770,-0.641241,-2.535639,3.876931,-21.281238
1790539146.4937,0.009433,-0.060048,-0.435124,0.013193,-0.066592,-0.435124,-1.437633,0.743923,-0.572035,-5.678534,0.828171,-13.868301
1790539146.5079,0.003114,-0.044696,-0.454135,0.006138,-0.051265,-0.454135,-1.329575,0.749994,-0.528326,-2.420655,-1.848788,-5.213406
1790539146.5218,-0.021271,-0.024078,-0.496833,-0.013048,-0.032234,-0.496833,-1.130456,1.312142,-0.272142,1.527127,1.088431,0.064916
1790539146.5356,-0.033379,-0.006792,-0.505799,-0.027280,-0.014424,-0.505799,-1.188734,1.026818,-0.561108,-0.389272,1.869211,-7.969000
1790539146.5495,-0.029604,-0.001922,-0.510056,-0.028907,-0.005672,-0.510056,-0.296340,-0.084122,-0.519827,-1.922392,3.133331,-13.674245
1790539146.5634,-0.012075,-0.013962,-0.498201,-0.017124,-0.011475,-0.498201,0.982152,-1.436676,0.367711,1.948735,4.100011,-10.685784
1790539146.5773,-0.021873,-0.017528,-0.477643,-0.020448,-0.015712,-0.477643,0.372652,0.362682,0.813301,4.785005,4.323091,-10.608161
1790539146.5912,-0.022260,-0.025591,-0.456782,-0.021717,-0.022627,-0.456782,0.600911,-0.313595,1.171473,3.673494,2.761531,-11.500819
1790539146.6051,-0.019832,-0.040403,-0.444288,-0.020397,-0.035070,-0.444288,1.081711,-0.278385,1.067057,-0.465928,1.794851,-9.405014
1790539146.6190,-0.032903,-0.045085,-0.435811,-0.029152,-0.042081,-0.435811,0.310731,0.879907,0.751380,-0.044320,0.679451,-6.067252
1790539146.6330,-0.048102,-0.051112,-0.428827,-0.042417,-0.048403,-0.428827,0.434574,1.015891,0.739238,0.300631,1.869211,-10.879840
1790539146.6467,-0.054557,-0.061257,-0.420827,-0.050915,-0.057401,-0.420827,0.740537,0.385751,0.699172,0.760567,1.646131,-10.064805
1790539146.6604,-0.062981,-0.064662,-0.413194,-0.059361,-0.062484,-0.413194,0.328943,0.482883,0.722240,1.718767,3.207691,-10.220049
1790539146.6749,-0.059735,-0.063701,-0.407960,-0.059623,-0.063336,-0.407960,0.005981,-0.254102,0.769592,-0.235960,3.393591,-10.375294
1790539146.6888,-0.053143,-0.062719,-0.396667,-0.055087,-0.062904,-0.396667,-0.087507,-0.558851,0.929859,0.300631,1.832031,-10.414105
1790539146.7027,-0.045999,-0.061636,-0.377260,-0.048725,-0.062017,-0.377260,-0.196780,-0.649912,0.986923,1.220503,0.047391,-13.092077
1790539146.7167,-0.039359,-0.056472,-0.355878,-0.042169,-0.058136,-0.355878,-0.486960,-0.648698,0.954141,1.757095,-0.026969,-12.044175
1790539146.7306,-0.031837,-0.049474,-0.333795,-0.034937,-0.052073,-0.333795,-0.652084,-0.719118,0.700386,2.063719,-0.844929,-11.073895
1790539146.7445,-0.023845,-0.040835,-0.312211,-0.027172,-0.044206,-0.312211,-0.824492,-0.779825,0.317931,2.217030,-1.439808,-7.309210
1790539146.7584,-0.016665,-0.031789,-0.299139,-0.019817,-0.035515,-0.299139,-0.812350,-0.652340,0.205016,1.258831,-0.770569,-6.571797
1790539146.7722,-0.010875,-0.023874,-0.292360,-0.013558,-0.027366,-0.292360,-0.660583,-0.489645,0.066604,0.645583,0.084571,-6.261308
1790539146.7861,-0.018537,-0.029742,-0.291131,-0.017043,-0.029030,-0.291131,0.348370,0.606725,-0.252716,-0.005993,0.196111,-15.071448
1790539146.8000,-0.013567,-0.045934,-0.303144,-0.014610,-0.040863,-0.303144,1.158202,-0.091407,-0.973916,-2.880591,1.014071,-13.208511
1790539146.8138,-0.010025,-0.054703,-0.322159,-0.011401,-0.050551,-0.322159,0.705327,-0.028271,-1.069833,-1.309144,1.720491,-8.279490
1790539146.8277,-0.008203,-0.054720,-0.332777,-0.009162,-0.053469,-0.332777,0.015695,-0.127831,-0.620601,1.182175,1.237151,-9.831937
1790539146.8416,0.005453,-0.063751,-0.341427,0.001069,-0.060667,-0.341427,0.617909,-0.774969,-0.805150,-2.305671,0.567911,-11.306763
1790539146.8555,0.024748,-0.082172,-0.355625,0.017644,-0.075720,-0.355625,1.328182,-1.131926,-0.919280,-3.570495,1.125611,-10.957462
1790539146.8694,0.037577,-0.094508,-0.381365,0.031597,-0.088872,-0.381365,1.051358,-0.790753,-1.047979,-1.002520,3.170511,-7.736133
1790539146.8829,0.045994,-0.104243,-0.396463,0.041675,-0.099632,-0.396463,0.769677,-0.570993,-0.932635,-0.197632,1.646131,-8.163056
1790539146.8963,0.052506,-0.116915,-0.410338,0.049257,-0.111730,-0.410338,1.008863,-0.376730,-0.709233,-1.232488,1.646131,-7.736133
1790539146.9105,0.041181,-0.121320,-0.419350,0.043603,-0.118443,-0.419350,0.310731,0.856838,-0.511328,-1.577440,1.608951,-18.874945
1790539146.9252,0.026663,-0.115586,-0.430432,0.031745,-0.116443,-0.430432,-0.433538,1.120307,-0.517399,-3.187215,0.047391,-14.605714
1790539146.9391,0.029993,-0.111991,-0.445501,0.030518,-0.113327,-0.445501,-0.461463,0.105284,-0.546538,-5.831846,-2.889828,-8.706413
1790539146.9530,0.020678,-0.098275,-0.456060,0.023630,-0.102791,-0.456060,-1.073391,0.949113,-0.676451,-1.960720,-0.250049,-4.514804
1790539146.9680,-0.000203,-0.079019,-0.465541,0.006947,-0.086150,-0.465541,-1.257940,1.376491,-0.598746,0.453943,0.530731,-3.699769
1790539146.9827,-0.009897,-0.058771,-0.474021,-0.004844,-0.066985,-0.474021,-1.401209,0.867766,-0.501615,-1.692424,0.456371,-6.610609
1790539146.9972,-0.025031,-0.041036,-0.484928,-0.018975,-0.048821,-0.484928,-1.308934,1.088739,-0.284283,0.185647,-0.435949,-11.384385
1790539147.0120,-0.036152,-0.025476,-0.498509,-0.030999,-0.032479,-0.498509,-1.250656,0.912689,-0.359560,-1.347472,-2.183408,-9.055714
1790539147.0266,-0.014272,-0.020408,-0.491077,-0.019290,-0.024029,-0.491077,-0.503958,-1.271553,-0.121588,-4.835318,-1.774428,-12.121798
1790539147.0406,-0.007737,-0.027215,-0.495637,-0.011203,-0.026259,-0.495637,0.417576,-0.805322,0.585042,5.551565,0.530731,-12.393476
1790539147.0543,-0.007366,-0.039592,-0.485276,-0.008517,-0.035592,-0.485276,0.939657,-0.257744,0.852154,2.063719,2.166651,-10.297672
1790539147.0683,-0.012575,-0.051472,-0.472576,-0.011357,-0.046708,-0.472576,0.973653,0.140494,0.651820,2.063719,2.426911,-6.959909
1790539147.0821,-0.024050,-0.065299,-0.467753,-0.020242,-0.059722,-0.467753,1.016148,0.695357,0.525549,1.603783,1.497411,-10.025993
1790539147.0959,-0.043213,-0.080533,-0.459163,-0.036322,-0.074290,-0.459163,1.194627,1.263576,0.588685,1.795423,2.798711,-10.258860
1790539147.1094,-0.059406,-0.088724,-0.444184,-0.052481,-0.084394,-0.444184,0.783032,1.114236,0.661533,1.067191,3.653851,-8.318301
1790539147.1232,-0.066984,-0.092238,-0.427703,-0.062633,-0.089884,-0.427703,0.438216,0.529020,0.724669,0.070663,3.467951,-7.076343
1790539147.1371,-0.059732,-0.098179,-0.416753,-0.060602,-0.095691,-0.416753,0.377509,-0.562494,0.762307,0.415615,0.902531,-11.694875
1790539147.1509,-0.055644,-0.100990,-0.403281,-0.057132,-0.099400,-0.403281,0.151679,-0.392514,0.891006,1.335487,0.865351,-11.462007
1790539147.1651,-0.046774,-0.104332,-0.387460,-0.049881,-0.102852,-0.387460,0.094614,-0.753114,1.074342,1.642111,-0.882109,-12.160609
1790539147.1793,-0.041562,-0.105528,-0.369989,-0.044058,-0.104726,-0.369989,-0.072938,-0.596490,1.068271,3.520182,-1.328269,-10.608161
1790539147.1934,-0.029577,-0.100054,-0.352303,-0.033921,-0.101455,-0.352303,-0.496673,-1.029939,1.147190,1.642111,-0.287229,-8.163056
1790539147.2072,-0.028547,-0.087091,-0.339709,-0.030159,-0.091400,-0.339709,-1.060035,-0.447150,0.823014,4.440053,-0.733389,-7.076343
1790539147.2212,-0.021140,-0.069963,-0.327282,-0.023845,-0.076394,-0.327282,-1.356286,-0.787110,0.662747,3.750150,-0.956469,-10.336483
1790539147.2351,-0.014277,-0.048861,-0.323414,-0.017147,-0.057121,-0.323414,-1.571189,-0.743401,0.399279,3.635166,0.382011,-9.831937
1790539147.2489,-0.008750,-0.024134,-0.324627,-0.011269,-0.034030,-0.324627,-1.809161,-0.643841,0.172234,3.098574,0.902531,-7.969000
1790539147.2629,-0.010947,-0.009733,-0.316702,-0.011044,-0.017022,-0.316702,-1.129241,-0.039199,0.168592,4.018446,-0.026969,-12.975644
1790539147.2768,-0.028221,-0.018135,-0.313341,-0.023068,-0.017801,-0.313341,0.552345,1.506404,-0.546538,-3.838791,0.753811,-15.847672
1790539147.2906,-0.017689,-0.036841,-0.328239,-0.019302,-0.031129,-0.328239,1.418029,-0.175182,-1.134183,-7.211653,1.534591,-7.542077
1790539147.3045,-0.026007,-0.033390,-0.362462,-0.023996,-0.032712,-0.362462,-0.102077,0.342042,-0.325564,3.481854,2.129471,-5.407462
1790539147.3184,-0.018270,-0.041808,-0.355308,-0.019988,-0.039079,-0.355308,0.591198,-0.280813,-0.420267,-4.145415,1.051251,-11.345574
1790539147.3322,0.001002,-0.061351,-0.351471,-0.005295,-0.054669,-0.351471,1.367035,-1.131926,-0.621815,-3.072231,0.084571,-8.939280
1790539147.3458,0.016487,-0.071758,-0.378635,0.009953,-0.066632,-0.378635,1.071998,-1.055436,-0.800294,-0.159304,3.282051,-4.708860
1790539147.3594,0.019610,-0.078031,-0.393903,0.016713,-0.074611,-0.393903,0.645834,-0.290526,-0.714090,1.527127,3.207691,-7.309210
1790539147.3735,0.031470,-0.084798,-0.410946,0.027043,-0.081742,-0.410946,0.541418,-0.697264,-0.941134,-0.964192,1.608951,-7.153965
1790539147.3874,0.022411,-0.088128,-0.427706,0.023800,-0.086212,-0.427706,0.379937,0.729353,-0.788152,-0.427600,4.174371,-11.617252
1790539147.4016,0.007793,-0.080036,-0.444752,0.012595,-0.081889,-0.444752,-0.528241,1.172515,-0.810007,-2.650623,3.765391,-21.281238
1790539147.4157,0.003162,-0.059866,-0.445042,0.005992,-0.066473,-0.445042,-1.522623,0.713570,-0.655811,-6.330110,-0.584669,-10.258860
1790539147.4299,-0.005566,-0.043472,-0.446903,-0.002098,-0.050372,-0.446903,-1.374498,0.810701,-0.451835,-1.462456,-1.700068,-6.183686
1790539147.4446,-0.018393,-0.028158,-0.453481,-0.013504,-0.034822,-0.453481,-1.162023,0.998893,-0.344991,-0.542584,-0.435949,-5.291028
1790539147.4586,-0.033112,-0.006914,-0.450734,-0.027230,-0.015286,-0.450734,-1.180235,1.087525,-0.529540,0.415615,2.426911,-2.845923
1790539147.4727,-0.018949,-0.012618,-0.460331,-0.021433,-0.013419,-0.460331,0.314374,-0.813821,-0.514970,-3.417183,-0.324409,-18.409210
1790539147.4867,-0.008931,-0.021066,-0.452783,-0.012681,-0.018772,-0.452783,0.614267,-0.800466,0.362854,0.760567,2.910251,-16.002917
1790539147.5006,-0.023128,-0.031596,-0.444532,-0.019994,-0.027749,-0.444532,0.716255,0.958826,0.840012,-0.695896,1.199971,-12.626343
1790539147.5146,-0.018161,-0.043926,-0.430384,-0.018711,-0.039073,-0.430384,0.871665,-0.484789,0.939572,0.223975,1.348691,-9.327392
1790539147.5285,-0.024971,-0.053997,-0.425495,-0.023093,-0.049520,-0.425495,0.688329,0.471955,0.497624,-0.274288,0.567911,-7.270399
1790539147.5424,-0.043805,-0.056541,-0.416540,-0.037591,-0.054434,-0.416540,0.203887,1.184657,0.521907,2.332014,1.646131,-9.482637
1790539147.5564,-0.054739,-0.066331,-0.406640,-0.049595,-0.062762,-0.406640,0.685901,0.692929,0.747737,0.952207,1.460231,-11.073895
1790539147.5699,-0.064262,-0.072783,-0.396088,-0.059862,-0.069777,-0.396088,0.535347,0.626151,0.751380,0.683911,2.389731,-8.939280
1790539147.5835,-0.069094,-0.074661,-0.386676,-0.066325,-0.073195,-0.386676,0.208743,0.346899,0.791446,-0.312616,2.873071,-9.521448
1790539147.5974,-0.066168,-0.076118,-0.374299,-0.066215,-0.075241,-0.374299,0.174747,-0.266243,0.780519,0.415615,3.244871,-10.414105
1790539147.6113,-0.056830,-0.077543,-0.360878,-0.059646,-0.076853,-0.360878,0.048476,-0.745829,0.956570,0.415615,1.460231,-13.053266
1790539147.6252,-0.049531,-0.074254,-0.339952,-0.052565,-0.075033,-0.339952,-0.336407,-0.748258,0.927430,3.481854,0.233291,-12.587532
1790539147.6391,-0.041272,-0.068246,-0.319819,-0.044660,-0.070282,-0.319819,-0.571950,-0.833248,0.887364,3.021918,-0.621849,-10.181238
1790539147.6532,-0.030137,-0.054635,-0.302956,-0.034494,-0.059329,-0.302956,-1.038181,-1.025082,0.694315,2.255358,0.270471,-7.386832
1790539147.6672,-0.023743,-0.043721,-0.293667,-0.026968,-0.048403,-0.293667,-0.911910,-0.572207,0.297291,1.182175,-0.584669,-7.891378
1790539147.6811,-0.017308,-0.035150,-0.288150,-0.020206,-0.039126,-0.288150,-0.666653,-0.601346,0.129739,1.833751,0.493551,-8.473546
1790539147.6954,-0.016310,-0.030318,-0.286958,-0.017479,-0.032961,-0.286958,-0.391043,-0.112047,-0.134944,1.795423,0.716631,-14.993826
1790539147.7093,-0.012819,-0.032439,-0.297440,-0.014217,-0.032595,-0.297440,0.148036,-0.092621,-0.723803,-1.155832,1.534591,-14.062357
1790539147.7232,-0.006081,-0.044068,-0.320007,-0.008522,-0.040626,-0.320007,0.842525,-0.170326,-1.338159,-2.957247,1.237151,-12.742777
1790539147.7370,-0.013165,-0.053732,-0.341340,-0.011772,-0.049800,-0.341340,0.764820,0.543590,-1.321161,1.373815,1.199971,-5.795574
1790539147.7510,-0.006760,-0.054557,-0.357233,-0.008264,-0.053130,-0.357233,0.178390,-0.467791,-0.837932,1.182175,1.943571,-6.377742
1790539147.7648,0.003503,-0.060940,-0.372859,-0.000027,-0.058597,-0.372859,0.491638,-0.581920,-0.967845,-0.925864,1.423051,-9.637881
1790539147.7787,0.017829,-0.070767,-0.411675,0.012472,-0.067116,-0.411675,0.886234,-0.664482,-1.307805,-3.455511,3.430771,-7.386832
1790539147.7926,0.031086,-0.085046,-0.436066,0.025502,-0.079667,-0.436066,1.136348,-0.725189,-1.381868,-1.615768,2.538451,-7.697322
1790539147.8062,0.040237,-0.094223,-0.443482,0.035817,-0.089857,-0.443482,0.787889,-0.669338,-1.051621,0.607255,2.241011,-6.921098
1790539147.8197,0.039580,-0.107220,-0.451041,0.038451,-0.102011,-0.451041,0.861952,0.066432,-0.885284,0.492271,-0.733389,-16.352217
1790539147.8336,0.029751,-0.107729,-0.464156,0.032361,-0.106014,-0.464156,-0.006160,0.800988,-0.657025,-2.114032,0.493551,-18.525644
1790539147.8476,0.027047,-0.101889,-0.483245,0.028642,-0.103126,-0.483245,-0.479675,0.413676,-0.648526,-5.103614,-0.175689,-15.614805
1790539147.8615,0.022701,-0.093404,-0.503160,0.024483,-0.096320,-0.503160,-0.760142,0.622509,-0.857359,-3.187215,-1.105189,-6.843476
1790539147.8756,0.011267,-0.081150,-0.521735,0.015232,-0.085701,-0.521735,-0.994472,0.967325,-0.927779,-0.887536,-0.659029,-6.455364
1790539147.8896,-0.002338,-0.068944,-0.532140,0.002933,-0.073971,-0.532140,-1.080676,1.037745,-0.658239,0.032335,-1.068009,-4.165504
1790539147.9035,-0.011121,-0.052275,-0.542080,-0.006905,-0.058784,-0.542080,-1.243371,0.739067,-0.508900,-0.465928,0.270471,-7.386832
1790539147.9176,-0.022015,-0.032312,-0.551736,-0.017482,-0.040254,-0.551736,-1.545692,0.860481,-0.420267,-0.274288,-1.365448,-14.528091
1790539147.9318,-0.026439,-0.015417,-0.551501,-0.023752,-0.022868,-0.551501,-1.352644,0.592155,-0.517399,-3.110559,-1.774428,-9.366203
1790539147.9458,-0.008620,-0.015101,-0.555265,-0.013159,-0.017431,-0.555265,-0.149429,-1.323761,-0.052382,1.028863,-0.659029,-13.363756
1790539147.9597,-0.007522,-0.021195,-0.543160,-0.009213,-0.020066,-0.543160,0.389650,-0.437437,0.665176,5.436581,0.790991,-11.578441
1790539147.9735,-0.008585,-0.033152,-0.530980,-0.008774,-0.029226,-0.530980,0.877735,-0.235890,0.804802,2.102047,1.014071,-5.873196
1790539147.9873,-0.009695,-0.037217,-0.515343,-0.009419,-0.034819,-0.515343,0.467355,0.131995,0.302147,-0.772552,2.352551,-5.213406
1790539148.0013,-0.019748,-0.052337,-0.512286,-0.016649,-0.047082,-0.512286,1.057429,0.571515,0.350713,2.485326,1.051251,-12.121798
1790539148.0151,-0.038198,-0.066035,-0.506277,-0.031734,-0.060349,-0.506277,1.033146,1.160374,0.521907,2.408670,1.869211,-9.443825
1790539148.0286,-0.056101,-0.071472,-0.492936,-0.048791,-0.068135,-0.492936,0.633693,1.274503,0.638465,0.377287,3.691031,-6.494175
1790539148.0421,-0.059336,-0.075520,-0.483057,-0.056173,-0.073305,-0.483057,0.390865,0.289834,0.718598,-1.155832,2.724351,-8.395923
1790539148.0568,-0.060007,-0.084593,-0.473890,-0.058857,-0.081206,-0.473890,0.597269,0.038507,0.699172,-0.350944,1.348691,-11.229140
1790539148.0707,-0.054243,-0.087691,-0.461021,-0.055627,-0.085746,-0.461021,0.154107,-0.498144,0.880079,1.105519,0.902531,-15.071448
1790539148.0846,-0.046819,-0.083736,-0.444377,-0.049462,-0.084339,-0.444377,-0.366760,-0.709405,0.955356,2.791950,0.493551,-13.480189
1790539148.0986,-0.040771,-0.077893,-0.420394,-0.043378,-0.079827,-0.420394,-0.493031,-0.784682,0.990566,3.865134,0.307651,-7.270399
1790539148.1124,-0.032056,-0.068702,-0.403594,-0.035452,-0.072040,-0.403594,-0.733431,-0.891526,0.843655,2.485326,0.307651,-7.270399
1790539148.1263,-0.024579,-0.061451,-0.387206,-0.027841,-0.064628,-0.387206,-0.689722,-0.721546,0.679745,1.642111,-1.068009,-7.736133
1790539148.1402,-0.019402,-0.049223,-0.381608,-0.021934,-0.053844,-0.381608,-0.882771,-0.556423,0.430846,2.715294,1.497411,-10.996273
1790539148.1540,-0.012792,-0.031216,-0.380678,-0.015535,-0.038005,-0.380678,-1.295579,-0.676623,0.134596,3.405198,1.794851,-10.763406
1790539148.1680,-0.006901,-0.012438,-0.385718,-0.009491,-0.020108,-0.385718,-1.310149,-0.517571,-0.268500,2.217030,1.980751,-9.405014
1790539148.1827,-0.019589,-0.016759,-0.395796,-0.016560,-0.017764,-0.395796,0.268236,1.045030,-0.705591,-1.117504,1.051251,-12.160609
1790539148.1966,-0.016223,-0.029612,-0.418631,-0.016324,-0.026058,-0.418631,0.961511,0.195131,-1.287165,-5.371910,1.906391,-12.548721
1790539148.2106,-0.013766,-0.027353,-0.453272,-0.014534,-0.026964,-0.453272,0.151679,0.181775,-1.097759,-2.075704,3.839751,-4.864105
1790539148.2245,-0.009740,-0.035038,-0.460667,-0.011178,-0.032616,-0.460667,0.512279,-0.143615,-0.531968,-1.002520,0.493551,-9.133336
1790539148.2384,0.001903,-0.051755,-0.472090,-0.002022,-0.046013,-0.472090,1.152132,-0.591633,-0.854930,-3.417183,0.233291,-14.023546
1790539148.2522,0.016591,-0.065138,-0.486288,0.011007,-0.059401,-0.486288,1.062285,-0.887884,-1.037052,-1.424128,3.282051,-11.694875
1790539148.2658,0.028569,-0.071093,-0.495634,0.023300,-0.067586,-0.495634,0.589984,-0.838104,-1.152395,0.760567,3.393591,-8.434735
1790539148.2794,0.029340,-0.077758,-0.501052,0.027528,-0.074707,-0.501052,0.559630,-0.099906,-0.956918,1.258831,1.646131,-6.532986
1790539148.2933,0.023667,-0.087284,-0.514166,0.024825,-0.083511,-0.514166,0.679830,0.481668,-0.899854,-0.120976,1.125611,-10.103616
1790539148.3072,0.011288,-0.084809,-0.531967,0.015349,-0.084420,-0.531967,-0.223491,1.063242,-0.858573,-3.340527,0.605091,-20.078091
1790539148.3210,0.002870,-0.072596,-0.550006,0.006614,-0.076143,-0.550006,-0.981116,0.856838,-0.768726,-4.605350,-1.030829,-15.614805
1790539148.3349,0.003222,-0.058770,-0.565682,0.004240,-0.063982,-0.565682,-1.125599,0.360254,-0.807579,-5.793518,-1.328269,-10.220049
1790539148.3488,-0.009490,-0.040630,-0.574868,-0.005371,-0.047635,-0.574868,-1.351429,0.924830,-0.669167,0.722239,0.196111,-5.368651
1790539148.3627,-0.019251,-0.023790,-0.588210,-0.015087,-0.030944,-0.588210,-1.277367,0.979467,-0.618173,-0.772552,0.010211,-2.613056
1790539148.3766,-0.027962,-0.012649,-0.601489,-0.024099,-0.018137,-0.601489,-0.824492,0.915117,-0.718946,-3.072231,0.902531,-11.811308
1790539148.3906,-0.027593,-0.003021,-0.605623,-0.026545,-0.007556,-0.605623,-0.673938,0.107713,-0.295211,-1.615768,2.575631,-14.295224
1790539148.4045,-0.018917,-0.008986,-0.604285,-0.021205,-0.008557,-0.604285,0.348370,-0.653554,0.300933,-0.427600,0.902531,-18.719700
1790539148.4186,-0.031067,-0.016385,-0.581166,-0.028108,-0.014036,-0.581166,0.503780,0.488953,0.950499,4.516709,1.497411,-9.793126
1790539148.4332,-0.027587,-0.031319,-0.568418,-0.027744,-0.026134,-0.568418,0.914160,-0.465362,0.894648,1.412143,0.010211,-7.309210
1790539148.4473,-0.032835,-0.038666,-0.554293,-0.031307,-0.034907,-0.554293,0.727182,0.410034,0.168592,-0.504256,3.616671,-6.843476
1790539148.4613,-0.045638,-0.048874,-0.551388,-0.041339,-0.044684,-0.551388,0.691972,0.837412,0.321573,1.603783,0.865351,-12.587532
1790539148.4752,-0.055589,-0.060272,-0.540273,-0.051314,-0.055595,-0.540273,0.861952,0.606725,0.614182,1.833751,3.058971,-13.557812
1790539148.4888,-0.069446,-0.065334,-0.523317,-0.064006,-0.062412,-0.523317,0.484353,0.849553,0.786590,2.178703,3.728211,-9.676693
1790539148.5024,-0.074794,-0.068305,-0.512831,-0.071558,-0.066537,-0.512831,0.308303,0.380895,0.847297,-0.312616,2.649991,-7.348021
1790539148.5164,-0.071118,-0.074039,-0.508691,-0.071250,-0.071789,-0.508691,0.413933,-0.198251,0.745309,-1.270816,1.646131,-8.046623
1790539148.5302,-0.067154,-0.076347,-0.493921,-0.068383,-0.074979,-0.493921,0.188103,-0.391300,0.657891,1.412143,2.166651,-10.297672
1790539148.5440,-0.057025,-0.075583,-0.483107,-0.060432,-0.075402,-0.483107,-0.126360,-0.834462,0.588685,1.718767,0.642271,-13.557812
1790539148.5579,-0.050392,-0.069576,-0.470634,-0.053404,-0.071324,-0.470634,-0.512457,-0.632914,0.493982,2.983590,0.158931,-12.859210
1790539148.5717,-0.038319,-0.063243,-0.460323,-0.042844,-0.065668,-0.460323,-0.614445,-1.046937,0.474555,2.217030,-1.030829,-9.637881
1790539148.5854,-0.029916,-0.051641,-0.450148,-0.033794,-0.055849,-0.450148,-0.955619,-0.796823,0.400493,2.025391,-0.324409,-7.774944
1790539148.5994,-0.020324,-0.037649,-0.441240,-0.024365,-0.043109,-0.441240,-1.132884,-0.920666,0.320359,2.178703,-0.473129,-6.261308
1790539148.6131,-0.015989,-0.024807,-0.435820,-0.018502,-0.030297,-0.435820,-1.072177,-0.552781,0.205016,2.983590,-0.696209,-7.969000
1790539148.6268,-0.011012,-0.013932,-0.431674,-0.013259,-0.018841,-0.431674,-0.917981,-0.439865,-0.007459,1.642111,-0.621849,-12.160609
1790539148.6408,-0.017190,-0.020569,-0.438028,-0.016011,-0.020051,-0.438028,0.360511,0.541161,-0.625457,0.377287,-0.993649,-16.468651
1790539148.6548,-0.015333,-0.033852,-0.453327,-0.015536,-0.029712,-0.453327,0.940871,0.146565,-1.073476,-3.187215,1.311511,-16.352217
1790539148.6687,-0.021136,-0.036005,-0.496744,-0.019456,-0.034117,-0.496744,0.415147,0.297119,-0.961775,2.753622,3.096151,-4.786483
1790539148.6830,-0.013796,-0.043716,-0.504472,-0.015494,-0.040836,-0.504472,0.577842,-0.365803,-0.392342,-0.964192,1.088431,-6.106063
1790539148.6971,-0.001885,-0.062481,-0.510587,-0.005968,-0.055987,-0.510587,1.272332,-0.632914,-0.615744,-2.727279,-0.101329,-11.073895
1790539148.7109,0.019651,-0.078843,-0.526555,0.011965,-0.071986,-0.526555,1.387675,-1.378397,-0.852502,-1.385800,3.244871,-6.804665
1790539148.7245,0.034715,-0.088449,-0.540253,0.027890,-0.083510,-0.540253,0.990651,-0.975302,-0.928993,-0.772552,3.467951,-5.135783
1790539148.7380,0.037411,-0.100275,-0.539450,0.034555,-0.095245,-0.539450,1.013719,-0.302667,-0.629100,1.297159,2.092291,-5.950818
1790539148.7519,0.019128,-0.107691,-0.550466,0.023756,-0.103957,-0.550466,0.475854,1.372849,-0.756585,-0.389272,0.010211,-17.167252
1790539148.7658,0.008463,-0.101344,-0.565556,0.013051,-0.102128,-0.565556,-0.512457,0.917545,-0.633956,-3.378855,-0.250049,-18.913756
1790539148.7796,0.011777,-0.092571,-0.582221,0.012159,-0.095438,-0.582221,-0.796566,0.022723,-0.665524,-5.716862,-3.075728,-14.722147
1790539148.7935,0.003468,-0.078436,-0.595095,0.006075,-0.083537,-0.595095,-1.129241,0.736638,-0.682522,-0.734224,-0.473129,-5.950818
1790539148.8073,-0.004008,-0.056296,-0.607604,-0.000983,-0.064468,-0.607604,-1.639181,0.741495,-0.576892,-1.845736,0.270471,-8.046623
1790539148.8212,-0.014070,-0.040467,-0.615209,-0.010144,-0.047667,-0.615209,-1.421850,0.892048,-0.541682,-0.810880,-2.109048,-5.485084
1790539148.8350,-0.024138,-0.025953,-0.620814,-0.019940,-0.032467,-0.620814,-1.036967,0.970968,-0.457906,-2.573967,1.348691,-9.599070
1790539148.8490,-0.033213,-0.007586,-0.627343,-0.029231,-0.015050,-0.627343,-1.315005,0.791275,-0.326778,-1.079176,1.460231,-10.530539
1790539148.8629,-0.030031,0.006108,-0.629295,-0.029791,-0.000240,-0.629295,-1.012684,-0.141187,-0.074237,-1.692424,2.203831,-17.788231
1790539148.8768,-0.018856,0.001184,-0.622765,-0.022137,0.000757,-0.622765,0.233026,-1.057864,0.491553,3.903462,-0.101329,-13.829490
1790539148.8907,-0.020270,-0.002970,-0.607722,-0.020830,-0.001852,-0.607722,0.253666,-0.258958,0.865509,3.443526,1.014071,-8.551168
1790539148.9045,-0.019383,-0.006139,-0.584423,-0.019817,-0.004853,-0.584423,0.416361,-0.323308,0.869152,1.642111,3.839751,-6.765853
1790539148.9185,-0.020562,-0.011634,-0.572250,-0.020339,-0.009600,-0.572250,0.398149,-0.181253,0.620252,3.136902,1.943571,-9.948371
1790539148.9331,-0.029663,-0.022668,-0.560279,-0.026866,-0.018747,-0.560279,0.766034,0.382109,0.734382,3.328542,2.352551,-11.850119
1790539148.9468,-0.043206,-0.027292,-0.550205,-0.038304,-0.024729,-0.550205,0.460071,0.785204,0.854582,1.603783,3.207691,-7.697322
1790539148.9604,-0.049860,-0.028945,-0.544159,-0.046393,-0.027680,-0.544159,0.212386,0.459814,0.824228,-0.657568,2.835891,-7.774944
1790539148.9745,-0.048864,-0.029603,-0.534922,-0.048123,-0.029026,-0.534922,0.061832,-0.126617,0.847297,-0.504256,2.278191,-9.288581
1790539148.9885,-0.051185,-0.031487,-0.523435,-0.050266,-0.030749,-0.523435,0.035121,0.060361,0.816943,0.415615,0.419191,-9.754315
1790539149.0025,-0.049491,-0.029844,-0.512471,-0.049724,-0.030115,-0.512471,-0.123932,-0.222534,0.799945,0.377287,2.166651,-10.608161
1790539149.0164,-0.039881,-0.026963,-0.501432,-0.042834,-0.027908,-0.501432,-0.120289,-0.782254,0.736810,0.108991,4.100011,-11.112707
1790539149.0303,-0.033738,-0.017300,-0.484731,-0.036467,-0.020482,-0.484731,-0.644799,-0.651126,0.706456,2.102047,2.984611,-10.025993
1790539149.0451,-0.024023,-0.012424,-0.470298,-0.027756,-0.014842,-0.470298,-0.381330,-0.811393,0.587471,1.297159,1.088431,-10.414105
1790539149.0598,-0.026103,-0.013667,-0.460937,-0.026599,-0.014020,-0.460937,0.031478,0.019080,0.248725,2.370342,1.014071,-13.519000
1790539149.0742,-0.020173,-0.015236,-0.469268,-0.022101,-0.014871,-0.469268,0.185675,-0.323308,-0.343776,-0.504256,3.021791,-10.918651
1790539149.0885,-0.019611,-0.018815,-0.481121,-0.020358,-0.017632,-0.481121,0.344727,0.060361,-0.771154,0.530599,2.798711,-9.676693
1790539149.1035,-0.013999,-0.027608,-0.505971,-0.015907,-0.024615,-0.505971,0.592412,-0.086550,-1.205817,-1.500784,0.902531,-8.201867
1790539149.1176,-0.016410,-0.031981,-0.508752,-0.016259,-0.029771,-0.508752,0.455214,0.129567,-1.064977,2.178703,2.241011,-5.912007
1790539149.1314,-0.015025,-0.037235,-0.511453,-0.015395,-0.034996,-0.511453,0.417576,-0.122974,-0.777225,1.450471,1.125611,-6.416553
1790539149.1453,-0.003220,-0.048404,-0.527142,-0.006873,-0.044381,-0.527142,0.742966,-0.660839,-1.067405,-1.079176,0.010211,-12.238231
1790539149.1592,0.003065,-0.056121,-0.548002,0.000084,-0.052599,-0.548002,0.668903,-0.314809,-1.317518,0.262303,2.835891,-9.210958
1790539149.1733,0.015487,-0.061609,-0.573572,0.010866,-0.058906,-0.573572,0.473426,-0.685122,-1.441361,-0.734224,2.278191,-8.628791
1790539149.1872,0.019556,-0.066980,-0.589387,0.016949,-0.064558,-0.589387,0.358083,-0.173968,-1.239813,-0.005993,0.605091,-7.115154
1790539149.2008,0.026263,-0.078964,-0.600228,0.023469,-0.074642,-0.600228,0.848596,-0.415583,-0.915637,-0.082648,0.567911,-8.473546
1790539149.2147,0.010426,-0.082493,-0.607459,0.014339,-0.080138,-0.607459,0.212386,1.164016,-0.746872,1.182175,0.679451,-16.895574
1790539149.2286,0.003648,-0.074558,-0.633924,0.006855,-0.076232,-0.633924,-0.656940,0.753636,-0.776011,-4.758662,-0.844929,-14.411658
1790539149.2425,0.004282,-0.065375,-0.656418,0.005054,-0.068632,-0.656418,-0.824492,0.263123,-0.740801,-4.796990,-2.146228,-11.578441
1790539149.2563,-0.000713,-0.051582,-0.677146,0.001017,-0.056697,-0.677146,-1.123171,0.746351,-0.914423,-3.838791,-0.882109,-7.580888
1790539149.2704,-0.019118,-0.034171,-0.690783,-0.013077,-0.040929,-0.690783,-1.288294,1.377705,-0.831862,0.415615,0.121751,-4.126693
1790539149.2843,-0.028067,-0.021247,-0.702873,-0.023570,-0.027152,-0.702873,-1.135312,0.978252,-0.687379,-2.037376,-1.439808,-5.329839
1790539149.2982,-0.041279,-0.004473,-0.715333,-0.035966,-0.011277,-0.715333,-1.197233,1.143376,-0.623029,-1.232488,1.646131,-12.936833
1790539149.3121,-0.032224,-0.007804,-0.723293,-0.033347,-0.008846,-0.723293,-0.001303,-0.453221,-0.365631,-4.605350,-5.975768,-21.281238
1790539149.3259,-0.031404,-0.016619,-0.715922,-0.031987,-0.014287,-0.715922,0.562059,-0.309952,0.560759,4.938317,0.902531,-16.158161
1790539149.3397,-0.037782,-0.023932,-0.700195,-0.036044,-0.021038,-0.700195,0.461285,0.106498,0.876436,4.746677,0.790991,-10.569350
1790539149.3537,-0.020896,-0.038163,-0.657699,-0.025440,-0.033026,-0.657699,0.849810,-0.879385,0.458771,-2.535639,-0.696209,-2.962357
1790539149.3676,-0.030898,-0.047903,-0.652381,-0.029261,-0.043440,-0.652381,0.808529,0.571515,0.192874,2.408670,2.947431,-9.172147
1790539149.3815,-0.046839,-0.064925,-0.649726,-0.041566,-0.058480,-0.649726,1.231051,0.958826,0.485483,4.018446,1.869211,-13.557812
1790539149.3955,-0.061431,-0.076794,-0.634340,-0.055472,-0.071299,-0.634340,0.946942,0.845911,0.883721,2.523654,3.393591,-9.405014
1790539149.4091,-0.076639,-0.083369,-0.619522,-0.070289,-0.079748,-0.619522,0.579057,1.035317,0.866723,0.875551,2.873071,-8.434735
1790539149.4230,-0.081351,-0.091660,-0.610171,-0.078032,-0.088086,-0.610171,0.549917,0.411248,0.876436,-1.539112,1.199971,-9.754315
1790539149.4380,-0.070689,-0.096047,-0.597929,-0.072892,-0.093659,-0.597929,0.206315,-0.748258,0.844869,0.300631,0.605091,-12.742777
1790539149.4521,-0.066127,-0.094225,-0.586721,-0.068157,-0.094055,-0.586721,-0.212564,-0.460506,0.807230,2.561982,0.456371,-12.936833
1790539149.4661,-0.060490,-0.093883,-0.581385,-0.062790,-0.093935,-0.581385,-0.241704,-0.655983,0.923788,4.593365,-2.369308,-11.888930
1790539149.4801,-0.054366,-0.092131,-0.575049,-0.056893,-0.092672,-0.575049,-0.331550,-0.669338,0.803588,3.673494,-2.071868,-10.181238
1790539149.4940,-0.041027,-0.081322,-0.564892,-0.045787,-0.084727,-0.564892,-0.893698,-1.116143,0.791446,1.412143,-0.212869,-7.697322
1790539149.5080,-0.041090,-0.064316,-0.559445,-0.042499,-0.070439,-0.559445,-1.351429,-0.322094,0.655462,3.098574,-0.547489,-5.795574
1790539149.5218,-0.035322,-0.045211,-0.551398,-0.037476,-0.052779,-0.551398,-1.538407,-0.612274,0.501266,2.561982,-1.105189,-9.521448
1790539149.5357,-0.023958,-0.027356,-0.541377,-0.028013,-0.034983,-0.541377,-1.512910,-0.985015,0.296076,2.063719,-2.034688,-8.822846
1790539149.5496,-0.016667,-0.004774,-0.549765,-0.020071,-0.013836,-0.549765,-1.691389,-0.817464,0.115169,2.868606,0.233291,-5.717951
1790539149.5636,-0.015062,0.013534,-0.556576,-0.016565,0.005323,-0.556576,-1.289508,-0.237104,0.033822,1.795423,1.980751,-8.667602
1790539149.5774,-0.035535,0.004301,-0.566907,-0.029844,0.004608,-0.566907,0.659190,1.567111,-0.521041,1.642111,2.501271,-19.728791
1790539149.5912,-0.025762,-0.010648,-0.554217,-0.026987,-0.006071,-0.554217,1.250477,-0.197037,-1.117185,-6.291782,4.323091,-9.909560
1790539149.6049,-0.040558,-0.006781,-0.600008,-0.036487,-0.006568,-0.600008,0.131038,0.817986,-0.325564,3.711822,4.806431,-3.156413
1790539149.6187,-0.039412,-0.016210,-0.597400,-0.038534,-0.013318,-0.597400,0.611838,0.032436,-0.476118,-0.235960,0.047391,-10.879840
1790539149.6326,-0.028557,-0.033133,-0.598132,-0.031550,-0.027188,-0.598132,1.216481,-0.556423,-0.657025,-2.037376,1.088431,-10.491728
1790539149.6461,-0.015453,-0.046114,-0.609400,-0.020282,-0.040436,-0.609400,1.041645,-0.788324,-0.879213,-0.810880,1.832031,-8.007811
1790539149.6597,-0.004749,-0.051897,-0.626570,-0.009409,-0.048459,-0.626570,0.600911,-0.702120,-0.943563,0.338959,3.170511,-7.930189
1790539149.6735,0.006455,-0.059133,-0.640951,0.001696,-0.055931,-0.640951,0.586341,-0.696049,-0.945991,-0.197632,1.608951,-7.658511
1790539149.6877,0.013946,-0.068525,-0.656991,0.010271,-0.064747,-0.656991,0.708970,-0.420439,-1.023696,-0.159304,1.832031,-9.599070
1790539149.7018,0.001409,-0.065857,-0.674119,0.004067,-0.065524,-0.674119,-0.114219,1.006178,-0.907138,-0.542584,3.951291,-16.507462
1790539149.7158,-0.015523,-0.046849,-0.683430,-0.009646,-0.052452,-0.683430,-1.301650,1.478479,-0.644884,-4.911974,3.133331,-15.459560
1790539149.7298,-0.017192,-0.027472,-0.670190,-0.014928,-0.034966,-0.670190,-1.449775,0.578800,-0.629100,-8.361493,-0.361589,-11.035084
1790539149.7437,-0.031355,-0.014846,-0.680437,-0.026427,-0.020882,-0.680437,-0.976259,1.173729,-0.533183,-0.504256,0.084571,-7.425644
1790539149.7576,-0.030371,-0.006820,-0.679331,-0.029188,-0.011039,-0.679331,-0.531883,0.459814,-0.538039,-2.727279,0.567911,-2.690678
1790539149.7714,-0.016255,-0.019923,-0.681778,-0.020134,-0.017258,-0.681778,0.970010,-0.874528,-0.327993,-1.807408,1.980751,-11.190329
1790539149.7854,-0.033193,-0.022858,-0.666909,-0.029276,-0.021178,-0.666909,0.348370,0.945471,0.535262,3.750150,3.876931,-8.939280
1790539149.7993,-0.029743,-0.033315,-0.663952,-0.029602,-0.029674,-0.663952,0.606982,-0.238318,0.795089,-2.727279,-0.844929,-15.537182
1790539149.8131,-0.031733,-0.038750,-0.650878,-0.031094,-0.036027,-0.650878,0.338656,-0.014916,1.011206,0.952207,1.199971,-12.548721
1790539149.8270,-0.035078,-0.044785,-0.643392,-0.033883,-0.042157,-0.643392,0.343513,0.201202,0.815729,-0.427600,0.158931,-6.494175
1790539149.8410,-0.051557,-0.054004,-0.630461,-0.046255,-0.050450,-0.630461,0.613053,0.796131,0.905576,3.635166,0.567911,-6.067252
1790539149.8550,-0.060501,-0.070364,-0.616276,-0.056227,-0.064390,-0.616276,1.122992,0.498666,1.042774,0.990535,0.976891,-8.318301
1790539149.8685,-0.073284,-0.080745,-0.599444,-0.068167,-0.075838,-0.599444,0.785461,0.904190,1.192113,-0.312616,2.129471,-8.473546
1790539149.8821,-0.076460,-0.080977,-0.583501,-0.073972,-0.079435,-0.583501,0.120111,0.315331,1.046416,-2.037376,3.765391,-9.094525
1790539149.8959,-0.067822,-0.084006,-0.568754,-0.069667,-0.082635,-0.568754,0.209957,-0.570993,1.165402,-1.960720,2.241011,-9.870749
1790539149.9098,-0.055314,-0.078570,-0.551465,-0.059620,-0.079790,-0.551465,-0.502744,-1.044508,1.166616,1.795423,0.530731,-14.178791
1790539149.9237,-0.052147,-0.070991,-0.534905,-0.054389,-0.073631,-0.534905,-0.667867,-0.464148,1.045202,4.210086,-0.138509,-14.644525
1790539149.9381,-0.047578,-0.064852,-0.523609,-0.049622,-0.067485,-0.523609,-0.642370,-0.579492,0.886149,4.286742,-2.443668,-11.811308
1790539149.9522,-0.030092,-0.049196,-0.513235,-0.035951,-0.054683,-0.513235,-1.227587,-1.400252,0.634822,1.067191,-0.064149,-6.998721
1790539149.9661,-0.029025,-0.034413,-0.504494,-0.031103,-0.040494,-0.504494,-1.239728,-0.418011,0.603254,3.443526,-1.068009,-6.610609
1790539149.9800,-0.021517,-0.021409,-0.494139,-0.024393,-0.027134,-0.494139,-1.086746,-0.770112,0.621467,1.757095,-0.547489,-6.921098
1790539149.9938,-0.014177,-0.010124,-0.486971,-0.017241,-0.015227,-0.486971,-0.947120,-0.598918,0.282721,0.415615,-0.398769,-8.939280
1790539150.0076,-0.017993,-0.007613,-0.483441,-0.017767,-0.009897,-0.483441,-0.325479,0.267979,0.096957,0.185647,-0.956469,-12.742777
1790539150.0216,-0.024252,-0.018837,-0.488902,-0.022307,-0.016155,-0.488902,0.715040,0.554517,-0.500401,-0.159304,-0.287229,-16.701518
1790539150.0355,-0.023315,-0.029741,-0.501144,-0.023013,-0.025666,-0.501144,0.866808,0.136852,-0.993342,-0.849208,2.649991,-11.500819
1790539150.0495,-0.027836,-0.029107,-0.533451,-0.026389,-0.028074,-0.533451,0.200244,0.076145,-0.511328,4.286742,3.728211,-5.407462
1790539150.0635,-0.018160,-0.038993,-0.533712,-0.020629,-0.035718,-0.533712,0.664046,-0.589205,-0.370488,-0.887536,0.605091,-12.238231
1790539150.0775,-0.001372,-0.059740,-0.535822,-0.007149,-0.052533,-0.535822,1.469023,-0.981373,-0.678880,-2.918919,0.976891,-12.315854
1790539150.0915,0.014691,-0.075314,-0.547344,0.008139,-0.068480,-0.547344,1.252905,-1.049365,-0.808793,-0.504256,2.761531,-8.279490
1790539150.1049,0.023834,-0.083858,-0.558255,0.019125,-0.079244,-0.558255,0.668903,-0.698478,-0.743229,0.913879,1.274331,-7.891378
1790539150.1185,0.030641,-0.094580,-0.568955,0.027186,-0.089980,-0.568955,0.778176,-0.488431,-0.791795,0.492271,0.828171,-9.870749
1790539150.1324,0.030428,-0.105496,-0.584124,0.029455,-0.100841,-0.584124,0.874093,0.054290,-0.868286,0.070663,2.575631,-10.025993
1790539150.1462,0.014836,-0.106887,-0.596141,0.019222,-0.105073,-0.596141,0.052119,1.168873,-0.879213,0.338959,0.233291,-17.400119
1790539150.1602,0.007803,-0.101082,-0.600674,0.011229,-0.102279,-0.600674,-0.520956,0.802202,-0.881641,-4.988630,-1.291089,-11.267951
1790539150.1741,0.005281,-0.093633,-0.603891,0.007065,-0.096227,-0.603891,-0.755286,0.467099,-0.735944,-3.570495,-2.741108,-8.318301
1790539150.1886,-0.003295,-0.074452,-0.607993,-0.000187,-0.080984,-0.607993,-1.440062,0.870194,-0.530754,-3.417183,-1.105189,-7.969000
1790539150.2028,-0.011825,-0.049207,-0.612295,-0.008333,-0.058740,-0.612295,-1.839515,0.879907,-0.525898,-1.730752,-0.026969,-4.631238
1790539150.2170,-0.025632,-0.027903,-0.625023,-0.020443,-0.037154,-0.625023,-1.628254,1.178586,-0.529540,-1.462456,-0.770569,-7.813756
1790539150.2308,-0.038419,-0.010478,-0.620998,-0.033026,-0.018480,-0.620998,-1.126813,1.172515,-0.491902,-1.999048,2.910251,-8.395923
1790539150.2446,-0.027127,-0.013911,-0.626815,-0.028897,-0.015282,-0.626815,0.128610,-0.612274,-0.136158,-4.950302,-0.807749,-16.585084
1790539150.2586,-0.016830,-0.017103,-0.623303,-0.020450,-0.016557,-0.623303,0.156535,-0.760399,0.361640,-0.734224,0.865351,-15.459560
1790539150.2726,-0.018030,-0.016217,-0.615184,-0.018756,-0.016319,-0.615184,-0.018301,-0.197037,0.903147,2.906934,2.873071,-10.608161
1790539150.2864,-0.011023,-0.023283,-0.599041,-0.013343,-0.021194,-0.599041,0.485568,-0.482360,0.712527,-1.769080,1.051251,-8.395923
1790539150.3003,-0.017074,-0.035606,-0.599451,-0.015955,-0.031282,-0.599451,0.840097,0.214557,0.738024,2.217030,0.828171,-10.181238
1790539150.3142,-0.030719,-0.046275,-0.585519,-0.026290,-0.041777,-0.585519,0.821885,0.882335,0.798731,0.492271,2.278191,-9.560259
1790539150.3276,-0.047030,-0.055249,-0.567842,-0.040808,-0.051208,-0.567842,0.719897,1.114236,0.971139,0.377287,2.649991,-10.297672
1790539150.3412,-0.058189,-0.058470,-0.544746,-0.052975,-0.056292,-0.544746,0.335014,0.723283,1.069485,0.377287,3.244871,-8.900469
1790539150.3551,-0.060999,-0.063031,-0.526901,-0.058592,-0.061009,-0.526901,0.288877,0.121068,1.098624,0.032335,1.497411,-9.754315
1790539150.3691,-0.066372,-0.066559,-0.512879,-0.064038,-0.064894,-0.512879,0.220885,0.230341,0.974782,1.335487,1.274331,-8.201867
1790539150.3830,-0.062159,-0.071832,-0.497517,-0.062723,-0.069751,-0.497517,0.377509,-0.382801,0.806016,0.760567,2.241011,-11.850119
1790539150.3968,-0.050771,-0.066937,-0.487410,-0.054357,-0.067781,-0.487410,-0.388615,-1.025082,0.792661,3.251886,1.720491,-12.781588
1790539150.4108,-0.040301,-0.057774,-0.485898,-0.044518,-0.060776,-0.485898,-0.761356,-0.994728,0.725883,4.210086,0.047391,-13.130889
1790539150.4249,-0.032823,-0.046536,-0.498255,-0.036331,-0.050808,-0.498255,-0.931336,-0.925522,0.636036,4.593365,-0.659029,-6.843476
1790539150.4394,-0.021182,-0.031473,-0.496342,-0.025727,-0.037274,-0.496342,-1.100102,-1.037223,0.337357,2.408670,0.382011,-6.882287
1790539150.4534,-0.007750,-0.017182,-0.497576,-0.013143,-0.023210,-0.497576,-1.056393,-1.142854,0.009539,2.063719,0.605091,-6.649420
1790539150.4675,-0.006923,-0.013322,-0.502419,-0.008789,-0.016288,-0.502419,-0.343691,-0.101120,-0.284283,2.370342,0.530731,-15.537182
1790539150.4814,-0.013311,-0.017844,-0.515305,-0.011954,-0.017377,-0.515305,0.393293,0.684430,-0.975130,-1.385800,3.430771,-14.023546
1790539150.4953,-0.003804,-0.027142,-0.529852,-0.006249,-0.024213,-0.529852,0.730824,-0.224962,-1.714543,-5.026958,2.910251,-13.596623
1790539150.5091,-0.009479,-0.033680,-0.550396,-0.008510,-0.030840,-0.550396,0.768463,0.490167,-1.387939,0.952207,2.761531,-3.816203
1790539150.5229,-0.006604,-0.040036,-0.562714,-0.007176,-0.037277,-0.562714,0.570558,-0.067124,-0.890140,-0.197632,1.869211,-6.144874
1790539150.5368,-0.001597,-0.054057,-0.577300,-0.003270,-0.049023,-0.577300,0.990651,-0.137544,-1.051621,-1.807408,0.753811,-11.539630
1790539150.5507,0.013971,-0.066871,-0.592933,0.008799,-0.061516,-0.592933,1.055000,-0.876957,-1.300520,-1.692424,2.873071,-8.318301
1790539150.5642,0.020656,-0.075490,-0.609396,0.017099,-0.071298,-0.609396,0.757535,-0.388871,-1.478999,0.300631,2.352551,-7.037532
1790539150.5778,0.029660,-0.081224,-0.623457,0.025892,-0.078246,-0.623457,0.536562,-0.600132,-1.323589,0.338959,1.869211,-5.679140
1790539150.5916,0.027724,-0.090367,-0.637415,0.027174,-0.086731,-0.637415,0.518349,0.180561,-1.016411,0.683911,-1.514168,-13.596623
1790539150.6055,0.008174,-0.090979,-0.651691,0.013874,-0.089704,-0.651691,0.004767,1.471194,-0.931421,0.338959,0.753811,-19.263056
1790539150.6195,0.005230,-0.076821,-0.669791,0.007823,-0.080686,-0.669791,-1.058821,0.471955,-0.846431,-5.256926,0.344831,-16.119350
1790539150.6334,0.007199,-0.063480,-0.689271,0.007386,-0.068642,-0.689271,-1.168094,0.182989,-0.740801,-4.720334,-2.889828,-9.909560
1790539150.6474,-0.005392,-0.043166,-0.707151,-0.001558,-0.050809,-0.707151,-1.580902,1.154303,-0.881641,-1.232488,-0.510309,-5.174595
1790539150.6614,-0.021386,-0.024702,-0.726494,-0.015438,-0.032534,-0.726494,-1.455846,1.304857,-0.800294,-0.197632,-0.510309,-5.174595
1790539150.6753,-0.030869,-0.006089,-0.734624,-0.026240,-0.014022,-0.734624,-1.334431,0.997679,-0.852502,-1.730752,0.716631,-6.532986
1790539150.6899,-0.034521,0.007511,-0.733994,-0.032037,0.001051,-0.733994,-0.733431,0.385751,-0.851288,0.683911,5.029511,-10.103616
1790539150.7040,-0.018079,-0.009405,-0.740362,-0.022267,-0.006268,-0.740362,1.035574,-1.045722,0.010753,-2.382327,-1.142369,-11.229140
1790539150.7179,-0.033545,-0.009651,-0.733734,-0.030162,-0.008636,-0.733734,0.032693,0.833770,0.653034,3.405198,1.943571,-9.094525
1790539150.7319,-0.018846,-0.016737,-0.720482,-0.022240,-0.014307,-0.720482,0.468570,-1.071219,0.671246,-1.462456,1.348691,-10.375294
1790539150.7457,-0.013335,-0.029270,-0.716085,-0.016006,-0.024781,-0.716085,0.877735,-0.472647,0.366497,0.338959,0.865351,-7.774944
1790539150.7596,-0.023987,-0.036999,-0.713336,-0.021593,-0.033334,-0.713336,0.568129,0.575157,0.357998,2.063719,1.162791,-7.192776
1790539150.7737,-0.041059,-0.047598,-0.703133,-0.035219,-0.043319,-0.703133,0.810958,1.041388,0.636036,2.178703,2.575631,-10.025993
1790539150.7874,-0.050284,-0.055040,-0.683499,-0.045765,-0.051523,-0.683499,0.681044,0.694143,0.748951,-1.002520,3.244871,-7.891378
1790539150.8010,-0.060882,-0.055939,-0.667115,-0.056347,-0.054614,-0.667115,0.148036,0.728139,0.825442,-0.005993,2.984611,-9.210958
1790539150.8148,-0.056359,-0.057011,-0.653013,-0.056356,-0.056292,-0.653013,0.083687,-0.324522,0.882507,-1.194160,2.278191,-10.414105
1790539150.8287,-0.047298,-0.053592,-0.640005,-0.050015,-0.054402,-0.640005,-0.291483,-0.716690,0.887364,-0.197632,1.497411,-11.578441
1790539150.8427,-0.038431,-0.048822,-0.626392,-0.041906,-0.050496,-0.626392,-0.426253,-0.799252,1.003921,1.565455,0.828171,-13.674245
1790539150.8563,-0.033269,-0.042796,-0.613713,-0.035860,-0.045106,-0.613713,-0.554952,-0.625629,1.075556,2.140375,0.158931,-9.948371
1790539150.8704,-0.023167,-0.032945,-0.605638,-0.026975,-0.036593,-0.605638,-0.831777,-0.850245,0.866723,0.377287,-0.250049,-9.172147
1790539150.8843,-0.017431,-0.025324,-0.605004,-0.020294,-0.028704,-0.605004,-0.709148,-0.573421,0.501266,1.565455,-0.993649,-9.676693
1790539150.8981,-0.010825,-0.016506,-0.605067,-0.013666,-0.020166,-0.605067,-0.720075,-0.586777,0.177091,1.258831,0.196111,-8.900469
1790539150.9119,-0.012506,-0.017948,-0.610416,-0.012854,-0.018613,-0.610416,0.055761,0.028793,-0.189580,2.523654,0.753811,-11.462007
1790539150.9259,-0.011227,-0.029754,-0.618081,-0.011715,-0.026412,-0.618081,0.838883,0.121068,-0.709233,-1.692424,1.088431,-10.025993
1790539150.9406,-0.009476,-0.046122,-0.634207,-0.010148,-0.040209,-0.634207,1.079283,0.036078,-1.022482,-0.197632,0.382011,-8.395923
1790539150.9547,-0.012361,-0.050074,-0.645977,-0.011697,-0.047115,-0.645977,0.302232,0.094357,-0.693449,3.481854,1.348691,-9.560259
1790539150.9687,-0.007310,-0.052208,-0.655116,-0.008626,-0.050680,-0.655116,0.152893,-0.331807,-0.625457,0.990535,1.311511,-12.432287
1790539150.9819,0.005685,-0.063813,-0.664955,0.001392,-0.059873,-0.664955,0.818243,-0.811393,-0.933849,-1.539112,0.121751,-13.674245
1790539150.9950,0.016122,-0.069356,-0.661687,0.011703,-0.066511,-0.661687,0.702899,-0.539425,-1.098973,-1.654096,3.542311,-5.523895
1790539151.0082,0.030097,-0.076992,-0.672024,0.024579,-0.073848,-0.672024,0.648263,-0.915809,-1.101401,-0.619240,1.460231,-6.222497
1790539151.0217,0.034496,-0.084571,-0.682019,0.031521,-0.081354,-0.682019,0.615481,-0.377944,-0.945991,1.105519,1.274331,-5.795574
1790539151.0352,0.039501,-0.098382,-0.689805,0.037107,-0.093273,-0.689805,1.021004,-0.326950,-0.646098,-0.350944,1.460231,-13.519000
1790539151.0493,0.025624,-0.103236,-0.700066,0.029069,-0.100247,-0.700066,0.320444,1.054743,-0.635171,-1.040848,1.014071,-16.973196
1790539151.0633,0.013239,-0.098990,-0.711554,0.017988,-0.099367,-0.711554,-0.353405,1.026818,-0.579320,-2.612295,0.047391,-14.528091
1790539151.0771,0.013198,-0.094746,-0.730153,0.014635,-0.096133,-0.730153,-0.456607,0.326258,-0.641241,-3.647151,-1.328269,-6.843476
1790539151.0911,0.007975,-0.083508,-0.747108,0.009973,-0.087295,-0.747108,-0.964118,0.702642,-0.813649,-2.727279,-1.105189,-5.485084
1790539151.1050,-0.004883,-0.070145,-0.765187,-0.000426,-0.075290,-0.765187,-1.121957,1.043816,-0.518613,-0.580912,-0.919289,-5.756762
1790539151.1194,-0.009320,-0.052289,-0.764212,-0.006652,-0.059190,-0.764212,-1.306506,0.583656,-0.412983,-2.573967,-0.212869,-6.300119
1790539151.1351,-0.018815,-0.030200,-0.775855,-0.015166,-0.038897,-0.775855,-1.500769,0.703856,-0.229647,-0.849208,-0.287229,-8.667602
1790539151.1495,-0.030618,-0.010841,-0.778901,-0.025982,-0.019258,-0.778901,-1.349001,1.012248,-0.419053,-1.654096,1.051251,-9.443825
1790539151.1638,-0.017680,-0.005125,-0.786147,-0.020171,-0.009364,-0.786147,-0.567094,-0.796823,0.018038,-2.727279,-1.551348,-13.945924
1790539151.1788,-0.009559,-0.016552,-0.797048,-0.012743,-0.014395,-0.797048,0.616695,-0.784682,0.622681,2.791950,-0.844929,-11.811308
1790539151.1928,-0.013634,-0.020909,-0.773483,-0.013367,-0.018955,-0.773483,0.423646,0.045791,0.920145,1.910407,3.207691,-8.706413
1790539151.2067,-0.010934,-0.021850,-0.730271,-0.011664,-0.020982,-0.730271,0.234240,-0.057411,0.427204,-1.999048,2.501271,-5.912007
1790539151.2207,-0.019798,-0.029675,-0.723724,-0.017358,-0.027067,-0.723724,0.620337,0.495024,0.342214,1.642111,2.203831,-8.706413
1790539151.2345,-0.033022,-0.039900,-0.716261,-0.028322,-0.036050,-0.716261,0.798816,0.797345,0.451487,2.446998,2.835891,-11.306763
1790539151.2481,-0.049949,-0.046915,-0.696643,-0.043461,-0.043655,-0.696643,0.679830,1.115451,0.597184,1.373815,3.505131,-8.007811
1790539151.2618,-0.056961,-0.051251,-0.675938,-0.052911,-0.048973,-0.675938,0.457642,0.501095,0.638465,-0.312616,3.058971,-7.503266
1790539151.2758,-0.058932,-0.057848,-0.662647,-0.057126,-0.055185,-0.662647,0.480711,0.037292,0.655462,0.990535,1.720491,-8.861658
1790539151.2899,-0.059998,-0.062083,-0.647515,-0.059137,-0.060014,-0.647515,0.341085,-0.012487,0.643321,0.990535,2.464091,-10.336483
1790539151.3037,-0.046299,-0.060941,-0.637668,-0.050150,-0.060663,-0.637668,-0.151857,-1.053007,0.768378,0.032335,1.088431,-13.829490
1790539151.3176,-0.038509,-0.053412,-0.638523,-0.042001,-0.055587,-0.638523,-0.629015,-0.853888,0.744095,4.401726,0.382011,-10.802217
1790539151.3314,-0.034058,-0.044803,-0.640722,-0.036441,-0.048038,-0.640722,-0.704292,-0.637771,0.655462,3.558510,0.233291,-7.736133
1790539151.3453,-0.023946,-0.036216,-0.635536,-0.027694,-0.039763,-0.635536,-0.664225,-0.887884,0.440559,1.143847,0.530731,-6.106063
1790539151.3593,-0.019796,-0.029333,-0.632669,-0.022166,-0.032462,-0.632669,-0.483318,-0.493288,0.254796,2.715294,1.571771,-9.133336
1790539151.3732,-0.010919,-0.019077,-0.630615,-0.014293,-0.023092,-0.630615,-0.739502,-0.784682,0.118812,2.676966,1.832031,-12.005364
1790539151.3872,-0.010244,-0.009261,-0.637293,-0.011458,-0.013410,-0.637293,-0.715219,-0.129045,-0.369273,3.865134,2.055111,-15.614805
1790539151.4012,-0.011643,-0.008724,-0.650872,-0.011588,-0.010130,-0.650872,-0.007374,0.362682,-0.882856,-2.114032,2.166651,-11.306763
1790539151.4152,-0.003848,-0.016764,-0.669327,-0.006170,-0.014774,-0.669327,0.592412,-0.215249,-1.278666,-2.880591,1.869211,-11.772497
1790539151.4293,0.002412,-0.022815,-0.677361,-0.000162,-0.020403,-0.677361,0.572986,-0.223748,-0.841575,-1.002520,2.241011,-5.562707
1790539151.4437,-0.001305,-0.035422,-0.685351,-0.000962,-0.030916,-0.685351,0.900804,0.326258,-0.596318,0.300631,1.460231,-8.357112
1790539151.4578,0.014505,-0.047438,-0.702210,0.009865,-0.042482,-0.702210,0.832812,-0.863601,-1.061334,-2.765607,1.162791,-11.966553
1790539151.4717,0.019428,-0.060395,-0.719166,0.016559,-0.055021,-0.719166,0.921445,-0.209178,-1.282308,-0.159304,1.423051,-11.539630
1790539151.4853,0.025573,-0.069889,-0.733583,0.022869,-0.065429,-0.733583,0.742966,-0.280813,-1.293236,-0.695896,1.683311,-7.930189
1790539151.4989,0.035760,-0.076483,-0.739742,0.031892,-0.073166,-0.739742,0.613053,-0.669338,-1.000627,-0.082648,1.794851,-5.096972
1790539151.5128,0.033339,-0.089784,-0.747004,0.032905,-0.084799,-0.747004,0.960297,0.184204,-0.672809,0.722239,1.794851,-14.799770
1790539151.5267,0.019449,-0.090129,-0.758792,0.023486,-0.088530,-0.758792,0.041192,1.138519,-0.649740,-2.995575,2.649991,-19.534735
1790539151.5405,0.014815,-0.074629,-0.789997,0.017416,-0.078799,-0.789997,-1.210589,0.668646,-0.629100,-7.978213,-0.659029,-15.343126
1790539151.5544,0.011315,-0.058015,-0.825220,0.013145,-0.064251,-0.825220,-1.431563,0.627365,-0.806365,-3.148887,-1.700068,-5.485084
1790539151.5683,0.000349,-0.040219,-0.853268,0.004187,-0.047429,-0.853268,-1.516553,1.036531,-0.867072,-1.194160,-1.328269,-5.174595
1790539151.5822,-0.016309,-0.027373,-0.826316,-0.010160,-0.033390,-0.826316,-1.367213,0.950327,-0.535611,1.680439,-2.146228,-1.138231
1790539151.5961,-0.023724,-0.013151,-0.827683,-0.019655,-0.019223,-0.827683,-0.990829,0.782776,-0.630314,-1.692424,1.311511,-7.658511
1790539151.6100,-0.024517,-0.012552,-0.838497,-0.023058,-0.014553,-0.838497,-0.051083,0.124711,-0.548966,1.143847,2.389731,-19.612357
1790539151.6238,-0.017119,-0.023964,-0.838010,-0.018901,-0.021141,-0.838010,0.745394,-0.493288,0.154022,-2.037376,0.605091,-21.281238
1790539151.6376,-0.021514,-0.026872,-0.834294,-0.020730,-0.025153,-0.834294,0.106755,0.229127,0.782947,-0.120976,0.047391,-8.201867
1790539151.6516,-0.007674,-0.037043,-0.809712,-0.011591,-0.033476,-0.809712,0.767249,-1.049365,0.912861,-0.887536,1.683311,-7.697322
1790539151.6654,-0.005610,-0.051931,-0.830688,-0.007404,-0.046395,-0.830688,0.769677,-0.182467,0.531620,-0.312616,-1.476988,-3.855014
1790539151.6793,-0.023668,-0.062786,-0.829227,-0.018789,-0.057869,-0.829227,0.817028,1.099667,0.572901,3.750150,2.538451,-13.713056
1790539151.6937,-0.038176,-0.077041,-0.817285,-0.032360,-0.071289,-0.817285,0.993079,0.932115,0.750166,0.645583,1.906391,-13.596623
1790539151.7073,-0.054355,-0.080989,-0.790173,-0.047756,-0.078079,-0.790173,0.439430,1.049887,0.939572,1.450471,3.282051,-8.046623
1790539151.7209,-0.063436,-0.083094,-0.767180,-0.058732,-0.081589,-0.767180,0.200244,0.617652,0.991780,0.185647,2.203831,-8.900469
1790539151.7348,-0.057781,-0.085298,-0.745558,-0.058067,-0.084185,-0.745558,0.121325,-0.396156,1.026990,-0.964192,1.237151,-9.599070
1790539151.7487,-0.057740,-0.085841,-0.736909,-0.057838,-0.085344,-0.736909,-0.037728,-0.149686,0.943214,2.217030,0.716631,-12.898021
1790539151.7625,-0.048638,-0.088014,-0.733363,-0.051398,-0.087213,-0.733363,-0.001303,-0.766470,0.929859,1.105519,-0.919289,-11.578441
1790539151.7766,-0.040407,-0.085700,-0.732451,-0.043704,-0.086154,-0.732451,-0.295126,-0.859959,1.017277,3.405198,-0.435949,-9.366203
1790539151.7905,-0.033050,-0.080684,-0.731409,-0.036246,-0.082325,-0.731409,-0.520956,-0.776183,0.961426,2.753622,-1.030829,-8.861658
1790539151.8046,-0.024818,-0.072324,-0.729289,-0.028247,-0.075324,-0.729289,-0.755286,-0.852674,0.840012,2.906934,-1.142369,-8.279490
1790539151.8186,-0.019100,-0.059779,-0.726392,-0.021844,-0.064442,-0.726392,-1.007827,-0.703334,0.650606,3.213558,-0.473129,-7.658511
1790539151.8325,-0.010553,-0.042730,-0.726256,-0.013940,-0.049244,-0.726256,-1.298007,-0.755542,0.341000,1.603783,0.158931,-9.482637
1790539151.8465,0.001015,-0.024497,-0.728189,-0.003471,-0.031921,-0.728189,-1.397567,-1.012941,0.103028,2.638638,-0.138509,-9.560259
1790539151.8606,-0.003353,-0.014161,-0.737231,-0.003388,-0.019489,-0.737231,-0.717647,0.266765,-0.244217,1.757095,2.241011,-12.199420
1790539151.8745,-0.012147,-0.025077,-0.734313,-0.009520,-0.023401,-0.734313,0.779390,0.934543,-0.969060,-3.493839,1.794851,-16.041728
1790539151.8885,0.001735,-0.035477,-0.696535,-0.001642,-0.031854,-0.696535,1.052572,-0.564922,-1.384296,-3.263871,5.029511,-6.455364
1790539151.9024,-0.003225,-0.035318,-0.723389,-0.002750,-0.034279,-0.723389,0.338656,0.040935,-0.372916,3.750150,4.062831,-2.962357
1790539151.9163,0.007215,-0.050631,-0.722002,0.004225,-0.045726,-0.722002,1.031932,-0.495716,-0.627886,-4.030431,-0.101329,-12.936833
1790539151.9304,0.025211,-0.067181,-0.724311,0.018916,-0.060744,-0.724311,1.278402,-1.009298,-0.961775,-3.417183,3.282051,-10.491728
1790539151.9444,0.037216,-0.081119,-0.737170,0.031726,-0.075007,-0.737170,1.105994,-0.700906,-1.318733,-0.925864,3.021791,-9.016902
1790539151.9580,0.039983,-0.087284,-0.748166,0.037506,-0.083601,-0.748166,0.655547,-0.188538,-1.047979,0.530599,2.984611,-5.756762
1790539151.9720,0.053147,-0.099638,-0.761274,0.048454,-0.094827,-0.761274,0.817028,-0.808965,-0.949633,-1.577440,0.233291,-10.181238
1790539151.9860,0.041068,-0.105101,-0.775341,0.043284,-0.102019,-0.775341,0.341085,0.913903,-0.928993,-0.235960,0.753811,-13.674245
1790539151.9999,0.026803,-0.092940,-0.786022,0.031748,-0.095664,-0.786022,-0.902197,1.229580,-0.658239,-4.260399,0.976891,-14.683336
1790539152.0138,0.031348,-0.078705,-0.802870,0.031468,-0.083792,-0.802870,-1.169308,-0.001560,-0.712876,-6.368438,-1.774428,-12.044175
1790539152.0277,0.024649,-0.057527,-0.817743,0.026695,-0.065407,-0.817743,-1.658607,0.868980,-0.811221,-2.880591,-0.510309,-4.786483
1790539152.0416,0.010814,-0.038999,-0.854463,0.015578,-0.046922,-0.854463,-1.644038,0.922402,-0.609674,0.837223,-1.291089,-3.234035
1790539152.0554,0.002182,-0.022391,-0.841863,0.006201,-0.029750,-0.841863,-1.312577,1.029246,-0.563536,-2.650623,-0.361589,-4.592427
1790539152.0693,-0.016220,-0.010138,-0.848103,-0.009494,-0.016022,-0.848103,-0.863344,1.535544,-0.657025,-1.500784,1.869211,-11.112707
1790539152.0830,0.002376,-0.010945,-0.858347,-0.001185,-0.012468,-0.858347,-0.034085,-1.224201,-0.539253,-1.960720,0.121751,-21.281238
1790539152.0970,0.005338,-0.011888,-0.847343,0.003381,-0.012062,-0.847343,0.179604,-0.437437,0.536477,3.060246,4.508991,-12.626343
1790539152.1109,0.000774,-0.012235,-0.842635,0.001556,-0.012183,-0.842635,0.067903,-0.084122,0.996636,4.516709,2.315371,-9.521448
1790539152.1246,0.017839,-0.026051,-0.815750,0.012954,-0.021891,-0.815750,0.937228,-1.087003,0.832727,-3.608823,-0.064149,-6.532986
1790539152.1384,0.007757,-0.039298,-0.835301,0.009316,-0.034076,-0.835301,0.891091,0.304404,0.515836,2.485326,0.010211,-3.622147
1790539152.1523,-0.011403,-0.052072,-0.835602,-0.005187,-0.046673,-0.835602,0.904447,1.191942,0.587471,2.830278,1.237151,-12.742777
1790539152.1658,-0.029949,-0.063871,-0.820401,-0.022520,-0.058712,-0.820401,0.970010,1.160374,1.034275,2.063719,2.910251,-9.521448
1790539152.1794,-0.043429,-0.071624,-0.799147,-0.037156,-0.067750,-0.799147,0.608196,0.930901,1.166616,-0.389272,2.612811,-11.500819
1790539152.1932,-0.050018,-0.074464,-0.765043,-0.046160,-0.072450,-0.765043,0.395721,0.407606,1.161760,-0.082648,3.914111,-7.192776
1790539152.2071,-0.042298,-0.078753,-0.748189,-0.043456,-0.076862,-0.748189,0.253666,-0.596490,1.062200,-0.542584,1.014071,-10.957462
1790539152.2210,-0.036159,-0.076724,-0.734996,-0.038348,-0.076765,-0.734996,-0.167641,-0.634128,0.960212,3.021918,1.832031,-14.256413
1790539152.2348,-0.027828,-0.072809,-0.725048,-0.030984,-0.073996,-0.725048,-0.388615,-0.782254,0.988137,2.178703,-0.212869,-13.053266
1790539152.2487,-0.017905,-0.065745,-0.718799,-0.021829,-0.068220,-0.718799,-0.644799,-0.968017,0.883721,3.405198,-1.030829,-11.500819
1790539152.2629,-0.002779,-0.053091,-0.711681,-0.008494,-0.057630,-0.711681,-1.027253,-1.323761,0.795089,2.025391,-0.696209,-7.192776
1790539152.2769,-0.000176,-0.032137,-0.700515,-0.002671,-0.039785,-0.700515,-1.515339,-0.697264,0.587471,4.440053,0.456371,-4.281937
1790539152.2906,0.013711,-0.012711,-0.691727,0.008796,-0.020833,-0.691727,-1.444918,-1.243628,0.678531,1.412143,0.642271,-7.231588
1790539152.3046,0.011686,-0.005578,-0.688839,0.010819,-0.010154,-0.688839,-0.557380,-0.061053,0.400493,2.408670,0.828171,-10.414105
1790539152.3184,-0.001027,-0.013097,-0.698150,0.002527,-0.012214,-0.698150,0.596055,0.902976,-0.239360,1.450471,3.356411,-13.363756
1790539152.3322,0.009597,-0.015410,-0.709923,0.007476,-0.014451,-0.709923,0.294947,-0.545496,-1.005484,-1.424128,3.765391,-9.831937
1790539152.3460,0.001996,-0.025582,-0.719269,0.003640,-0.022243,-0.719269,0.657976,0.451315,-0.830647,2.217030,0.047391,-5.446273
1790539152.3598,0.005970,-0.031959,-0.726651,0.005271,-0.029044,-0.726651,0.502566,-0.235890,-0.419053,0.032335,1.534591,-7.386832
1790539152.3737,0.016947,-0.049004,-0.730354,0.013444,-0.043016,-0.730354,1.194627,-0.663268,-0.606031,-1.270816,0.939711,-12.354665
1790539152.3876,0.039555,-0.072454,-0.734130,0.031721,-0.063623,-0.734130,1.682712,-1.337116,-1.013983,-3.800463,1.460231,-10.608161
1790539152.4013,0.051042,-0.081369,-0.752249,0.045246,-0.076045,-0.752249,0.848596,-0.742187,-1.097759,-0.389272,3.542311,-6.765853
1790539152.4148,0.061609,-0.089904,-0.766596,0.056700,-0.085746,-0.766596,0.564487,-0.706977,-1.136611,-0.235960,0.456371,-7.309210
1790539152.4287,0.053513,-0.100602,-0.784230,0.054469,-0.096146,-0.784230,0.751465,0.634650,-1.109900,0.032335,1.906391,-13.557812
1790539152.4427,0.033742,-0.095428,-0.800093,0.039960,-0.095643,-0.800093,-0.438395,1.398346,-1.089260,1.795423,0.567911,-14.411658
1790539152.4570,0.028817,-0.084367,-0.805120,0.032160,-0.087750,-0.805120,-0.915552,0.645578,-1.125684,-4.758662,-1.365448,-11.617252
1790539152.4711,0.026022,-0.073620,-0.811057,0.027863,-0.077859,-0.811057,-0.949548,0.531448,-1.134183,-4.452038,-2.071868,-10.025993
1790539152.4849,0.010198,-0.054900,-0.822872,0.015498,-0.061788,-0.822872,-1.503197,1.338853,-0.947205,-0.772552,-0.547489,-5.329839
1790539152.4989,0.007546,-0.032884,-0.827196,0.009932,-0.041555,-0.827196,-1.669535,0.707499,-0.875571,-4.145415,-0.324409,-4.631238
1790539152.5127,-0.004558,-0.015955,-0.839613,-0.000211,-0.023635,-0.839613,-1.330789,1.089954,-0.732302,-1.040848,-0.212869,-6.649420
1790539152.5266,-0.011786,0.001376,-0.844388,-0.008314,-0.006128,-0.844388,-1.151096,0.672289,-0.586605,-0.619240,3.058971,-9.327392
1790539152.5405,0.001676,0.000864,-0.851660,-0.001321,-0.001234,-0.851660,-0.076580,-0.880599,-0.391128,-1.040848,-0.361589,-17.943476
1790539152.5544,-0.000453,-0.006367,-0.860198,-0.000713,-0.004827,-0.860198,0.457642,-0.121760,0.495196,4.363398,0.790991,-13.441378
1790539152.5683,-0.000020,-0.016900,-0.848843,-0.000228,-0.013278,-0.848843,0.797602,-0.228605,0.928644,0.798895,2.092291,-9.366203
1790539152.5821,0.005308,-0.028208,-0.829554,0.003647,-0.023729,-0.829554,0.891091,-0.290526,0.549832,-1.347472,1.162791,-4.320748
1790539152.5959,-0.002032,-0.031562,-0.827122,-0.000328,-0.029212,-0.827122,0.417576,0.349327,0.410206,1.603783,3.058971,-6.571797
1790539152.6097,-0.012616,-0.045389,-0.822181,-0.008930,-0.040536,-0.822181,1.002792,0.662576,0.532834,1.067191,1.869211,-13.480189
1790539152.6232,-0.032970,-0.056576,-0.816963,-0.025758,-0.051764,-0.816963,0.883806,1.245364,0.899505,3.213558,2.426911,-10.025993
1790539152.6367,-0.049849,-0.059416,-0.805272,-0.042622,-0.057120,-0.805272,0.330157,1.160374,0.903147,0.453943,3.282051,-8.745224
1790539152.6503,-0.052073,-0.064764,-0.792316,-0.049237,-0.062471,-0.792316,0.373867,0.133210,0.886149,-0.389272,1.237151,-8.395923
1790539152.6640,-0.047188,-0.066187,-0.778853,-0.047803,-0.065072,-0.778853,0.160178,-0.448364,0.844869,0.568927,2.649991,-9.443825
1790539152.6779,-0.037987,-0.064020,-0.766262,-0.040932,-0.064336,-0.766262,-0.222277,-0.764041,0.861867,0.645583,0.865351,-12.820399
1790539152.6917,-0.025418,-0.058456,-0.755436,-0.030072,-0.060220,-0.755436,-0.518528,-1.167137,0.893434,3.481854,-0.361589,-11.850119
1790539152.7060,-0.019227,-0.051591,-0.747047,-0.022481,-0.054180,-0.747047,-0.613231,-0.772540,0.831513,4.516709,-0.919289,-9.521448
1790539152.7200,-0.008933,-0.042920,-0.739057,-0.012997,-0.046298,-0.739057,-0.778354,-0.995943,0.547404,2.715294,-1.105189,-7.969000
1790539152.7339,-0.004217,-0.034523,-0.736475,-0.006851,-0.038056,-0.736475,-0.721290,-0.652340,0.389565,2.638638,-0.435949,-5.523895
1790539152.7477,-0.000893,-0.024210,-0.737910,-0.002680,-0.028363,-0.737910,-0.775926,-0.467791,0.220800,2.485326,0.716631,-7.464455
1790539152.7617,0.007704,-0.014135,-0.737563,0.004589,-0.018404,-0.737563,-0.752857,-0.708191,0.005896,1.373815,1.051251,-10.220049
1790539152.7756,-0.001756,-0.015887,-0.744950,0.000147,-0.016642,-0.744950,0.064260,0.715998,-0.567179,1.987063,1.014071,-19.263056
1790539152.7894,0.003786,-0.026760,-0.752208,0.002695,-0.023725,-0.752208,0.757535,-0.071980,-1.273809,-3.570495,1.385871,-15.110259
1790539152.8032,0.012979,-0.033338,-0.758336,0.009894,-0.030454,-0.758336,0.429717,-0.322094,-1.279880,-2.037376,0.493551,-6.959909
1790539152.8171,0.015293,-0.041289,-0.769238,0.013673,-0.038039,-0.769238,0.661618,-0.125403,-0.417839,0.032335,1.646131,-5.756762
1790539152.8309,0.026464,-0.060659,-0.768918,0.022627,-0.053873,-0.768918,1.316041,-0.651126,-0.604817,-2.152360,-0.250049,-12.548721
1790539152.8448,0.045438,-0.073581,-0.779547,0.038594,-0.067669,-0.779547,1.039216,-1.048151,-0.975130,-3.378855,2.612811,-7.192776
1790539152.8584,0.055142,-0.084666,-0.800282,0.050178,-0.079567,-0.800282,0.814600,-0.755542,-1.067405,1.335487,1.274331,-7.969000
1790539152.8720,0.059805,-0.092258,-0.820273,0.056917,-0.088451,-0.820273,0.654333,-0.369445,-0.876785,0.607255,1.906391,-6.144874
1790539152.8859,0.064758,-0.104466,-0.830003,0.062406,-0.099661,-0.830003,0.893519,-0.274742,-0.618173,-1.309144,1.608951,-10.375294
1790539152.8998,0.049757,-0.109008,-0.838947,0.053552,-0.106204,-0.838947,0.319230,1.148232,-0.544110,-1.615768,1.608951,-15.575993
1790539152.9137,0.041723,-0.102182,-0.840397,0.045271,-0.103389,-0.840397,-0.580449,0.758493,-0.455478,-4.183743,-0.696209,-14.178791
