t,imu_roll,imu_pitch,imu_yaw,lpf_roll,lpf_pitch,lpf_yaw,gyro_x,gyro_y,gyro_z,acc_x,acc_y,acc_z
1790542267.4570,-0.023448,-0.014451,0.000501,-0.016413,-0.010116,0.000501,-0.016144,-0.012878,-0.002004,0.300631,1.348691,-9.987182
1790542267.4723,-0.013800,-0.015008,0.005406,-0.014584,-0.013540,0.005406,0.005710,-0.005593,-0.002004,0.070663,1.348691,-9.831937
1790542267.4860,-0.015632,-0.015515,0.004626,-0.015318,-0.014922,0.004626,0.022708,0.005334,0.002853,0.223975,1.348691,-9.870749
1790542267.4996,-0.011705,-0.020978,0.008657,-0.012789,-0.019161,0.008657,0.021494,-0.001951,0.002853,0.032335,1.162791,-10.064805
1790542267.5135,-0.015942,-0.022072,0.005857,-0.014996,-0.021199,0.005857,-0.002789,-0.010450,-0.005646,0.377287,1.274331,-10.142427
1790542267.5273,-0.015756,-0.021826,0.005891,-0.015528,-0.021638,0.005891,-0.050140,0.004120,-0.022644,0.185647,1.311511,-10.220049
1790542267.5413,-0.019067,-0.021024,0.003293,-0.018005,-0.021208,0.003293,-0.088993,0.011405,-0.025073,0.415615,1.274331,-9.909560
1790542267.5559,-0.017549,-0.019498,0.005390,-0.017686,-0.020011,0.005390,-0.146058,0.030831,0.014994,0.070663,1.311511,-10.181238
1790542267.5701,-0.016914,-0.013185,0.005208,-0.017145,-0.015233,0.005208,-0.177625,-0.049302,0.106055,0.185647,1.646131,-9.637881
1790542267.5840,-0.019579,-0.010011,0.006563,-0.018849,-0.011577,0.006563,-0.149700,-0.068728,0.249323,0.492271,1.460231,-9.521448
1790542267.5979,-0.024793,-0.008082,0.009306,-0.023010,-0.009131,0.009306,-0.086565,-0.090583,0.404734,0.798895,1.423051,-9.288581
1790542267.6118,-0.029115,-0.011758,0.020085,-0.027283,-0.010970,0.020085,-0.002789,-0.076013,0.544360,0.798895,1.014071,-9.948371
1790542267.6256,-0.030994,-0.017199,0.035390,-0.029881,-0.015330,0.035390,0.080987,0.007763,0.632992,0.377287,0.790991,-9.094525
1790542267.6396,-0.014677,-0.016504,0.058074,-0.019238,-0.016152,0.058074,-0.056211,-0.283631,0.505507,-1.500784,1.311511,-9.482637
1790542267.6535,-0.010405,-0.024939,0.066412,-0.013055,-0.022303,0.066412,0.068845,-0.127007,0.334313,-0.350944,0.270471,-11.694875
1790542267.6674,-0.012179,-0.033543,0.064970,-0.012442,-0.030171,0.064970,0.152621,-0.001951,0.300317,0.415615,0.270471,-12.393476
1790542267.6813,-0.016237,-0.037345,0.064367,-0.015098,-0.035193,0.064367,0.130767,0.125534,0.364667,0.453943,0.828171,-9.831937
1790542267.6952,-0.015495,-0.038296,0.077576,-0.015376,-0.037365,0.077576,0.135623,0.112179,0.330671,-0.274288,1.311511,-9.987182
1790542267.7087,-0.013623,-0.031582,0.095531,-0.014149,-0.033317,0.095531,-0.221334,0.197169,0.221398,-0.657568,1.794851,-9.482637
1790542267.7223,-0.008757,-0.025822,0.108541,-0.010374,-0.028070,0.108541,-0.316038,-0.105153,0.201972,-0.542584,1.423051,-9.210958
1790542267.7361,-0.000014,-0.017656,0.124172,-0.003122,-0.020781,0.124172,-0.329393,-0.369836,0.146121,-0.734224,2.017931,-9.715504
1790542267.7499,-0.001465,-0.012260,0.116885,-0.001962,-0.014816,0.116885,-0.353676,-0.288488,0.085414,1.105519,1.460231,-9.599070
1790542267.7638,-0.002505,-0.006821,0.111804,-0.002342,-0.009219,0.111804,-0.193409,-0.335840,0.067202,1.182175,1.906391,-9.133336
1790542267.7776,-0.000179,0.002339,0.107658,-0.000828,-0.001128,0.107658,-0.278399,-0.492464,-0.011717,1.028863,2.687171,-9.482637
1790542267.7916,-0.004445,0.010137,0.102472,-0.003360,0.006757,0.102472,-0.210407,-0.022591,-0.071210,1.335487,3.021791,-10.608161
1790542267.8059,-0.014300,0.000985,0.087760,-0.011018,0.002717,0.087760,0.810686,0.920797,-0.424525,-0.580912,3.244871,-15.149070
1790542267.8199,-0.009479,0.016319,0.007372,-0.009941,0.012238,0.007372,0.583642,0.646401,-0.694065,-2.420655,6.256450,-5.485084
1790542267.8339,0.009621,0.019281,-0.029297,0.003753,0.017168,-0.029297,0.428232,-0.235066,-1.075306,-2.497311,2.798711,-6.067252
1790542267.8479,0.026859,0.012078,-0.081989,0.019927,0.013605,-0.081989,0.553288,-0.498535,-1.089875,-1.769080,1.571771,-7.736133
1790542267.8618,0.030350,0.015765,-0.036824,0.027223,0.015117,-0.036824,0.142908,-0.272704,-1.298708,0.338959,3.914111,-11.927742
1790542267.8758,0.019824,0.012768,0.002590,0.022044,0.013473,0.002590,-0.002789,0.361078,-1.284138,2.178703,0.753811,-10.530539
1790542267.8898,0.023070,0.011674,-0.042352,0.022762,0.012213,-0.042352,-0.108419,0.175314,-1.392197,-0.810880,1.014071,-9.909560
1790542267.9037,0.020722,0.006757,-0.065273,0.021334,0.008394,-0.065273,0.164763,0.333153,-1.441976,0.147319,0.865351,-9.637881
1790542267.9177,0.017222,0.004330,-0.091912,0.018456,0.005549,-0.091912,0.114983,0.527415,-1.639882,-0.159304,1.237151,-8.628791
1790542267.9312,0.015122,0.004207,-0.115004,0.016122,0.004610,-0.115004,-0.054997,0.387789,-1.558534,-0.044320,1.237151,-8.978091
1790542267.9447,0.008400,0.006657,-0.115486,0.010717,0.006043,-0.115486,-0.221334,0.465494,-1.369128,0.990535,1.348691,-9.443825
1790542267.9582,0.008921,0.007311,-0.135019,0.009460,0.006931,-0.135019,-0.197052,0.104894,-1.139655,0.147319,0.939711,-10.103616
1790542267.9722,0.011359,0.006571,-0.150489,0.010789,0.006679,-0.150489,-0.081708,-0.076013,-0.847047,0.108991,0.976891,-10.258860
1790542267.9860,0.009161,0.007514,-0.140294,0.009650,0.007263,-0.140294,-0.051355,-0.003165,-0.586006,1.220503,1.720491,-10.220049
1790542267.9999,0.004880,0.012722,-0.130373,0.006311,0.011084,-0.130373,-0.256545,0.194740,-0.493731,0.990535,2.352551,-10.258860
1790542268.0138,0.000270,0.020299,-0.126958,0.002083,0.017534,-0.126958,-0.286898,0.336795,-0.491303,0.415615,3.058971,-9.560259
1790542268.0276,0.003093,0.019264,-0.154372,0.002790,0.018745,-0.154372,-0.088993,0.056328,-0.392958,-1.155832,1.014071,-12.005364
1790542268.0419,0.004833,0.009407,-0.143916,0.004220,0.012208,-0.143916,0.606710,-0.294559,0.087843,1.220503,1.608951,-14.489280
1790542268.0568,-0.008344,0.003186,-0.105263,-0.004575,0.005892,-0.105263,0.531434,0.372005,0.696128,2.523654,2.241011,-9.599070
1790542268.0720,-0.019186,-0.009473,-0.077805,-0.014803,-0.004863,-0.077805,0.756050,0.397502,1.147789,1.182175,1.051251,-10.181238
1790542268.0894,-0.017047,-0.019476,-0.108154,-0.016374,-0.015093,-0.108154,0.536290,0.097609,1.383332,-1.539112,0.753811,-5.562707
1790542268.1036,-0.012945,-0.025436,-0.123851,-0.013974,-0.022333,-0.123851,0.346884,-0.020163,1.360263,-2.267343,0.939711,-8.861658
1790542268.1181,-0.007779,-0.029341,-0.134437,-0.009637,-0.027239,-0.134437,0.043349,-0.165860,1.110150,-2.305671,-0.064149,-11.617252
1790542268.1327,-0.014972,-0.037221,-0.135608,-0.013371,-0.034226,-0.135608,0.174476,0.424213,1.033659,-0.159304,-1.328269,-11.539630
1790542268.1464,-0.019989,-0.041138,-0.124792,-0.018004,-0.039064,-0.124792,0.189046,0.244520,1.123506,0.223975,0.679451,-10.414105
1790542268.1602,-0.027969,-0.044386,-0.110796,-0.024979,-0.042789,-0.110796,0.191474,0.409644,0.972952,0.607255,0.790991,-8.318301
1790542268.1739,-0.029044,-0.044137,-0.101394,-0.027824,-0.043733,-0.101394,-0.016144,0.195955,0.749550,-0.849208,1.088431,-8.667602
1790542268.1876,-0.028135,-0.043094,-0.096481,-0.028042,-0.043286,-0.096481,-0.070781,0.069684,0.437515,-0.810880,1.088431,-8.861658
1790542268.2015,-0.021361,-0.043500,-0.090745,-0.023365,-0.043436,-0.090745,0.056704,-0.390476,0.324600,-0.734224,1.460231,-10.802217
1790542268.2155,-0.015403,-0.043375,-0.081074,-0.017792,-0.043393,-0.081074,-0.010074,-0.573811,0.250538,1.220503,1.348691,-12.238231
1790542268.2295,-0.011401,-0.039324,-0.062869,-0.013318,-0.040545,-0.062869,-0.343963,-0.612664,0.166762,3.060246,0.902531,-12.936833
1790542268.2434,-0.010599,-0.034022,-0.040682,-0.011415,-0.035979,-0.040682,-0.572222,-0.515533,0.074487,3.098574,-0.287229,-8.745224
1790542268.2573,-0.001132,-0.020814,-0.021456,-0.004217,-0.025364,-0.021456,-0.969246,-1.150529,0.011352,2.370342,0.753811,-6.494175
1790542268.2713,0.004379,-0.008670,-0.010070,0.001801,-0.013678,-0.010070,-0.994743,-0.844565,-0.108848,2.715294,0.344831,-7.503266
1790542268.2852,0.010406,0.003511,-0.007369,0.007824,-0.001646,-0.007369,-0.870900,-0.755933,-0.097921,2.255358,1.423051,-8.900469
1790542268.2995,-0.005296,-0.003708,0.001397,-0.001360,-0.003090,0.001397,0.261894,0.901371,-0.210836,3.443526,-0.733389,-16.934385
1790542268.3136,-0.001927,-0.012895,-0.003685,-0.001757,-0.009953,-0.003685,0.583642,-0.031090,-0.691637,-1.079176,1.125611,-13.363756
1790542268.3276,-0.000309,-0.018261,-0.022648,-0.000743,-0.015769,-0.022648,0.418518,-0.080870,-1.133584,1.028863,1.646131,-10.452916
1790542268.3416,-0.007543,-0.027848,-0.036524,-0.005503,-0.024224,-0.036524,0.610353,0.381718,-1.001243,2.178703,0.530731,-9.366203
1790542268.3555,0.002282,-0.032817,-0.066164,-0.000053,-0.030239,-0.066164,0.595783,-0.392904,-0.624859,-1.232488,1.869211,-5.950818
1790542268.3694,0.013546,-0.048875,-0.074834,0.009466,-0.043284,-0.074834,1.131220,-0.655159,-0.766913,-0.887536,1.051251,-12.315854
1790542268.3832,0.028821,-0.058178,-0.100221,0.023015,-0.053710,-0.100221,0.877464,-0.962337,-0.913825,-0.695896,2.761531,-9.831937
1790542268.3968,0.040072,-0.056373,-0.126846,0.034955,-0.055574,-0.126846,0.260680,-0.884632,-0.923538,0.683911,3.653851,-7.736133
1790542268.4103,0.046470,-0.061262,-0.124958,0.043015,-0.059556,-0.124958,0.385737,-0.641803,-0.764485,1.450471,1.348691,-9.521448
1790542268.4242,0.050508,-0.066155,-0.153184,0.048260,-0.064175,-0.153184,0.556931,-0.164646,-0.643071,-0.772552,2.129471,-7.464455
1790542268.4381,0.033101,-0.069608,-0.131023,0.037649,-0.067978,-0.131023,0.048205,1.091992,-0.559295,1.757095,-0.659029,-12.160609
1790542268.4518,0.025251,-0.065854,-0.144838,0.028970,-0.066491,-0.144838,-0.435023,0.969363,-0.457307,-4.835318,-0.770569,-13.790679
1790542268.4658,0.023343,-0.060469,-0.150977,0.025031,-0.062276,-0.150977,-0.634143,0.551698,-0.484018,-4.030431,-1.476988,-10.763406
1790542268.4797,0.018301,-0.050731,-0.153672,0.020320,-0.054194,-0.153672,-1.008099,0.764173,-0.396600,-2.229015,-1.179549,-6.106063
1790542268.4935,0.008447,-0.038465,-0.158563,0.012009,-0.043184,-0.158563,-1.067591,0.839450,-0.349249,-0.504256,-0.287229,-6.300119
1790542268.5074,0.000242,-0.026876,-0.160870,0.003772,-0.031769,-0.160870,-1.055450,0.866161,-0.232691,-1.615768,-0.621849,-7.153965
1790542268.5212,-0.010018,-0.016574,-0.165640,-0.005881,-0.021133,-0.165640,-0.981387,0.903799,-0.169556,-1.079176,-0.882109,-9.560259
1790542268.5350,-0.007377,-0.006842,-0.163273,-0.006928,-0.011129,-0.163273,-0.861187,0.034474,-0.135560,-2.535639,-0.026969,-13.790679
1790542268.5494,0.010924,-0.020702,-0.174291,0.005568,-0.017830,-0.174291,0.621280,-1.383644,0.302746,0.760567,-3.261628,-15.847672
1790542268.5640,0.008343,-0.034778,-0.182976,0.007510,-0.029693,-0.182976,0.957598,-0.249636,0.816328,3.558510,1.125611,-10.841028
1790542268.5781,0.005960,-0.047513,-0.163337,0.006425,-0.042167,-0.163337,1.041373,0.203239,0.607495,-0.657568,1.608951,-6.688231
1790542268.5920,0.002146,-0.057992,-0.143499,0.003430,-0.053245,-0.143499,0.940600,0.369577,0.378023,-0.772552,1.720491,-6.067252
1790542268.6060,-0.012281,-0.071325,-0.145218,-0.007568,-0.065901,-0.145218,1.054729,0.864947,0.229897,2.063719,2.203831,-12.082986
1790542268.6199,-0.036619,-0.080511,-0.144487,-0.027904,-0.076128,-0.144487,0.817971,1.501157,0.418089,2.868606,2.612811,-10.530539
1790542268.6335,-0.053538,-0.085839,-0.133476,-0.045848,-0.082925,-0.133476,0.688058,1.292325,0.436301,-0.120976,2.612811,-6.610609
1790542268.6469,-0.057699,-0.089426,-0.123997,-0.054143,-0.087476,-0.123997,0.453729,0.467922,0.470297,-1.385800,2.984611,-10.646972
1790542268.6608,-0.049088,-0.095191,-0.120507,-0.050605,-0.092877,-0.120507,0.223042,-0.514318,0.523720,-1.079176,-1.291089,-12.121798
1790542268.6747,-0.040639,-0.097511,-0.113350,-0.043629,-0.096121,-0.113350,0.088272,-0.628448,0.583213,0.338959,0.047391,-11.345574
1790542268.6885,-0.030368,-0.101708,-0.108333,-0.034346,-0.100032,-0.108333,-0.028286,-0.822711,0.770190,0.568927,-2.220588,-8.201867
1790542268.7024,-0.024992,-0.101791,-0.099061,-0.027798,-0.101263,-0.099061,-0.223763,-0.814212,1.005734,4.286742,-1.700068,-9.210958
1790542268.7163,-0.013423,-0.098513,-0.088475,-0.017735,-0.099338,-0.088475,-0.452021,-1.144458,0.906174,3.136902,-1.700068,-10.336483
1790542268.7303,-0.004534,-0.086666,-0.084138,-0.008494,-0.090468,-0.084138,-0.968032,-0.883418,0.596568,2.370342,-0.659029,-9.793126
1790542268.7443,0.000338,-0.066087,-0.088205,-0.002312,-0.073401,-0.088205,-1.530180,-0.694012,0.308816,3.136902,0.196111,-8.667602
1790542268.7583,0.003635,-0.037306,-0.089403,0.001851,-0.048135,-0.089403,-2.098398,-0.636947,0.095127,4.133430,0.456371,-8.861658
1790542268.7722,0.011061,-0.007942,-0.079771,0.008298,-0.020000,-0.079771,-2.274449,-0.770502,-0.073638,1.680439,-0.175689,-6.338930
1790542268.7862,0.020028,0.022084,-0.081689,0.016509,0.009459,-0.081689,-2.245309,-0.878561,-0.148915,1.680439,0.382011,-6.300119
1790542268.8002,-0.003729,0.006438,-0.039439,0.002342,0.007344,-0.039439,0.718412,1.633499,-0.418455,4.171758,-4.488568,-17.671798
1790542268.8146,-0.000737,-0.027727,-0.090854,0.000187,-0.017206,-0.090854,2.602760,-0.208355,-0.610289,1.067191,5.215411,-14.062357
1790542268.8286,-0.011928,-0.032459,-0.157775,-0.008293,-0.027883,-0.157775,0.780333,0.747175,-0.514372,1.680439,7.037230,-11.267951
1790542268.8425,-0.018894,-0.041060,-0.134631,-0.015714,-0.037107,-0.134631,0.470727,0.662185,-0.627287,-0.504256,-0.324409,-8.939280
1790542268.8561,-0.000679,-0.057368,-0.082819,-0.005189,-0.051290,-0.082819,0.962454,-1.030329,-0.680709,-2.727279,-1.476988,-11.500819
1790542268.8696,0.021392,-0.067002,-0.118799,0.013418,-0.062289,-0.118799,1.097224,-1.160242,-0.850689,-2.229015,2.278191,-3.544525
1790542268.8835,0.018307,-0.064714,-0.177866,0.016840,-0.063986,-0.177866,0.430660,0.027189,-0.647928,1.948735,5.103871,-4.631238
1790542268.8974,0.037829,-0.071603,-0.179983,0.031533,-0.069318,-0.179983,0.474369,-1.185739,-0.724418,-2.190688,0.753811,-9.676693
1790542268.9113,0.053013,-0.077515,-0.194635,0.046569,-0.075056,-0.194635,0.428232,-1.083751,-0.924752,0.185647,1.162791,-9.948371
1790542268.9252,0.035939,-0.071148,-0.213194,0.039128,-0.072321,-0.213194,-0.180054,1.141771,-0.754772,1.757095,5.178231,-10.646972
1790542268.9391,0.015686,-0.052657,-0.229372,0.022718,-0.058556,-0.229372,-1.264283,1.660210,-0.484018,-3.148887,3.170511,-16.352217
1790542268.9528,0.011602,-0.029870,-0.221279,0.014937,-0.038476,-0.221279,-1.623669,0.713179,-0.538655,-5.065286,1.943571,-10.646972
1790542268.9667,0.011674,-0.027461,-0.183704,0.012653,-0.030765,-0.183704,-0.437452,0.387789,-0.420883,-3.532167,-1.588528,-7.619700
1790542268.9807,-0.005314,-0.007498,-0.203334,0.000076,-0.014478,-0.203334,-0.983816,1.548509,-0.311610,-1.539112,3.058971,-3.350469
1790542268.9947,0.002441,-0.009306,-0.213745,0.001732,-0.010858,-0.213745,0.144122,-0.397761,-0.486447,-1.232488,1.832031,-11.500819
1790542269.0088,0.008288,-0.014366,-0.204501,0.006321,-0.013314,-0.204501,0.451300,-0.534959,0.302746,1.028863,3.133331,-12.354665
1790542269.0226,0.008801,-0.020680,-0.183935,0.008057,-0.018470,-0.183935,0.374809,-0.248421,0.687629,1.105519,0.233291,-8.395923
1790542269.0364,0.011504,-0.029951,-0.170584,0.010470,-0.026507,-0.170584,0.639492,-0.299415,0.881891,-0.197632,0.753811,-9.715504
1790542269.0504,0.007367,-0.044617,-0.169404,0.008298,-0.039184,-0.169404,1.082654,0.364720,0.628136,-1.040848,0.865351,-5.912007
1790542269.0648,-0.010268,-0.058540,-0.146629,-0.004699,-0.052733,-0.146629,0.968525,0.963292,0.781118,2.178703,0.828171,-8.357112
1790542269.0791,-0.026139,-0.068526,-0.141725,-0.019707,-0.063788,-0.141725,0.736624,1.096848,0.768976,-0.350944,1.497411,-9.831937
1790542269.0927,-0.039658,-0.075073,-0.137494,-0.033673,-0.071687,-0.137494,0.553288,1.009430,0.936528,-0.580912,1.906391,-9.288581
1790542269.1064,-0.046390,-0.077764,-0.132510,-0.042575,-0.075941,-0.132510,0.225470,0.524987,0.924386,-0.887536,1.943571,-12.005364
1790542269.1205,-0.034559,-0.076890,-0.122185,-0.036964,-0.076605,-0.122185,-0.033142,-0.872490,0.918316,-0.159304,2.129471,-12.703965
1790542269.1344,-0.025263,-0.073141,-0.098634,-0.028773,-0.074180,-0.098634,-0.377959,-0.844565,0.770190,1.718767,-0.250049,-9.987182
1790542269.1484,-0.020611,-0.069216,-0.059920,-0.023060,-0.070705,-0.059920,-0.473876,-0.639375,1.006948,2.830278,-1.216729,-9.016902
1790542269.1623,-0.012909,-0.067910,-0.027184,-0.015954,-0.068749,-0.027184,-0.323322,-0.862777,1.028803,2.906934,-1.811608,-9.637881
1790542269.1761,-0.007709,-0.060562,-0.008689,-0.010182,-0.063018,-0.008689,-0.606218,-0.718294,0.946241,3.021918,0.047391,-8.395923
1790542269.1903,0.002979,-0.047209,0.009075,-0.000970,-0.051952,0.009075,-1.034810,-1.004832,0.676701,2.561982,-0.101329,-10.685784
1790542269.2043,0.011221,-0.030916,0.017214,0.007564,-0.037227,0.017214,-1.287351,-0.906486,0.323386,3.865134,-0.473129,-10.491728
1790542269.2180,0.020559,-0.012294,0.009371,0.016661,-0.019774,0.009371,-1.377198,-1.042470,0.203186,3.251886,0.605091,-7.309210
1790542269.2319,0.020905,0.002868,0.005007,0.019632,-0.003924,0.005007,-1.101587,-0.345553,0.159477,3.021918,1.014071,-7.697322
1790542269.2457,0.004410,-0.008763,0.022187,0.008976,-0.007311,0.022187,0.668632,1.104133,-0.218121,2.945262,-0.770569,-16.934385
1790542269.2595,0.008947,-0.019041,-0.002625,0.008956,-0.015522,-0.002625,0.782761,0.044187,-0.951463,-4.260399,2.129471,-12.393476
1790542269.2734,0.008850,-0.024650,-0.066159,0.008882,-0.021912,-0.066159,0.708698,-0.044445,-0.674639,1.680439,4.137191,-8.046623
1790542269.2873,0.005512,-0.038920,-0.077227,0.006523,-0.033818,-0.077227,1.092367,0.149817,-0.417241,1.603783,1.683311,-8.357112
1790542269.3011,0.021522,-0.059043,-0.093627,0.017022,-0.051475,-0.093627,1.508818,-0.829995,-0.725633,-4.260399,1.757671,-10.957462
1790542269.3151,0.033245,-0.075878,-0.125686,0.028378,-0.068557,-0.125686,1.416543,-0.851850,-0.817907,0.722239,2.984611,-7.891378
1790542269.3287,0.042327,-0.085353,-0.151060,0.038142,-0.080314,-0.151060,0.836183,-0.668515,-0.939322,0.377287,1.794851,-6.300119
1790542269.3426,0.052929,-0.089647,-0.144026,0.048493,-0.086847,-0.144026,0.361454,-0.942911,-1.004885,1.718767,1.423051,-6.300119
1790542269.3564,0.065659,-0.096067,-0.121603,0.060509,-0.093301,-0.121603,0.327458,-1.082537,-0.970889,1.335487,-0.026969,-6.261308
1790542269.3702,0.047866,-0.093088,-0.128219,0.051659,-0.093152,-0.128219,-0.258973,1.208549,-0.946606,2.217030,1.460231,-16.856763
1790542269.3840,0.029755,-0.075365,-0.145513,0.036326,-0.080701,-0.145513,-1.386911,1.643212,-0.868901,-7.020013,-0.435949,-17.283686
1790542269.3979,0.039908,-0.057347,-0.135234,0.038833,-0.064353,-0.135234,-1.561747,-0.322484,-0.924752,-5.486894,-2.406488,-9.521448
1790542269.4118,0.037706,-0.044535,-0.088776,0.038045,-0.050481,-0.088776,-1.525323,0.357436,-0.809408,-1.002520,-3.596248,-4.204315
1790542269.4255,0.021625,-0.017523,-0.121666,0.026551,-0.027410,-0.121666,-1.934489,1.487802,-0.695279,-1.845736,1.051251,-5.446273
1790542269.4394,0.007830,0.010033,-0.234739,0.013447,-0.001200,-0.234739,-1.560533,1.448949,-1.106873,-2.190688,3.914111,-4.204315
1790542269.4533,-0.010306,0.021500,-0.241088,-0.003180,0.014690,-0.241088,-0.875757,1.414953,-0.730489,0.453943,0.865351,-8.434735
1790542269.4671,0.004260,0.004687,-0.239122,0.002028,0.007688,-0.239122,1.126363,-0.907701,-0.539869,-2.114032,0.567911,-20.310959
1790542269.4811,0.005928,0.007602,-0.243745,0.004758,0.007628,-0.243745,0.012995,-0.225353,0.082986,1.872079,6.702610,-13.208511
1790542269.4950,0.011754,0.005141,-0.239127,0.009655,0.005887,-0.239127,0.225470,-0.496106,0.605067,-0.427600,2.315371,-10.569350
1790542269.5087,0.025314,-0.006476,-0.221472,0.020616,-0.002767,-0.221472,0.809472,-1.115319,0.832112,-0.389272,0.939711,-11.578441
1790542269.5226,0.024439,-0.014363,-0.197870,0.023292,-0.010885,-0.197870,0.841040,-0.288488,0.849110,1.795423,2.910251,-5.019350
1790542269.5365,0.010986,-0.025845,-0.157182,0.014678,-0.021357,-0.157182,0.785189,0.600264,0.827255,3.826806,0.828171,-10.336483
1790542269.5501,-0.001358,-0.038082,-0.140364,0.003453,-0.033065,-0.140364,0.912674,0.702252,1.147789,0.952207,1.274331,-9.366203
1790542269.5646,-0.013454,-0.039501,-0.147841,-0.008382,-0.037570,-0.147841,0.220613,0.826094,1.416114,-1.654096,2.649991,-8.861658
1790542269.5787,-0.020019,-0.034261,-0.147820,-0.016528,-0.035254,-0.147820,-0.217692,0.329510,1.407615,0.070663,3.207691,-8.512357
1790542269.5926,-0.017242,-0.028931,-0.143394,-0.017028,-0.030828,-0.143394,-0.301468,-0.304272,1.305627,-0.312616,1.906391,-6.959909
1790542269.6065,-0.010060,-0.021954,-0.133555,-0.012150,-0.024616,-0.133555,-0.342749,-0.713438,1.182999,0.683911,3.133331,-7.813756
1790542269.6203,-0.003154,-0.013779,-0.106007,-0.005853,-0.017030,-0.106007,-0.608646,-0.749862,1.231564,1.833751,2.278191,-16.235784
1790542269.6341,0.000009,-0.004639,-0.040891,-0.001750,-0.008357,-0.040891,-0.817478,-0.627234,1.026374,4.401726,-0.212869,-13.402567
1790542269.6479,0.007575,0.005137,0.020307,0.004778,0.001089,0.020307,-0.971674,-0.889488,0.730124,3.060246,-1.737248,-10.336483
1790542269.6619,0.025649,0.024867,-0.018530,0.019387,0.017733,-0.018530,-1.117371,-1.541483,0.408376,0.990535,1.980751,-3.389280
1790542269.6758,0.012461,0.020410,0.014027,0.014539,0.019607,0.014027,0.140480,0.844307,0.204400,1.258831,-0.547489,-13.790679
1790542269.6897,0.004155,-0.001394,-0.038932,0.007270,0.004906,-0.038932,1.656943,1.025214,-0.399028,-6.176798,2.538451,-11.229140
1790542269.7036,0.025149,-0.013479,-0.096148,0.019786,-0.007964,-0.096148,1.081440,-0.902844,-0.998815,-6.790045,3.802571,-6.727042
1790542269.7175,0.012383,-0.021496,-0.011997,0.014604,-0.017437,-0.011997,0.512007,0.523773,-0.601790,6.739732,1.571771,-8.551168
1790542269.7313,0.015207,-0.030809,-0.004171,0.015026,-0.026798,-0.004171,0.579999,-0.201070,-0.481590,0.760567,0.158931,-12.859210
1790542269.7452,0.037214,-0.046615,-0.018733,0.030558,-0.040669,-0.018733,1.063228,-1.366646,-0.896827,-2.343999,0.233291,-11.345574
1790542269.7591,0.047700,-0.058604,-0.074960,0.042557,-0.053223,-0.074960,1.113008,-0.708581,-1.083805,0.377287,2.203831,-4.320748
1790542269.7727,0.057718,-0.064113,-0.116311,0.053169,-0.060846,-0.116311,0.627351,-0.679442,-1.097160,0.185647,2.798711,-5.834385
1790542269.7863,0.062288,-0.066924,-0.133159,0.059553,-0.065100,-0.133159,0.254609,-0.318842,-1.106873,0.377287,1.646131,-6.727042
1790542269.7999,0.064038,-0.075128,-0.148265,0.062693,-0.072120,-0.148265,0.603068,-0.088155,-1.023097,-0.005993,2.278191,-14.217602
1790542269.8141,0.052999,-0.074873,-0.147322,0.055907,-0.074047,-0.147322,-0.138773,0.782385,-1.017027,0.798895,0.121751,-19.379490
1790542269.8281,0.042992,-0.066991,-0.131546,0.046866,-0.069108,-0.131546,-0.839333,0.784814,-0.966033,-0.657568,-2.666748,-11.578441
1790542269.8420,0.043695,-0.062435,-0.141855,0.044646,-0.064437,-0.141855,-0.663282,0.262732,-0.936893,-3.378855,-3.224448,-7.813756
1790542269.8560,0.034522,-0.045924,-0.182067,0.037560,-0.051478,-0.182067,-1.235143,1.017929,-0.978174,-1.500784,0.158931,-3.428091
1790542269.8699,0.027160,-0.031865,-0.193309,0.030280,-0.037749,-0.193309,-1.201147,0.769030,-1.055879,-1.615768,-0.956469,-8.085434
1790542269.8838,0.018850,-0.013368,-0.208001,0.022279,-0.020682,-0.208001,-1.510753,0.897729,-0.927180,-2.229015,-0.956469,-7.774944
1790542269.8977,0.011252,0.001300,-0.212404,0.014560,-0.005295,-0.212404,-1.333489,0.818810,-0.764485,-2.803935,-3.038548,-11.306763
1790542269.9116,0.005806,0.019972,-0.230112,0.008432,0.012392,-0.230112,-1.413622,0.720464,-0.586006,-2.918919,0.493551,-8.240679
1790542269.9255,0.023131,0.010989,-0.226973,0.018721,0.011410,-0.226973,0.366310,-1.134745,-0.577507,-1.347472,-4.823188,-18.059910
1790542269.9393,0.017508,-0.006098,-0.218686,0.017872,-0.000846,-0.218686,1.162788,-0.067514,0.376808,9.384363,-0.026969,-12.354665
1790542269.9532,0.014108,-0.020651,-0.235341,0.015237,-0.014709,-0.235341,1.378905,0.149817,0.605067,0.223975,6.442350,-9.094525
1790542269.9671,0.014177,-0.032015,-0.234533,0.014495,-0.026823,-0.234533,0.933315,-0.085726,0.425374,0.223975,1.943571,-6.688231
1790542269.9809,0.003206,-0.048121,-0.219553,0.006593,-0.041732,-0.219553,1.190713,0.556555,0.459370,3.328542,1.720491,-11.423196
1790542269.9949,-0.018194,-0.064191,-0.215340,-0.010758,-0.057454,-0.215340,1.223495,1.416167,0.617209,1.450471,2.278191,-11.306763
1790542270.0084,-0.035598,-0.070306,-0.225623,-0.028146,-0.066450,-0.225623,0.694129,1.237689,0.651205,0.338959,3.356411,-6.843476
1790542270.0220,-0.043859,-0.073979,-0.233844,-0.039145,-0.071720,-0.233844,0.433088,0.668256,0.676701,-0.887536,2.947431,-8.124245
1790542270.0359,-0.055702,-0.080075,-0.222965,-0.050735,-0.077568,-0.222965,0.369953,0.812739,0.731338,0.262303,0.158931,-6.921098
1790542270.0497,-0.060234,-0.082272,-0.224630,-0.057384,-0.080861,-0.224630,0.229112,0.346508,0.579570,-0.159304,1.906391,-8.473546
1790542270.0637,-0.042935,-0.084789,-0.195138,-0.047270,-0.083611,-0.195138,-0.074423,-1.133531,0.870964,-3.647151,-3.819328,-15.381938
1790542270.0780,-0.029484,-0.073648,-0.165934,-0.034820,-0.076637,-0.165934,-0.864830,-1.146887,0.673059,3.251886,-0.064149,-11.772497
1790542270.0920,-0.024133,-0.063263,-0.109366,-0.027339,-0.067275,-0.109366,-0.976531,-0.766860,0.920744,5.973173,-2.592388,-10.879840
1790542270.1059,-0.019922,-0.047516,-0.087667,-0.022147,-0.053444,-0.087667,-1.294636,-0.800856,0.949883,6.126485,-1.179549,-7.542077
1790542270.1198,-0.005120,-0.025356,-0.066929,-0.010228,-0.033782,-0.066929,-1.681947,-1.241590,0.641491,0.837223,0.084571,-5.368651
1790542270.1338,0.010937,-0.001258,-0.040508,0.004587,-0.011015,-0.040508,-1.942988,-1.331436,0.356168,0.760567,-0.696209,-4.359560
1790542270.1484,0.039210,0.018998,-0.027559,0.028823,0.009994,-0.027559,-1.476757,-2.195905,0.365881,2.140375,-0.064149,-8.279490
1790542270.1636,0.024614,0.008844,-0.024278,0.025877,0.009189,-0.024278,0.573929,0.707108,0.427802,5.513237,-0.398769,-17.555364
1790542270.1782,0.007943,-0.015815,-0.020643,0.013323,-0.008314,-0.020643,1.626590,1.200050,-0.156200,-0.695896,1.051251,-18.836133
1790542270.1924,0.007333,-0.018656,-0.082408,0.009130,-0.015553,-0.082408,0.439159,0.149817,-1.053451,0.568927,5.178231,-10.879840
1790542270.2076,0.001568,-0.029382,-0.117182,0.003837,-0.025234,-0.117182,0.841040,0.263947,-0.629715,2.485326,2.129471,-6.649420
1790542270.2215,0.000201,-0.044168,-0.139682,0.001292,-0.038488,-0.139682,1.134862,0.374434,-0.645499,-2.382327,1.497411,-7.425644
1790542270.2349,0.013056,-0.061844,-0.154572,0.009527,-0.054837,-0.154572,1.365549,-0.804498,-0.583578,-1.155832,1.125611,-7.309210
1790542270.2486,0.030605,-0.071022,-0.187132,0.024281,-0.066166,-0.187132,0.828898,-1.070396,-0.832477,-1.845736,2.389731,-7.270399
1790542270.2626,0.042869,-0.079109,-0.184768,0.037293,-0.075226,-0.184768,0.486510,-0.919842,-0.958748,1.143847,-0.026969,-8.900469
1790542270.2764,0.055685,-0.084120,-0.181288,0.050167,-0.081452,-0.181288,0.301961,-1.069181,-0.890756,2.063719,0.456371,-7.774944
1790542270.2904,0.038151,-0.082513,-0.209728,0.041756,-0.082195,-0.209728,-0.033142,1.298396,-0.849475,0.032335,3.802571,-15.886483
1790542270.3043,0.020565,-0.061401,-0.215941,0.026922,-0.067639,-0.215941,-1.566604,1.269256,-0.814265,1.105519,0.902531,-13.635434
1790542270.3182,0.010572,-0.044528,-0.173310,0.015477,-0.051462,-0.173310,-1.576317,0.930511,-0.791196,-2.152360,-3.670608,-9.016902
1790542270.3324,0.005679,-0.024655,-0.186118,0.008618,-0.032697,-0.186118,-1.565390,0.760531,-0.986673,-2.650623,-0.882109,-4.902916
1790542270.3465,-0.020360,0.006990,-0.328723,-0.011667,-0.004916,-0.328723,-1.729299,1.575220,-0.946606,1.680439,1.460231,-0.400818
1790542270.3603,-0.036634,0.028291,-0.357674,-0.029143,0.018328,-0.357674,-1.226644,1.450163,-0.933251,-0.772552,4.062831,-5.989630
1790542270.3742,-0.017636,-0.001562,-0.304258,-0.021088,0.004405,-0.304258,1.876703,-1.214878,-0.422097,-3.915447,-4.971908,-21.281238
1790542270.3880,-0.023960,-0.002939,-0.292146,-0.023098,-0.000736,-0.292146,0.357811,0.157102,0.413233,4.286742,5.959010,-8.240679
1790542270.4019,-0.012893,-0.010899,-0.275305,-0.015955,-0.007850,-0.275305,0.475583,-0.732864,0.730124,-2.803935,0.196111,-10.142427
1790542270.4157,-0.000671,-0.024338,-0.259421,-0.005256,-0.019392,-0.259421,0.899319,-0.900416,0.725267,-1.424128,0.344831,-10.336483
1790542270.4295,-0.002763,-0.039354,-0.229580,-0.003511,-0.033365,-0.229580,1.004949,-0.102724,0.632992,2.332014,0.196111,-8.357112
1790542270.4434,-0.019444,-0.050108,-0.212979,-0.014664,-0.045085,-0.212979,0.752407,0.990004,0.682772,2.983590,1.088431,-11.850119
1790542270.4577,-0.036334,-0.059306,-0.206711,-0.029833,-0.055039,-0.206711,0.660133,1.081064,0.863679,0.837223,1.646131,-10.879840
1790542270.4714,-0.044341,-0.058309,-0.218941,-0.039988,-0.057328,-0.218941,0.050633,0.626975,1.014233,-1.385800,3.058971,-9.443825
1790542270.4850,-0.049728,-0.054000,-0.219581,-0.046806,-0.054998,-0.219581,-0.260187,0.365935,1.084653,-0.465928,2.315371,-9.327392
1790542270.4989,-0.050018,-0.050356,-0.213192,-0.049054,-0.051749,-0.213192,-0.284470,0.052686,1.077368,-1.462456,1.348691,-9.094525
1790542270.5128,-0.045672,-0.047021,-0.201967,-0.046687,-0.048439,-0.201967,-0.292969,-0.354052,0.895247,-0.389272,1.162791,-12.393476
1790542270.5266,-0.038032,-0.042938,-0.180281,-0.040629,-0.044588,-0.180281,-0.370674,-0.729222,0.853966,1.833751,0.790991,-11.423196
1790542270.5404,-0.030799,-0.036426,-0.154594,-0.033748,-0.038875,-0.154594,-0.567365,-0.712224,0.736194,1.987063,0.307651,-10.491728
1790542270.5545,-0.025046,-0.029542,-0.111543,-0.027656,-0.032342,-0.111543,-0.666925,-0.684298,0.649990,3.213558,-0.844929,-9.405014
1790542270.5686,-0.014057,-0.016718,-0.092130,-0.018137,-0.021405,-0.092130,-0.968032,-1.044899,0.486081,2.446998,0.605091,-7.270399
1790542270.5833,0.000846,-0.004363,-0.075147,-0.004848,-0.009476,-0.075147,-0.919466,-1.156600,0.086628,1.718767,0.307651,-8.318301
1790542270.5974,0.005736,0.002635,-0.075255,0.002560,-0.000998,-0.075255,-0.509086,-0.480323,-0.233905,3.060246,1.608951,-11.462007
1790542270.6114,0.000086,-0.007040,-0.075957,0.000828,-0.005228,-0.075957,0.612781,0.516488,-0.810623,0.415615,0.605091,-15.808861
1790542270.6252,0.003168,-0.016547,-0.111995,0.002466,-0.013151,-0.111995,0.763335,0.129177,-1.416479,-2.497311,2.315371,-10.025993
1790542270.6391,-0.003494,-0.023543,-0.178792,-0.001706,-0.020425,-0.178792,0.802187,0.306442,-1.409195,2.600310,2.017931,-2.884734
1790542270.6530,-0.003192,-0.029549,-0.231106,-0.002746,-0.026812,-0.231106,0.756050,0.142532,-0.721990,-0.312616,2.166651,-3.544525
1790542270.6669,0.000583,-0.047745,-0.236529,-0.000416,-0.041465,-0.236529,1.255062,-0.135506,-0.865259,-0.887536,0.344831,-13.868301
1790542270.6807,0.019250,-0.060763,-0.278456,0.013350,-0.054973,-0.278456,1.128792,-1.078895,-1.264712,-2.114032,3.282051,-8.551168
1790542270.6943,0.030870,-0.067899,-0.312366,0.025614,-0.064022,-0.312366,0.640706,-0.677014,-1.349702,-0.964192,2.538451,-8.784035
1790542270.7078,0.034177,-0.071785,-0.299590,0.031608,-0.069456,-0.299590,0.292248,-0.373478,-1.119015,1.795423,1.199971,-6.300119
1790542270.7217,0.048739,-0.081742,-0.285072,0.043600,-0.078056,-0.285072,0.559359,-1.074038,-0.905326,0.645583,-0.696209,-8.706413
1790542270.7354,0.031723,-0.082377,-0.264560,0.035286,-0.081080,-0.264560,-0.085351,1.096848,-0.772984,3.711822,-0.361589,-14.295224
1790542270.7492,0.018727,-0.070013,-0.264230,0.023695,-0.073333,-0.264230,-1.010527,1.019143,-0.719562,-0.695896,-0.584669,-14.683336
1790542270.7629,0.021266,-0.054625,-0.265759,0.021995,-0.060238,-0.265759,-1.321347,0.146175,-0.866473,-4.222071,-1.997508,-8.939280
1790542270.7767,0.019921,-0.040025,-0.268853,0.020543,-0.046089,-0.268853,-1.348058,0.523773,-0.976960,-2.880591,-1.774428,-4.398371
1790542270.7906,-0.000898,-0.014199,-0.306021,0.005534,-0.023766,-0.306021,-1.655236,1.597075,-0.796053,0.108991,1.274331,-2.729490
1790542270.8046,-0.004645,0.003277,-0.288150,-0.001591,-0.004836,-0.288150,-1.618812,0.679183,-0.749915,-2.535639,-2.443668,-3.971448
1790542270.8185,-0.020828,0.021762,-0.294341,-0.015057,0.013782,-0.294341,-1.379626,1.292325,-0.583578,-0.005993,0.790991,-9.754315
1790542270.8327,-0.012635,0.024089,-0.295265,-0.013362,0.020997,-0.295265,-0.318466,-0.355266,-0.578721,-3.302199,-1.588528,-16.856763
1790542270.8467,-0.014875,0.008398,-0.286892,-0.014421,0.012178,-0.286892,1.017090,0.023546,0.012566,3.290214,-0.026969,-13.829490
1790542270.8606,-0.014647,0.003640,-0.299766,-0.014579,0.006202,-0.299766,0.513222,-0.209569,0.486081,1.680439,3.282051,-7.270399
1790542270.8744,-0.004557,-0.010684,-0.289332,-0.007563,-0.005619,-0.289332,0.996450,-0.759575,0.634207,-0.849208,0.828171,-8.201867
1790542270.8883,-0.006282,-0.023048,-0.282391,-0.006666,-0.017819,-0.282391,0.918745,-0.163431,0.567429,2.715294,1.311511,-7.309210
1790542270.9022,-0.016331,-0.035286,-0.276275,-0.013432,-0.030046,-0.276275,0.900533,0.567482,0.619637,1.603783,1.683311,-10.297672
1790542270.9162,-0.030764,-0.043292,-0.276049,-0.025564,-0.039318,-0.276049,0.649205,0.873446,0.750764,1.795423,2.724351,-10.608161
1790542270.9297,-0.048074,-0.046261,-0.279864,-0.041321,-0.044178,-0.279864,0.320173,1.196408,0.866108,0.568927,2.464091,-8.279490
1790542270.9432,-0.052332,-0.046607,-0.282887,-0.049029,-0.045878,-0.282887,0.099199,0.299157,0.928029,-0.619240,2.724351,-9.637881
1790542270.9571,-0.055375,-0.048795,-0.268749,-0.053471,-0.047920,-0.268749,0.091914,0.115821,0.866108,0.683911,0.679451,-8.589979
1790542270.9709,-0.059735,-0.049789,-0.254609,-0.057856,-0.049228,-0.254609,-0.004003,0.223880,0.806615,0.798895,0.605091,-9.948371
1790542270.9848,-0.052299,-0.052534,-0.259067,-0.053966,-0.051542,-0.259067,0.298318,-0.567741,0.776261,-0.120976,3.021791,-9.133336
1790542270.9987,-0.046416,-0.047353,-0.239617,-0.048681,-0.048610,-0.239617,-0.382815,-0.680656,0.843039,4.325070,2.315371,-12.936833
1790542271.0125,-0.042118,-0.039629,-0.211106,-0.044087,-0.042323,-0.211106,-0.687565,-0.537387,0.630564,3.481854,-0.212869,-11.927742
1790542271.0263,-0.032200,-0.030926,-0.183265,-0.035766,-0.034345,-0.183265,-0.781054,-0.913771,0.493366,2.293686,-0.547489,-9.249770
1790542271.0402,-0.020596,-0.018004,-0.165279,-0.025147,-0.022906,-0.165279,-1.026311,-1.035185,0.257822,1.757095,0.084571,-6.144874
1790542271.0540,-0.010927,-0.006571,-0.156082,-0.015193,-0.011472,-0.156082,-0.875757,-0.896773,0.149764,2.063719,0.642271,-7.192776
1790542271.0678,-0.018958,-0.007953,-0.154963,-0.017828,-0.009009,-0.154963,0.067631,0.490991,-0.214479,3.136902,1.274331,-13.674245
1790542271.0818,-0.018842,-0.012501,-0.185236,-0.018538,-0.011453,-0.185236,0.425803,0.285801,-0.883471,-3.915447,3.691031,-15.110259
1790542271.0962,-0.016533,-0.020073,-0.214380,-0.017134,-0.017487,-0.214380,0.621280,0.085468,-1.253784,-1.232488,2.612811,-11.539630
1790542271.1102,-0.021274,-0.028695,-0.230977,-0.020032,-0.025332,-0.230977,0.719626,0.199597,-0.695279,2.868606,1.794851,-6.416553
1790542271.1242,-0.014943,-0.041381,-0.232433,-0.016470,-0.036566,-0.232433,0.841040,-0.278775,-0.620002,-1.615768,-0.101329,-10.414105
1790542271.1381,-0.000240,-0.059815,-0.240996,-0.005109,-0.052840,-0.240996,1.291487,-0.893131,-0.851903,-1.577440,0.419191,-12.548721
1790542271.1518,0.013590,-0.069089,-0.289021,0.007980,-0.064215,-0.289021,0.916317,-0.806927,-1.123871,-1.385800,3.356411,-7.542077
1790542271.1654,0.022444,-0.076794,-0.299822,0.018105,-0.073020,-0.299822,0.584856,-0.690369,-1.075306,1.642111,1.274331,-9.443825
1790542271.1790,0.033783,-0.080950,-0.319301,0.029079,-0.078571,-0.319301,0.348098,-0.760789,-0.951463,-0.312616,1.385871,-8.589979
1790542271.1929,0.034428,-0.089928,-0.330671,0.032823,-0.086521,-0.330671,0.674702,-0.026233,-0.520443,-0.044320,1.162791,-9.016902
1790542271.2068,0.014295,-0.089144,-0.340962,0.019853,-0.088357,-0.340962,-0.076852,1.531511,-0.541083,-1.347472,0.828171,-16.973196
1790542271.2206,0.006499,-0.077505,-0.352023,0.010505,-0.080761,-0.352023,-0.884256,0.843092,-0.515586,-5.908502,-0.026969,-13.907112
1790542271.2346,0.001985,-0.063349,-0.357190,0.004541,-0.068572,-0.357190,-1.104016,0.614834,-0.560509,-4.490366,-0.733389,-10.336483
1790542271.2484,-0.010157,-0.046831,-0.350910,-0.005747,-0.053353,-0.350910,-1.349272,0.958436,-0.474305,-0.235960,-0.770569,-5.679140
1790542271.2623,-0.023865,-0.025443,-0.361927,-0.018430,-0.033816,-0.361927,-1.532608,1.139343,-0.397814,-0.619240,0.605091,-4.864105
1790542271.2761,-0.032636,-0.011815,-0.346020,-0.028374,-0.018415,-0.346020,-1.244856,0.875874,-0.213265,-1.577440,-1.514168,-4.631238
1790542271.2900,-0.040235,0.003370,-0.350400,-0.036677,-0.003166,-0.350400,-1.121014,0.682826,-0.212051,-1.385800,1.088431,-12.082986
1790542271.3039,-0.019041,-0.009286,-0.336457,-0.024332,-0.007450,-0.336457,0.706270,-1.468634,0.124267,-2.803935,-3.670608,-21.281238
1790542271.3178,-0.019510,-0.017039,-0.323386,-0.020957,-0.014162,-0.323386,0.547217,-0.316413,0.872178,3.865134,1.385871,-9.055714
1790542271.3315,-0.016355,-0.031256,-0.307906,-0.017736,-0.026128,-0.307906,1.003735,-0.415973,0.994807,1.297159,1.237151,-11.772497
1790542271.3460,-0.016117,-0.045927,-0.302625,-0.016603,-0.039987,-0.302625,1.036517,0.023546,0.675487,-1.194160,1.088431,-6.610609
1790542271.3602,-0.025190,-0.062283,-0.297059,-0.022614,-0.055594,-0.297059,1.178571,0.596622,0.651205,-0.005993,1.794851,-11.578441
1790542271.3741,-0.038716,-0.078285,-0.290813,-0.033885,-0.071478,-0.290813,1.183428,0.861305,0.737409,1.642111,2.203831,-12.859210
1790542271.3878,-0.061562,-0.086111,-0.289905,-0.053259,-0.081721,-0.289905,0.695343,1.554580,0.841825,1.603783,3.058971,-9.172147
1790542271.4015,-0.073529,-0.093094,-0.281855,-0.067448,-0.089682,-0.281855,0.491367,0.875874,0.936528,-0.082648,1.237151,-10.103616
1790542271.4154,-0.081022,-0.098170,-0.270175,-0.076950,-0.095624,-0.270175,0.265537,0.562626,0.841825,-0.312616,0.010211,-9.249770
1790542271.4294,-0.076156,-0.098013,-0.265142,-0.076394,-0.097297,-0.265142,-0.010074,-0.309128,0.710697,-0.504256,1.646131,-10.918651
1790542271.4433,-0.065674,-0.096534,-0.250752,-0.068890,-0.096763,-0.250752,-0.226191,-0.738935,0.903746,-0.465928,-0.287229,-12.044175
1790542271.4572,-0.060977,-0.093528,-0.220998,-0.063351,-0.094498,-0.220998,-0.454450,-0.554385,0.970524,3.865134,-2.629568,-11.229140
1790542271.4711,-0.057531,-0.091138,-0.193207,-0.059277,-0.092146,-0.193207,-0.413169,-0.524032,1.039730,4.171758,-2.294948,-9.366203
1790542271.4850,-0.049350,-0.080170,-0.182541,-0.052328,-0.083763,-0.182541,-0.863616,-0.958694,0.952312,4.516709,0.233291,-7.076343
1790542271.4988,-0.033875,-0.063582,-0.165966,-0.039411,-0.069636,-0.165966,-1.301921,-1.327794,0.811471,1.795423,-0.026969,-6.804665
1790542271.5127,-0.029954,-0.040911,-0.153406,-0.032791,-0.049529,-0.153406,-1.754796,-0.670943,0.692485,5.053301,-0.733389,-7.697322
1790542271.5266,-0.018205,-0.012624,-0.142781,-0.022581,-0.023696,-0.142781,-2.111754,-1.037614,0.370738,2.791950,0.419191,-10.996273
1790542271.5404,-0.004726,0.015289,-0.140076,-0.010083,0.003594,-0.140076,-2.064402,-1.250089,0.273606,3.366870,1.014071,-8.978091
1790542271.5543,-0.034176,0.000231,-0.123863,-0.026948,0.001240,-0.123863,0.884749,1.958889,0.177689,6.586421,-3.373168,-21.281238
1790542271.5681,-0.034030,-0.028124,-0.193666,-0.031905,-0.019315,-0.193666,2.413354,0.447282,-0.414812,-13.919050,11.647550,-12.703965
1790542271.5822,-0.046736,-0.033173,-0.225462,-0.042287,-0.029015,-0.225462,0.680773,0.812739,-0.644285,3.520182,5.735931,-8.279490
1790542271.5966,-0.058302,-0.050940,-0.212648,-0.053497,-0.044363,-0.212648,1.137291,0.742319,-0.351677,2.600310,-0.770569,-10.879840
1790542271.6108,-0.044579,-0.065393,-0.217787,-0.047254,-0.059084,-0.217787,1.047444,-0.810569,-0.463378,-1.884064,1.199971,-12.432287
1790542271.6245,-0.040227,-0.083493,-0.220862,-0.042335,-0.076171,-0.220862,1.318198,-0.305486,-0.426954,0.875551,0.456371,-11.539630
1790542271.6382,-0.026502,-0.081452,-0.257810,-0.031252,-0.079867,-0.257810,0.281320,-0.834852,-0.632144,-0.925864,3.653851,-4.010259
1790542271.6521,-0.011994,-0.084916,-0.268101,-0.017771,-0.083401,-0.268101,0.280106,-1.009688,-0.723204,0.300631,0.753811,-8.240679
1790542271.6660,0.000076,-0.091412,-0.281078,-0.005278,-0.089009,-0.281078,0.559359,-0.890703,-0.641857,1.412143,2.464091,-12.121798
1790542271.6799,-0.012187,-0.078425,-0.289236,-0.010114,-0.081600,-0.289236,-0.931608,0.881945,-0.736560,2.025391,1.460231,-20.621448
1790542271.6940,-0.021351,-0.054484,-0.295121,-0.017980,-0.062619,-0.295121,-1.736584,0.863733,-0.630930,-2.918919,0.382011,-12.432287
1790542271.7078,-0.026849,-0.036885,-0.262671,-0.024188,-0.044605,-0.262671,-1.510753,0.747175,-0.639429,-3.225543,-1.997508,-6.377742
1790542271.7217,-0.033012,-0.016479,-0.263706,-0.030365,-0.024917,-0.263706,-1.429406,1.077422,-0.569008,-2.650623,0.270471,-1.332287
1790542271.7355,-0.047648,0.000775,-0.288630,-0.042463,-0.006933,-0.288630,-1.003242,1.350604,-0.621216,-1.424128,2.538451,-4.670049
1790542271.7497,-0.032735,-0.005702,-0.295221,-0.035653,-0.006071,-0.295221,0.408805,-0.859135,-0.617574,-2.957247,0.605091,-20.000469
1790542271.7643,-0.033044,0.003250,-0.293674,-0.033827,0.000454,-0.293674,-0.458092,-0.113652,-0.073638,2.830278,4.062831,-8.822846
1790542271.7784,-0.029521,-0.002489,-0.281223,-0.030813,-0.001606,-0.281223,0.261894,-0.318842,0.286962,0.722239,-0.807749,-11.462007
1790542271.7924,-0.029996,-0.014236,-0.251236,-0.030241,-0.010447,-0.251236,0.722054,-0.415973,0.877035,5.359925,-0.101329,-8.163056
1790542271.8065,-0.031421,-0.026183,-0.244851,-0.031067,-0.021463,-0.244851,0.844682,0.076969,0.642706,-0.580912,1.385871,-9.327392
1790542271.8204,-0.043652,-0.034484,-0.235247,-0.039876,-0.030577,-0.235247,0.627351,0.653686,0.858823,2.561982,2.166651,-9.637881
1790542271.8343,-0.057048,-0.046486,-0.220963,-0.051896,-0.041713,-0.220963,0.797331,0.850377,1.061585,0.722239,1.014071,-12.082986
1790542271.8482,-0.066032,-0.057987,-0.204522,-0.061791,-0.053105,-0.204522,0.751193,0.569910,1.436754,-0.427600,1.348691,-11.306763
1790542271.8619,-0.070850,-0.061983,-0.196610,-0.068133,-0.059319,-0.196610,0.311674,0.376862,1.461037,-1.347472,2.129471,-7.348021
1790542271.8758,-0.069522,-0.059450,-0.188507,-0.069105,-0.059411,-0.188507,-0.154557,-0.012878,1.418542,-2.037376,2.241011,-6.921098
1790542271.8897,-0.057608,-0.057525,-0.173844,-0.061057,-0.058091,-0.173844,-0.118132,-0.925913,1.418542,-0.504256,3.244871,-10.879840
1790542271.9037,-0.053220,-0.046745,-0.149303,-0.055572,-0.050149,-0.149303,-0.847832,-0.565312,1.246134,3.865134,1.683311,-14.760958
1790542271.9175,-0.053769,-0.040642,-0.118554,-0.054310,-0.043494,-0.118554,-0.648712,-0.219282,1.153859,3.711822,-1.662888,-13.557812
1790542271.9314,-0.049872,-0.031991,-0.095523,-0.051203,-0.035442,-0.095523,-0.723989,-0.583525,0.932885,2.830278,0.344831,-7.386832
1790542271.9453,-0.036478,-0.016883,-0.081879,-0.040895,-0.022451,-0.081879,-1.095517,-1.176026,0.792045,1.067191,0.939711,-4.902916
1790542271.9593,-0.023970,-0.005252,-0.051891,-0.029047,-0.010412,-0.051891,-1.040880,-1.184525,0.896461,1.067191,-0.510309,-3.855014
1790542271.9731,-0.035423,-0.010412,-0.037878,-0.033510,-0.010412,-0.037878,0.255823,0.727749,0.583213,1.182175,-0.250049,-16.391028
1790542271.9870,-0.028367,-0.026098,-0.052366,-0.029910,-0.021392,-0.052366,1.204068,-0.265419,-0.153772,-5.448566,3.505131,-14.916203
1790542272.0009,-0.024634,-0.037337,-0.080072,-0.026217,-0.032554,-0.080072,0.985523,0.036902,-0.782697,-4.758662,5.178231,-13.363756
1790542272.0149,-0.033909,-0.042634,-0.089070,-0.031601,-0.039610,-0.089070,0.493795,0.470351,-0.895613,4.133430,1.869211,-6.571797
1790542272.0288,-0.030479,-0.046275,-0.091190,-0.030816,-0.044275,-0.091190,0.286177,-0.305486,-0.298255,1.795423,1.311511,-9.715504
1790542272.0429,-0.021022,-0.057519,-0.090810,-0.023960,-0.053546,-0.090810,0.728125,-0.607807,-0.382030,-0.274288,-0.361589,-10.414105
1790542272.0568,-0.008212,-0.060318,-0.131478,-0.012936,-0.058286,-0.131478,0.566644,-0.768074,-0.828835,-0.619240,3.839751,-4.786483
1790542272.0703,0.002903,-0.063512,-0.149058,-0.001849,-0.061945,-0.149058,0.354169,-0.766860,-1.065592,0.683911,3.021791,-11.229140
1790542272.0841,0.005370,-0.066457,-0.168341,0.003204,-0.065103,-0.168341,0.275250,-0.065086,-1.074091,-0.274288,1.460231,-7.969000
1790542272.0982,0.011497,-0.072803,-0.176420,0.009009,-0.070493,-0.176420,0.459799,-0.402617,-0.632144,0.300631,1.237151,-11.888930
1790542272.1124,0.000343,-0.075868,-0.180063,0.002943,-0.074256,-0.180063,0.168405,0.798169,-0.582364,0.875551,0.047391,-14.062357
1790542272.1262,-0.011898,-0.070071,-0.186119,-0.007446,-0.071327,-0.186119,-0.483589,0.962078,-0.595719,-0.427600,-0.398769,-11.927742
1790542272.1402,-0.012532,-0.062612,-0.194749,-0.011006,-0.065226,-0.194749,-0.658426,0.353793,-0.672210,-4.145415,-1.476988,-9.521448
1790542272.1542,-0.015023,-0.051151,-0.207258,-0.013818,-0.055373,-0.207258,-0.917038,0.533486,-0.788768,-2.803935,-0.621849,-5.679140
1790542272.1680,-0.030572,-0.034715,-0.219527,-0.025546,-0.040912,-0.219527,-1.240000,1.322678,-0.669782,-1.155832,-0.064149,-7.037532
1790542272.1819,-0.037143,-0.022660,-0.223966,-0.033664,-0.028136,-0.223966,-1.031167,0.812739,-0.473091,-3.570495,-1.588528,-7.736133
1790542272.1958,-0.047828,-0.007087,-0.232320,-0.043578,-0.013402,-0.232320,-1.156224,1.000931,-0.355319,-1.730752,0.307651,-7.076343
1790542272.2096,-0.040165,-0.005304,-0.232186,-0.041189,-0.007733,-0.232186,-0.307539,-0.470609,-0.083351,-1.769080,-3.150088,-20.815504
1790542272.2236,-0.037176,-0.011813,-0.218720,-0.038380,-0.010589,-0.218720,0.479226,-0.485179,0.555287,4.593365,2.575631,-12.199420
1790542272.2393,-0.038125,-0.017221,-0.200669,-0.038202,-0.015231,-0.200669,0.286177,-0.188928,0.972952,2.715294,1.051251,-10.414105
1790542272.2541,-0.021346,-0.030705,-0.183532,-0.026403,-0.026063,-0.183532,0.802187,-0.896773,0.778689,-4.107087,-0.250049,-5.795574
1790542272.2685,-0.033024,-0.040597,-0.172318,-0.031038,-0.036237,-0.172318,0.705056,0.612405,0.745908,1.757095,1.237151,-7.115154
1790542272.2829,-0.045778,-0.052569,-0.161854,-0.041356,-0.047669,-0.161854,0.855610,0.811525,0.795687,0.492271,2.315371,-11.927742
1790542272.2969,-0.062094,-0.061558,-0.148308,-0.055872,-0.057391,-0.148308,0.722054,1.028856,0.955954,1.182175,2.389731,-7.580888
1790542272.3105,-0.076380,-0.063711,-0.135341,-0.070228,-0.061815,-0.135341,0.276464,0.971791,0.998449,0.492271,2.835891,-6.959909
1790542272.3242,-0.080126,-0.069272,-0.123206,-0.077157,-0.067035,-0.123206,0.272821,0.261518,1.065227,-0.389272,0.047391,-9.482637
1790542272.3383,-0.089011,-0.073311,-0.110689,-0.085455,-0.071428,-0.110689,0.165977,0.589337,1.015447,0.223975,0.196111,-9.094525
1790542272.3526,-0.085849,-0.074517,-0.100575,-0.085730,-0.073591,-0.100575,0.084629,-0.173145,0.813900,-1.117504,2.278191,-10.957462
1790542272.3666,-0.077721,-0.067349,-0.085010,-0.080124,-0.069221,-0.085010,-0.555224,-0.735292,0.830898,2.906934,1.794851,-12.898021
1790542272.3806,-0.072062,-0.056288,-0.070090,-0.074481,-0.060168,-0.070090,-0.946177,-0.605379,0.741051,3.980118,-0.882109,-13.286133
1790542272.3945,-0.061230,-0.043691,-0.055146,-0.065205,-0.048634,-0.055146,-1.095517,-1.019402,0.641491,3.903462,-1.476988,-10.802217
1790542272.4085,-0.042689,-0.028718,-0.043499,-0.049444,-0.034693,-0.043499,-1.159866,-1.477133,0.522505,1.182175,0.158931,-6.067252
1790542272.4225,-0.030414,-0.011648,-0.032333,-0.036123,-0.018561,-0.032333,-1.233929,-1.202737,0.510364,2.983590,0.976891,-6.028441
1790542272.4365,-0.014743,0.000077,-0.021825,-0.021157,-0.005514,-0.021825,-0.923109,-1.325365,0.337956,2.293686,0.382011,-9.366203
1790542272.4508,-0.024819,-0.005703,-0.018321,-0.023720,-0.005647,-0.018321,0.288605,0.563840,0.013780,4.823333,-0.956469,-17.361308
1790542272.4648,-0.028985,-0.010455,-0.034975,-0.027405,-0.009013,-0.034975,0.479226,0.466708,-0.674639,-1.347472,5.475671,-15.886483
1790542272.4787,-0.022288,-0.018761,-0.057982,-0.023824,-0.015836,-0.057982,0.646777,-0.012878,-1.259855,-4.452038,1.311511,-8.473546
1790542272.4927,-0.024602,-0.029045,-0.075522,-0.024368,-0.025083,-0.075522,0.901747,0.316155,-0.963604,-0.082648,1.980751,-5.446273
1790542272.5067,-0.024392,-0.041061,-0.085141,-0.024385,-0.036268,-0.085141,1.049872,0.034474,-0.417241,0.108991,1.683311,-3.855014
1790542272.5206,-0.011839,-0.055794,-0.095268,-0.015603,-0.049936,-0.095268,1.119078,-0.763218,-0.569008,-1.155832,1.757671,-9.560259
1790542272.5342,-0.001906,-0.066213,-0.107677,-0.006015,-0.061330,-0.107677,0.833755,-0.646660,-0.905326,-0.082648,2.092291,-11.888930
1790542272.5478,0.012216,-0.071147,-0.121277,0.006747,-0.068202,-0.121277,0.470727,-0.969622,-1.037667,0.147319,2.464091,-9.327392
1790542272.5617,0.018653,-0.074530,-0.134227,0.015081,-0.072632,-0.134227,0.300747,-0.406260,-0.961176,0.108991,1.534591,-7.969000
1790542272.5756,0.001928,-0.080910,-0.138997,0.005874,-0.078426,-0.138997,0.400306,1.117488,-0.887114,3.750150,-0.175689,-14.566903
1790542272.5898,-0.020409,-0.065453,-0.153751,-0.012524,-0.069345,-0.153751,-1.083375,1.673566,-0.834905,-0.427600,1.348691,-17.904665
1790542272.6044,-0.019970,-0.051017,-0.168707,-0.017736,-0.056515,-0.168707,-1.206004,0.245734,-0.866473,-3.340527,-3.484708,-9.637881
1790542272.6185,-0.025292,-0.038921,-0.181965,-0.023025,-0.044199,-0.181965,-1.072448,0.656114,-0.783911,-2.037376,-2.034688,-6.494175
1790542272.6325,-0.042909,-0.019015,-0.192468,-0.036944,-0.026570,-0.192468,-1.524109,1.252258,-0.720776,0.568927,-0.250049,-2.574245
1790542272.6464,-0.048347,-0.001689,-0.203359,-0.044926,-0.009154,-0.203359,-1.309206,0.634260,-0.719562,-1.424128,-0.250049,-8.046623
1790542272.6603,-0.049970,0.010246,-0.213525,-0.048457,0.004426,-0.213525,-0.811408,0.351365,-0.718348,-1.730752,2.055111,-11.888930
1790542272.6743,-0.029979,-0.006753,-0.215528,-0.035523,-0.003399,-0.215528,0.966097,-1.154171,-0.289756,-4.145415,-3.261628,-9.327392
1790542272.6883,-0.030575,-0.011288,-0.209024,-0.032059,-0.008922,-0.209024,0.351741,-0.080870,0.441158,1.067191,1.683311,-7.813756
1790542272.7022,-0.027949,-0.024965,-0.200141,-0.029182,-0.020152,-0.200141,1.011020,-0.288488,0.549217,0.760567,2.166651,-10.491728
1790542272.7161,-0.024921,-0.044592,-0.194339,-0.026199,-0.037260,-0.194339,1.312127,-0.213211,0.460584,-0.695896,-0.250049,-9.948371
1790542272.7300,-0.039614,-0.053870,-0.187067,-0.035590,-0.048887,-0.187067,0.807044,0.936581,0.425374,1.642111,2.984611,-8.318301
1790542272.7438,-0.052789,-0.064876,-0.178790,-0.047629,-0.060079,-0.178790,0.805830,0.945080,0.611138,-0.235960,1.720491,-11.539630
1790542272.7576,-0.071387,-0.073880,-0.167127,-0.064260,-0.069740,-0.167127,0.707484,1.231618,0.816328,1.373815,1.869211,-7.697322
1790542272.7711,-0.089187,-0.077216,-0.155610,-0.081709,-0.074973,-0.155610,0.305603,1.357889,0.826041,-0.580912,2.129471,-7.813756
1790542272.7847,-0.096924,-0.082195,-0.145081,-0.092360,-0.080029,-0.145081,0.354169,0.669470,0.843039,-1.194160,1.311511,-7.425644
1790542272.7987,-0.100604,-0.086462,-0.134073,-0.098131,-0.084532,-0.134073,0.252181,0.272446,0.801758,-0.005993,1.311511,-11.733686
1790542272.8126,-0.083989,-0.087732,-0.124418,-0.088231,-0.086772,-0.124418,-0.046498,-1.155386,0.851538,-0.925864,-0.175689,-12.898021
1790542272.8265,-0.077322,-0.082484,-0.110759,-0.080595,-0.083771,-0.110759,-0.488446,-0.664872,0.914673,3.443526,0.196111,-11.888930
1790542272.8403,-0.070093,-0.080225,-0.099156,-0.073243,-0.081288,-0.099156,-0.399813,-0.806927,0.981451,4.171758,-1.960328,-9.055714
1790542272.8547,-0.064211,-0.076023,-0.085601,-0.066921,-0.077603,-0.085601,-0.495731,-0.759575,0.958382,4.133430,-1.291089,-6.571797
1790542272.8687,-0.053237,-0.064811,-0.075451,-0.057342,-0.068649,-0.075451,-0.898826,-0.923484,0.687629,1.373815,0.010211,-7.192776
1790542272.8825,-0.044906,-0.049005,-0.067179,-0.048637,-0.054898,-0.067179,-1.247285,-0.777787,0.572285,2.715294,-0.175689,-11.112707
1790542272.8965,-0.031531,-0.025910,-0.063851,-0.036662,-0.034606,-0.063851,-1.669806,-1.165099,0.227469,3.290214,1.199971,-9.715504
1790542272.9104,-0.021208,-0.001967,-0.060335,-0.025845,-0.011759,-0.060335,-1.762081,-1.029115,0.186188,4.056774,0.753811,-8.357112
1790542272.9243,-0.027065,0.006573,-0.054124,-0.026699,0.001073,-0.054124,-0.812622,0.284587,0.047776,3.481854,-2.406488,-13.363756
1790542272.9382,-0.039923,-0.008220,-0.054223,-0.035956,-0.005432,-0.054223,1.057157,1.280184,-0.457307,-7.748245,1.571771,-17.516553
1790542272.9521,-0.024821,-0.019856,-0.065869,-0.028161,-0.015529,-0.065869,0.944242,-0.661230,-1.218574,-9.894612,5.326951,-21.281238
1790542272.9659,-0.041322,-0.028510,-0.080344,-0.037374,-0.024616,-0.080344,0.707484,1.164840,-0.627287,1.910407,1.757671,-7.969000
1790542272.9798,-0.039967,-0.039043,-0.085593,-0.039189,-0.034715,-0.085593,0.788832,0.222666,-0.595719,-4.183743,1.199971,-10.569350
1790542272.9934,-0.022112,-0.057296,-0.092042,-0.027235,-0.050522,-0.092042,1.315769,-1.103177,-0.737774,-2.305671,0.121751,-11.190329
1790542273.0069,-0.010692,-0.070032,-0.102869,-0.015655,-0.064179,-0.102869,1.207711,-0.725579,-0.855546,-0.427600,3.393591,-6.222497
1790542273.0209,0.001176,-0.073739,-0.115618,-0.003873,-0.070871,-0.115618,0.516864,-0.820282,-0.930823,0.415615,2.984611,-5.562707
1790542273.0348,0.014439,-0.077724,-0.128041,0.008945,-0.075668,-0.128041,0.357811,-0.945339,-1.008528,0.607255,1.199971,-5.873196
1790542273.0486,0.024181,-0.081005,-0.140590,0.019610,-0.079404,-0.140590,0.393021,-0.712224,-0.958748,0.990535,3.467951,-9.405014
1790542273.0625,0.000028,-0.074862,-0.155006,0.005903,-0.076225,-0.155006,-0.436238,1.758556,-0.985459,1.948735,2.092291,-20.194525
1790542273.0764,-0.010251,-0.052212,-0.171479,-0.005405,-0.059416,-0.171479,-1.641881,0.931725,-0.902897,-3.340527,1.385871,-20.233336
1790542273.0903,-0.007872,-0.033478,-0.197478,-0.007132,-0.041259,-0.197478,-1.549606,0.261518,-0.826406,-3.838791,-1.774428,-5.562707
1790542273.1047,-0.024669,-0.009815,-0.200723,-0.019408,-0.019248,-0.200723,-1.499826,0.977862,-0.578721,0.913879,0.642271,-1.526343
1790542273.1188,-0.048744,0.015857,-0.211488,-0.039943,0.005325,-0.211488,-1.617598,1.660210,-0.735346,1.795423,2.203831,-4.553616
1790542273.1329,-0.044667,0.009532,-0.226142,-0.043250,0.008270,-0.226142,0.291034,-0.044445,-0.850689,-2.842263,-3.893688,-21.281238
1790542273.1469,-0.036537,-0.006555,-0.224616,-0.038551,-0.002107,-0.224616,1.167644,-0.639375,-0.043285,2.485326,3.282051,-17.865854
1790542273.1609,-0.033771,-0.002808,-0.217311,-0.035205,-0.002598,-0.217311,-0.121775,-0.332197,0.460584,1.757095,5.141051,-11.267951
1790542273.1747,-0.023162,-0.014844,-0.204820,-0.026775,-0.011170,-0.204820,0.726911,-0.838494,0.877035,-0.695896,-0.435949,-8.745224
1790542273.1885,-0.017388,-0.031195,-0.196689,-0.020204,-0.025187,-0.196689,1.148218,-0.519175,0.486081,0.722239,0.753811,-9.676693
1790542273.2024,-0.026660,-0.045402,-0.186696,-0.024723,-0.039338,-0.186696,1.054729,0.463066,0.662132,2.638638,1.980751,-10.297672
1790542273.2162,-0.038548,-0.064168,-0.174659,-0.034400,-0.056719,-0.174659,1.296343,0.769030,0.913459,0.645583,0.382011,-11.888930
1790542273.2297,-0.053484,-0.079117,-0.160607,-0.047759,-0.072397,-0.160607,1.082654,1.054353,1.209710,-0.159304,1.348691,-10.452916
1790542273.2433,-0.067860,-0.078392,-0.149343,-0.061830,-0.076594,-0.149343,0.009353,1.111418,1.225494,-1.539112,2.835891,-9.249770
1790542273.2575,-0.071394,-0.074383,-0.136176,-0.068525,-0.075047,-0.136176,-0.356104,0.334367,1.282558,-2.152360,1.051251,-9.210958
1790542273.2713,-0.057021,-0.065118,-0.117237,-0.060472,-0.068097,-0.117237,-0.719133,-1.143244,1.263132,0.645583,1.980751,-12.432287
1790542273.2850,-0.051129,-0.051306,-0.097622,-0.053932,-0.056343,-0.097622,-1.054236,-0.604165,1.233993,1.987063,1.794851,-13.092077
1790542273.2989,-0.046991,-0.041626,-0.075962,-0.049073,-0.046041,-0.075962,-0.876971,-0.548314,1.294700,2.140375,-0.659029,-9.210958
1790542273.3126,-0.042543,-0.033511,-0.054855,-0.044502,-0.037270,-0.054855,-0.737345,-0.599308,1.236421,2.332014,-0.250049,-8.784035
1790542273.3264,-0.031749,-0.021280,-0.033973,-0.035575,-0.026077,-0.033973,-1.004456,-1.129889,1.118649,2.715294,0.084571,-7.115154
1790542273.3402,-0.021106,-0.005354,-0.016937,-0.025447,-0.011571,-0.016937,-1.231501,-1.088608,0.914673,2.638638,0.530731,-7.891378
1790542273.3547,-0.004400,0.012482,-0.004334,-0.010714,0.005266,-0.004334,-1.275210,-1.356933,0.549217,1.412143,0.828171,-7.580888
1790542273.3687,-0.013032,0.011515,-0.003013,-0.012336,0.009640,-0.003013,0.009353,0.571125,0.007709,1.987063,1.199971,-18.874945
1790542273.3825,-0.015458,-0.005530,-0.020132,-0.014521,-0.000979,-0.020132,1.310913,0.488563,-0.797267,-4.528694,3.765391,-14.877392
1790542273.3963,-0.005066,-0.018553,-0.042085,-0.007903,-0.013281,-0.042085,1.103295,-0.514318,-1.271997,-1.155832,3.951291,-10.375294
1790542273.4100,-0.019785,-0.027027,-0.056647,-0.016220,-0.022903,-0.056647,0.884749,0.964507,-0.606647,2.791950,4.360271,-6.610609
1790542273.4240,-0.019041,-0.044212,-0.065973,-0.018194,-0.037820,-0.065973,1.199212,0.143747,-0.443952,-2.573967,0.382011,-11.656063
1790542273.4380,-0.000940,-0.065960,-0.079626,-0.006116,-0.057518,-0.079626,1.537957,-1.049755,-0.787554,-3.647151,0.716631,-13.014455
1790542273.4517,0.006280,-0.077675,-0.094274,0.002561,-0.071628,-0.094274,1.072941,-0.448755,-0.939322,-0.082648,2.464091,-5.407462
1790542273.4654,0.011853,-0.079943,-0.104893,0.009066,-0.077448,-0.104893,0.267965,-0.423258,-1.000029,1.143847,2.129471,-8.279490
1790542273.4791,0.022444,-0.084398,-0.110154,0.018430,-0.082313,-0.110154,0.249753,-0.819068,-0.927180,1.143847,-0.250049,-7.425644
1790542273.4930,0.033767,-0.092001,-0.115558,0.029166,-0.089094,-0.115558,0.444015,-0.866420,-0.944178,1.603783,-0.696209,-10.258860
1790542273.5069,0.016062,-0.088146,-0.121796,0.019993,-0.088430,-0.121796,-0.431381,1.261971,-0.845833,2.293686,-3.261628,-21.281238
1790542273.5208,-0.006860,-0.068805,-0.132415,0.001196,-0.074693,-0.132415,-1.446404,1.728202,-0.714705,-0.619240,-0.212869,-18.991378
1790542273.5348,-0.000846,-0.052638,-0.157886,-0.000233,-0.059254,-0.157886,-1.417264,0.028403,-0.771770,-5.141942,-3.112908,-5.407462
1790542273.5488,-0.007488,-0.034903,-0.165942,-0.005311,-0.042209,-0.165942,-1.561747,0.583266,-0.757200,-0.082648,-1.216729,-2.845923
1790542273.5627,-0.027938,-0.006302,-0.177483,-0.021150,-0.017074,-0.177483,-1.958772,1.429523,-0.528942,0.913879,1.088431,-3.699769
1790542273.5766,-0.041354,0.016408,-0.192892,-0.035292,0.006364,-0.192892,-1.638238,1.302038,-0.989101,-1.692424,0.530731,-6.998721
1790542273.5904,-0.050486,0.009739,-0.202303,-0.045928,0.008727,-0.202303,0.338385,0.902585,-0.650356,-2.995575,-3.075728,-20.505015
1790542273.6045,-0.041706,-0.009756,-0.200647,-0.042972,-0.004211,-0.200647,1.358264,-0.683084,0.062346,2.370342,2.241011,-20.699071
1790542273.6190,-0.040431,-0.009697,-0.191463,-0.041193,-0.008051,-0.191463,0.029993,0.002906,0.471511,-1.807408,1.832031,-7.503266
1790542273.6330,-0.028769,-0.016693,-0.178083,-0.032497,-0.014101,-0.178083,0.429446,-0.844565,0.787188,-1.462456,0.753811,-10.064805
1790542273.6471,-0.027256,-0.032863,-0.166900,-0.028828,-0.027235,-0.166900,1.081440,-0.230209,0.833326,0.530599,0.493551,-9.560259
1790542273.6609,-0.035872,-0.050149,-0.155748,-0.033759,-0.043275,-0.155748,1.246563,0.359864,1.025160,2.830278,1.460231,-9.366203
1790542273.6747,-0.048799,-0.057800,-0.143113,-0.044287,-0.053442,-0.143113,0.658919,0.816381,0.989950,1.105519,3.579491,-10.375294
1790542273.6882,-0.059541,-0.061926,-0.129572,-0.054965,-0.059381,-0.129572,0.386951,0.753246,1.039730,-0.120976,3.170511,-9.987182
1790542273.7018,-0.063552,-0.059296,-0.114803,-0.060976,-0.059321,-0.114803,-0.091421,0.255448,1.071298,-0.274288,3.653851,-9.443825
1790542273.7156,-0.060691,-0.058586,-0.100587,-0.060776,-0.058806,-0.100587,-0.092635,-0.267848,1.020304,0.070663,1.311511,-9.482637
1790542273.7296,-0.064120,-0.058254,-0.085614,-0.063117,-0.058419,-0.085614,-0.085351,0.108536,1.040944,1.335487,1.014071,-9.831937
1790542273.7437,-0.058413,-0.057987,-0.073273,-0.059824,-0.058117,-0.073273,0.017852,-0.460896,0.816328,0.300631,3.133331,-12.393476
1790542273.7575,-0.049095,-0.051973,-0.058559,-0.052314,-0.053816,-0.058559,-0.516371,-0.900416,0.819970,3.826806,0.642271,-13.053266
1790542273.7714,-0.044602,-0.041623,-0.047446,-0.046916,-0.045281,-0.047446,-0.829620,-0.528888,0.601425,3.405198,0.196111,-11.811308
1790542273.7854,-0.039808,-0.031823,-0.036514,-0.041940,-0.035860,-0.036514,-0.885470,-0.594452,0.560144,3.060246,-1.365448,-8.240679
1790542273.7995,-0.023389,-0.014562,-0.027625,-0.028954,-0.020952,-0.027625,-1.287351,-1.359361,0.412019,1.258831,0.344831,-5.096972
1790542273.8133,-0.010529,0.001126,-0.020164,-0.016057,-0.005498,-0.020164,-1.282495,-1.245232,0.317315,2.255358,-0.473129,-4.708860
1790542273.8271,-0.009224,0.006271,-0.017961,-0.011274,0.002740,-0.017961,-0.438666,-0.203498,0.029564,2.638638,0.753811,-14.528091
1790542273.8409,-0.023006,-0.010198,-0.024510,-0.019486,-0.006317,-0.024510,1.147004,1.125987,-0.508301,-0.887536,1.088431,-20.505015
1790542273.8549,-0.008996,-0.021081,-0.051728,-0.012143,-0.016652,-0.051728,0.962454,-0.554385,-1.383698,-6.521750,5.401311,-12.354665
1790542273.8689,-0.024072,-0.025578,-0.073063,-0.020493,-0.022900,-0.073063,0.470727,0.891658,-0.899255,4.631693,2.798711,-6.921098
1790542273.8830,-0.014170,-0.035534,-0.085268,-0.016067,-0.031744,-0.085268,0.787618,-0.303058,-0.573865,-4.720334,1.794851,-7.115154
1790542273.8971,-0.001686,-0.057917,-0.097429,-0.006000,-0.050065,-0.097429,1.631446,-0.680656,-0.809408,-2.305671,1.683311,-11.035084
1790542273.9107,0.016340,-0.075529,-0.112606,0.009638,-0.067890,-0.112606,1.474822,-1.189381,-1.019455,-1.040848,3.542311,-9.133336
1790542273.9242,0.024666,-0.081335,-0.124021,0.020158,-0.077302,-0.124021,0.702628,-0.647874,-1.066807,1.182175,4.100011,-6.455364
1790542273.9378,0.036056,-0.087878,-0.137137,0.031287,-0.084705,-0.137137,0.521720,-0.828781,-1.136013,0.568927,1.385871,-7.658511
1790542273.9516,0.029948,-0.093508,-0.145943,0.030349,-0.090867,-0.145943,0.311674,0.433926,-0.932037,0.875551,-0.547489,-11.035084
1790542273.9655,0.002932,-0.089427,-0.156935,0.011157,-0.089859,-0.156935,-0.334250,1.947962,-0.895613,1.795423,0.382011,-18.486833
1790542273.9794,-0.003070,-0.074627,-0.175726,0.001198,-0.079197,-0.175726,-1.099159,0.648830,-0.974532,-2.497311,0.158931,-10.491728
1790542273.9932,-0.001525,-0.062520,-0.192223,-0.000708,-0.067523,-0.192223,-1.106444,0.238450,-0.908968,-4.260399,-3.112908,-8.046623
1790542274.0071,-0.009120,-0.044108,-0.209982,-0.006596,-0.051132,-0.209982,-1.462188,0.847949,-1.026740,-1.424128,-0.659029,-4.320748
1790542274.0209,-0.022641,-0.019715,-0.220825,-0.017828,-0.029140,-0.220825,-1.598172,1.065280,-0.870116,0.300631,1.608951,-3.893825
1790542274.0349,-0.034898,-0.000034,-0.235932,-0.029777,-0.008766,-0.235932,-1.462188,1.119917,-0.715919,-1.539112,0.084571,-8.434735
1790542274.0489,-0.045566,0.014438,-0.251242,-0.040830,0.007477,-0.251242,-1.068806,1.032499,-0.754772,-2.229015,0.493551,-12.199420
1790542274.0627,-0.031298,0.005507,-0.260274,-0.034158,0.006098,-0.260274,0.601854,-0.765646,-0.639429,-5.141942,0.976891,-20.078091
1790542274.0766,-0.026670,-0.013398,-0.255963,-0.028916,-0.007549,-0.255963,1.329125,-0.377120,0.308816,0.147319,0.753811,-7.115154
1790542274.0906,-0.017423,-0.018447,-0.244421,-0.020871,-0.015178,-0.244421,0.390593,-0.798428,0.571071,0.913879,1.794851,-8.512357
1790542274.1046,-0.017630,-0.033150,-0.226519,-0.018602,-0.027758,-0.226519,1.149432,-0.249636,0.739837,2.830278,2.798711,-8.551168
1790542274.1187,-0.023110,-0.046485,-0.212821,-0.021757,-0.040867,-0.212821,1.020733,0.171672,0.634207,2.983590,2.835891,-10.336483
1790542274.1329,-0.037351,-0.061388,-0.202507,-0.032673,-0.055231,-0.202507,1.076583,0.851591,0.623279,2.255358,1.869211,-11.035084
1790542274.1467,-0.059368,-0.075344,-0.190232,-0.051360,-0.069310,-0.190232,1.128792,1.446521,0.818756,1.948735,2.947431,-8.667602
1790542274.1604,-0.077848,-0.078285,-0.178701,-0.069901,-0.075593,-0.178701,0.326244,1.277755,0.999663,0.645583,2.984611,-7.813756
1790542274.1743,-0.086258,-0.082238,-0.171557,-0.081351,-0.080245,-0.171557,0.215757,0.685254,1.071298,-1.385800,0.865351,-8.395923
1790542274.1883,-0.086985,-0.084103,-0.165119,-0.085295,-0.082946,-0.165119,0.062775,0.113393,0.827255,-1.194160,0.865351,-11.423196
1790542274.2022,-0.074659,-0.082496,-0.151351,-0.077850,-0.082631,-0.151351,-0.271114,-0.944125,1.036088,0.683911,-0.473129,-14.411658
1790542274.2161,-0.062082,-0.073511,-0.135632,-0.066812,-0.076247,-0.135632,-0.776197,-1.029115,0.943813,1.795423,-0.212869,-11.850119
1790542274.2300,-0.062145,-0.065099,-0.108414,-0.063545,-0.068444,-0.108414,-0.825977,-0.351623,1.156288,3.750150,-1.291089,-6.765853
1790542274.2439,-0.054822,-0.053216,-0.088701,-0.057439,-0.057784,-0.088701,-1.000814,-0.738935,1.118649,1.258831,-0.138509,-5.368651
1790542274.2577,-0.036208,-0.040092,-0.077789,-0.042577,-0.045400,-0.077789,-0.947391,-1.321723,0.966881,-1.462456,1.646131,-7.813756
1790542274.2716,-0.026189,-0.023804,-0.062569,-0.031106,-0.030283,-0.062569,-1.220573,-0.990262,0.624493,4.171758,0.939711,-11.539630
1790542274.2855,-0.013514,-0.001961,-0.050591,-0.018792,-0.010457,-0.050591,-1.611527,-1.194238,0.379237,4.056774,1.125611,-10.181238
1790542274.2994,-0.030801,0.006404,-0.045114,-0.027198,0.001345,-0.045114,-0.634143,0.964507,0.263893,4.593365,0.976891,-9.366203
1790542274.3146,-0.021750,-0.006587,-0.075700,-0.023384,-0.004207,-0.075700,0.859252,-0.089369,-0.629715,-10.776156,1.014071,-10.375294
1790542274.3291,-0.012191,-0.016574,-0.090701,-0.015549,-0.012864,-0.090701,0.915103,-0.283631,-0.672210,-4.911974,4.843611,-7.697322
1790542274.3437,-0.023953,-0.031839,-0.102804,-0.021432,-0.026146,-0.102804,1.064442,0.971791,-0.520443,-1.309144,1.274331,-9.831937
1790542274.3579,-0.005740,-0.044912,-0.115452,-0.010447,-0.039282,-0.115452,1.009806,-0.962337,-0.749915,-4.068759,2.389731,-9.249770
1790542274.3733,0.000148,-0.059704,-0.124789,-0.003030,-0.053577,-0.124789,1.028018,-0.298201,-0.717134,-0.274288,1.943571,-9.715504
1790542274.3867,0.010501,-0.067670,-0.133689,0.006442,-0.063442,-0.133689,0.732981,-0.626020,-0.873758,-0.964192,2.352551,-7.386832
1790542274.4000,0.021929,-0.068455,-0.136540,0.017283,-0.066951,-0.136540,0.229112,-0.810569,-0.864045,0.070663,2.017931,-5.213406
1790542274.4140,0.026852,-0.075091,-0.146742,0.023981,-0.072649,-0.146742,0.463442,-0.315199,-0.924752,0.338959,0.865351,-9.443825
1790542274.4279,0.034367,-0.081437,-0.156620,0.031251,-0.078800,-0.156620,0.581213,-0.425686,-0.808194,-1.769080,4.062831,-12.820399
1790542274.4418,0.011103,-0.068895,-0.164853,0.017148,-0.071867,-0.164853,-0.864830,1.686921,-0.827621,1.412143,3.244871,-18.642077
1790542274.4556,0.001153,-0.049959,-0.188698,0.005951,-0.056531,-0.188698,-1.384483,0.981505,-0.678281,-3.723807,0.902531,-11.423196
1790542274.4696,-0.005287,-0.033967,-0.223731,-0.001915,-0.040737,-0.223731,-1.363842,0.965721,-0.713491,-2.765607,-1.105189,-2.845923
1790542274.4835,-0.018177,-0.018798,-0.236158,-0.013299,-0.025380,-0.236158,-1.123442,1.066495,-0.372317,-0.427600,0.270471,-3.738581
1790542274.4974,-0.035363,-0.006738,-0.245121,-0.028744,-0.012331,-0.245121,-0.866044,1.319036,-0.348034,0.070663,1.199971,-9.521448
1790542274.5113,-0.040548,-0.002014,-0.257490,-0.037007,-0.005109,-0.257490,-0.413169,0.588123,-0.250903,-3.570495,0.158931,-14.683336
1790542274.5252,-0.025984,-0.004924,-0.260452,-0.029291,-0.004979,-0.260452,0.060347,-1.010903,0.300317,-2.037376,-1.030829,-16.468651
1790542274.5391,-0.018208,-0.006121,-0.245568,-0.021533,-0.005779,-0.245568,0.073702,-0.702511,0.884320,0.377287,1.794851,-10.802217
1790542274.5530,-0.013736,-0.012776,-0.225370,-0.016075,-0.010677,-0.225370,0.413662,-0.610236,1.088296,1.450471,0.382011,-6.300119
1790542274.5669,-0.019533,-0.025926,-0.177156,-0.018495,-0.021351,-0.177156,1.081440,0.023546,0.792045,1.220503,0.828171,-2.108511
1790542274.5808,-0.030384,-0.044767,-0.160847,-0.026818,-0.037742,-0.160847,1.365549,0.590551,0.811471,2.063719,1.534591,-10.220049
1790542274.5946,-0.046655,-0.061314,-0.140306,-0.040704,-0.054243,-0.140306,1.225923,0.991218,1.068869,2.178703,2.426911,-11.656063
1790542274.6083,-0.069596,-0.071029,-0.115728,-0.060929,-0.065993,-0.115728,0.821614,1.515727,1.173286,1.527127,3.170511,-8.279490
1790542274.6223,-0.070943,-0.077656,-0.111498,-0.067939,-0.074157,-0.111498,0.424589,0.228736,1.208496,-2.957247,1.460231,-9.637881
1790542274.6363,-0.073637,-0.083303,-0.083351,-0.071927,-0.080559,-0.083351,0.512007,0.074540,1.175714,1.297159,4.137191,-9.948371
1790542274.6502,-0.065955,-0.086011,-0.073551,-0.067747,-0.084375,-0.073551,-0.029500,-0.599308,1.260704,0.147319,-1.848788,-13.014455
1790542274.6641,-0.064145,-0.085004,-0.058200,-0.065225,-0.084816,-0.058200,-0.326965,-0.304272,1.179356,2.830278,-2.852648,-12.315854
1790542274.6780,-0.060783,-0.086189,-0.038700,-0.062115,-0.085777,-0.038700,-0.189767,-0.483965,1.227922,4.018446,-3.298808,-11.656063
1790542274.6918,-0.049609,-0.081860,-0.016161,-0.053361,-0.083035,-0.016161,-0.476304,-1.038828,1.265560,2.408670,-0.659029,-8.046623
1790542274.7057,-0.042311,-0.072096,0.010024,-0.045626,-0.075378,0.010024,-0.839333,-0.905272,1.170857,3.865134,-0.473129,-6.455364
1790542274.7195,-0.041769,-0.055337,0.031749,-0.042926,-0.061349,0.031749,-1.350487,-0.375906,1.161144,3.596838,-0.398769,-7.813756
1790542274.7334,-0.034256,-0.031824,0.048455,-0.036857,-0.040681,0.048455,-1.839786,-0.826353,0.829683,3.136902,-0.621849,-8.473546
1790542274.7473,-0.019415,-0.002187,0.062378,-0.024648,-0.013736,0.062378,-2.236810,-1.326580,0.612352,2.408670,0.121751,-8.007811
1790542274.7610,-0.013555,0.023772,0.072199,-0.016883,0.012519,0.072199,-1.989125,-0.721937,0.460584,2.791950,0.196111,-7.309210
1790542274.7748,-0.044012,-0.000042,0.076321,-0.035873,0.003726,0.076321,1.539172,2.100944,0.249323,4.555037,-3.707788,-21.281238
1790542274.7887,-0.021381,-0.007887,0.001080,-0.025729,-0.004403,0.001080,1.149432,-1.502630,-0.559295,-0.504256,7.818010,-2.574245
1790542274.8025,-0.031623,-0.019873,0.001167,-0.029854,-0.015232,0.001167,0.923602,0.646401,-0.402671,3.060246,2.166651,-10.103616
1790542274.8164,-0.036696,-0.032560,-0.010950,-0.034643,-0.027361,-0.010950,0.955169,0.566268,-0.519228,-1.462456,1.237151,-8.046623
1790542274.8302,-0.023077,-0.056304,0.001335,-0.026547,-0.047621,0.001335,1.479679,-0.921056,-0.594505,0.032335,-2.703928,-7.891378
1790542274.8438,-0.014071,-0.077928,-0.008085,-0.017814,-0.068836,-0.008085,1.746790,-0.768074,-0.834905,1.948735,1.943571,-6.067252
1790542274.8574,0.002865,-0.084007,-0.033114,-0.003339,-0.079456,-0.033114,0.754836,-1.048541,-0.970889,-1.730752,4.620531,-7.115154
1790542274.8717,0.017141,-0.089999,-0.046915,0.010997,-0.086836,-0.046915,0.497438,-0.970836,-0.940536,0.415615,2.166651,-10.452916
1790542274.8858,0.033016,-0.096663,-0.065920,0.026410,-0.093715,-0.065920,0.532648,-0.970836,-0.901683,-1.807408,1.720491,-9.094525
1790542274.9000,0.028546,-0.097321,-0.084140,0.027905,-0.096239,-0.084140,0.226684,0.414500,-0.979388,-1.270816,5.141051,-11.811308
1790542274.9140,0.011288,-0.077495,-0.101394,0.016273,-0.083119,-0.101394,-1.435477,1.414953,-0.678281,-3.838791,1.162791,-17.128441
1790542274.9278,0.006887,-0.055904,-0.109409,0.009703,-0.064069,-0.109409,-1.736584,0.633046,-0.729275,-4.950302,-2.369308,-10.608161
1790542274.9416,0.004143,-0.033278,-0.122298,0.005811,-0.042515,-0.122298,-1.763295,0.588123,-0.904112,-3.762135,-0.807749,-6.959909
1790542274.9556,-0.009237,-0.010496,-0.121814,-0.004723,-0.020102,-0.121814,-1.894422,1.025214,-0.552010,0.185647,-1.885968,-5.795574
1790542274.9694,-0.016624,0.011428,-0.134998,-0.013054,0.001969,-0.134998,-1.600600,0.863733,-0.681924,-1.692424,0.605091,-4.825294
1790542274.9832,-0.038293,0.024948,-0.138184,-0.030721,0.018054,-0.138184,-0.787125,1.652925,-0.527727,0.492271,2.464091,-5.019350
1790542274.9970,-0.040408,0.005563,-0.136516,-0.037502,0.009310,-0.136516,1.394689,0.107322,-0.026287,1.795423,2.055111,-13.984735
1790542275.0109,-0.041330,-0.004052,-0.128657,-0.040181,-0.000043,-0.128657,0.751193,0.018690,0.549217,-0.197632,3.951291,-13.557812
1790542275.0248,-0.039439,-0.009411,-0.112464,-0.039662,-0.006601,-0.112464,0.391807,-0.317627,0.889176,1.718767,3.021791,-13.635434
1790542275.0387,-0.031605,-0.024237,-0.092805,-0.034022,-0.018946,-0.092805,0.981880,-0.792357,0.980237,1.795423,0.567911,-9.754315
1790542275.0525,-0.038051,-0.042721,-0.065857,-0.036842,-0.035589,-0.065857,1.242921,0.114607,0.931671,2.791950,0.010211,-5.950818
1790542275.0660,-0.053026,-0.056330,-0.042265,-0.048171,-0.050107,-0.042265,1.032874,0.748389,1.026374,3.251886,1.385871,-6.106063
1790542275.0795,-0.066281,-0.060069,-0.036573,-0.060848,-0.057081,-0.036573,0.351741,0.973006,1.059156,-0.619240,3.058971,-9.599070
1790542275.0935,-0.074448,-0.061789,-0.025410,-0.070368,-0.060377,-0.025410,0.079773,0.562626,1.236421,-0.772552,1.943571,-11.850119
1790542275.1073,-0.075056,-0.055405,-0.014197,-0.073650,-0.056896,-0.014197,-0.496945,0.022332,1.213352,-0.887536,2.612811,-13.208511
1790542275.1213,-0.064837,-0.045973,-0.002690,-0.067481,-0.049250,-0.002690,-0.738559,-0.758361,1.089510,-0.849208,1.683311,-11.811308
1790542275.1357,-0.050503,-0.032727,0.018317,-0.055596,-0.037684,0.018317,-0.954676,-1.180882,1.083439,1.948735,2.241011,-12.315854
1790542275.1498,-0.051743,-0.019693,0.053931,-0.052899,-0.025091,0.053931,-1.048165,-0.328555,1.068869,5.244941,0.196111,-9.133336
1790542275.1637,-0.042339,-0.012188,0.074373,-0.045507,-0.016059,0.074373,-0.680280,-0.884632,0.868536,1.603783,-0.138509,-8.745224
1790542275.1776,-0.026834,0.006518,0.082187,-0.032436,-0.000255,0.082187,-1.169579,-1.347220,0.705841,1.028863,2.315371,-4.049070
1790542275.1915,-0.015078,0.017758,0.095744,-0.020285,0.012354,0.095744,-0.881828,-1.002404,0.340384,2.140375,1.088431,-14.023546
1790542275.2054,-0.020238,0.003810,0.092023,-0.020252,0.006373,0.092023,0.970953,0.433926,-0.168341,-0.504256,1.794851,-17.516553
1790542275.2193,-0.015803,-0.003769,0.069594,-0.017137,-0.000727,0.069594,0.691700,-0.117294,-1.092304,-0.657568,5.587211,-15.537182
1790542275.2332,-0.007389,-0.012873,0.028098,-0.010313,-0.009229,0.028098,0.752407,-0.114866,-1.542750,-3.110559,1.720491,-6.494175
1790542275.2471,-0.010018,-0.018646,0.020352,-0.010106,-0.015821,0.020352,0.680773,0.208096,-0.765699,0.683911,2.501271,-3.816203
1790542275.2610,-0.001855,-0.032987,-0.005083,-0.004330,-0.027837,-0.005083,0.980666,-0.226567,-0.569008,-2.803935,0.047391,-5.485084
1790542275.2749,0.014855,-0.050276,-0.020683,0.009099,-0.043544,-0.020683,1.338838,-1.030329,-0.859188,-1.615768,2.798711,-10.530539
1790542275.2888,0.020736,-0.057361,-0.032544,0.017245,-0.053216,-0.032544,0.611567,-0.343124,-1.183364,0.377287,3.356411,-11.190329
1790542275.3022,0.028325,-0.064302,-0.037986,0.025001,-0.060976,-0.037986,0.532648,-0.572597,-1.197934,1.412143,1.497411,-9.560259
1790542275.3157,0.036144,-0.066338,-0.043850,0.032801,-0.064730,-0.043850,0.189046,-0.578668,-1.001243,1.105519,2.241011,-11.384385
1790542275.3296,0.019218,-0.079009,-0.044016,0.023293,-0.074725,-0.044016,0.640706,1.189123,-0.893184,2.140375,-5.009088,-13.907112
1790542275.3435,0.002784,-0.073375,-0.062174,0.008937,-0.073780,-0.062174,-0.459306,1.351818,-0.706206,-2.612295,0.010211,-15.575993
1790542275.3574,0.001748,-0.066923,-0.087335,0.003905,-0.068980,-0.087335,-0.654783,0.380504,-0.787554,-5.026958,-3.187268,-11.772497
1790542275.3712,-0.000538,-0.055231,-0.113812,0.000795,-0.059356,-0.113812,-0.963175,0.631832,-0.932037,-3.800463,-0.770569,-4.864105
1790542275.3853,-0.008642,-0.039129,-0.135267,-0.005811,-0.045197,-0.135267,-1.266711,0.875874,-0.866473,-2.688951,-0.882109,-7.852567
1790542275.3993,-0.021454,-0.026303,-0.129628,-0.016761,-0.031971,-0.129628,-1.185363,0.787242,-0.547154,2.102047,-2.257768,-5.291028
1790542275.4132,-0.020049,-0.010601,-0.141008,-0.019062,-0.017012,-0.141008,-1.254569,0.194740,-0.496160,-3.148887,-0.882109,-8.279490
1790542275.4270,-0.029171,0.006641,-0.153461,-0.026139,-0.000455,-0.153461,-1.384483,0.834593,-0.433024,-1.385800,-0.956469,-10.414105
1790542275.4410,-0.023179,0.013085,-0.163539,-0.024067,0.009023,-0.163539,-0.585577,-0.293345,-0.470663,-1.462456,-1.068009,-18.098721
1790542275.4549,-0.011015,-0.002746,-0.159419,-0.014931,0.000785,-0.159419,0.940600,-1.049755,0.310031,3.098574,-2.518028,-14.760958
1790542275.4687,-0.020669,-0.020208,-0.143841,-0.018948,-0.013910,-0.143841,1.272060,0.384147,0.835754,4.746677,1.943571,-12.277042
1790542275.4825,-0.020885,-0.027522,-0.129055,-0.020304,-0.023439,-0.129055,0.658919,-0.237494,0.268750,2.523654,2.203831,-5.795574
1790542275.4963,-0.024996,-0.037291,-0.125246,-0.023589,-0.033135,-0.125246,0.740266,0.112179,-0.002004,3.366870,1.683311,-9.443825
1790542275.5101,-0.037298,-0.052475,-0.122168,-0.033185,-0.046673,-0.122168,1.080226,0.765387,0.221398,2.906934,0.902531,-13.014455
1790542275.5236,-0.056454,-0.063384,-0.114744,-0.049473,-0.058371,-0.114744,0.926030,1.261971,0.481225,2.255358,2.835891,-8.628791
1790542275.5372,-0.071384,-0.069028,-0.108486,-0.064811,-0.065831,-0.108486,0.552074,1.197622,0.552859,-1.347472,3.096151,-8.357112
1790542275.5512,-0.072605,-0.070606,-0.101753,-0.070267,-0.069173,-0.101753,0.197545,0.227522,0.544360,-1.999048,2.426911,-7.969000
1790542275.5651,-0.077836,-0.072525,-0.093115,-0.075565,-0.071520,-0.093115,0.112555,0.353793,0.679130,0.223975,0.976891,-7.930189
1790542275.5789,-0.074015,-0.069211,-0.082245,-0.074480,-0.069904,-0.082245,-0.139987,-0.281203,0.612352,-0.005993,3.319231,-9.676693
1790542275.5928,-0.055804,-0.069243,-0.074701,-0.061407,-0.069442,-0.074701,-0.183696,-1.259802,0.775047,-2.114032,-1.923148,-15.187882
1790542275.6067,-0.046840,-0.056780,-0.056159,-0.051210,-0.060578,-0.056159,-0.972888,-0.901630,0.759263,4.440053,0.456371,-11.850119
1790542275.6206,-0.044285,-0.044150,-0.035997,-0.046363,-0.049078,-0.035997,-1.066377,-0.532531,0.676701,5.321597,-1.142369,-9.327392
1790542275.6349,-0.031803,-0.025935,-0.023678,-0.036171,-0.032878,-0.023678,-1.396624,-1.118961,0.378023,2.485326,-0.435949,-6.300119
1790542275.6495,-0.022087,-0.008945,-0.013413,-0.026312,-0.016125,-0.013413,-1.290994,-0.992690,0.222612,3.788478,-0.547489,-6.261308
1790542275.6636,-0.006602,0.007193,-0.006459,-0.012515,0.000197,-0.006459,-1.158652,-1.353291,0.259037,3.021918,1.274331,-8.279490
1790542275.6774,-0.014994,0.009719,-0.008852,-0.014250,0.006863,-0.008852,-0.238332,0.602692,-0.277614,2.293686,1.311511,-21.281238
1790542275.6913,-0.025322,0.006316,-0.026084,-0.022000,0.006480,-0.026084,0.314102,0.923226,-0.959962,0.070663,3.988471,-17.206063
1790542275.7054,-0.026463,0.006137,-0.052892,-0.025124,0.006240,-0.052892,0.130767,0.517702,-1.390982,-3.110559,2.538451,-8.667602
1790542275.7192,-0.028145,0.001671,-0.071172,-0.027239,0.003042,-0.071172,0.462228,0.452139,-0.811837,-1.654096,1.794851,-5.019350
1790542275.7331,-0.039543,-0.007107,-0.083389,-0.035852,-0.004062,-0.083389,0.662561,1.028856,-0.616360,-1.117504,1.274331,-8.900469
1790542275.7470,-0.028780,-0.017738,-0.099804,-0.030902,-0.013635,-0.099804,0.867751,-0.434185,-0.966033,-3.532167,2.761531,-10.414105
1790542275.7605,-0.019699,-0.025073,-0.116097,-0.023060,-0.021642,-0.116097,0.618852,-0.440256,-1.151796,-1.309144,2.129471,-10.724595
1790542275.7740,-0.014376,-0.026059,-0.129450,-0.016981,-0.024734,-0.129450,0.241254,-0.273918,-1.156653,0.415615,2.761531,-7.270399
1790542275.7881,-0.009795,-0.023179,-0.139437,-0.011951,-0.023646,-0.139437,-0.108419,-0.282417,-0.966033,0.913879,1.720491,-6.261308
1790542275.8020,-0.004188,-0.025163,-0.152305,-0.006516,-0.024708,-0.152305,0.125910,-0.267848,-0.918681,-0.274288,0.828171,-9.909560
1790542275.8158,-0.000421,-0.028598,-0.164892,-0.002250,-0.027431,-0.164892,0.247324,-0.153718,-0.925966,-0.044320,1.199971,-10.608161
1790542275.8297,-0.006202,-0.024334,-0.175714,-0.005016,-0.025263,-0.175714,-0.028286,0.568696,-0.718348,-1.002520,6.107730,-8.978091
1790542275.8435,-0.024288,-0.016466,-0.188282,-0.018507,-0.019105,-0.188282,-0.526084,1.400384,-0.839762,1.220503,2.873071,-16.274595
1790542275.8573,-0.030072,-0.002780,-0.203589,-0.026602,-0.007678,-0.203589,-0.955890,0.647615,-0.562938,-2.229015,1.980751,-11.035084
1790542275.8713,-0.039280,0.008248,-0.219466,-0.035477,0.003471,-0.219466,-0.876971,0.912298,-0.426954,-2.612295,-0.212869,-10.452916
1790542275.8851,-0.025064,0.005325,-0.225311,-0.028188,0.004769,-0.225311,0.084629,-0.820282,-0.003218,-3.877119,-0.584669,-11.112707
1790542275.8993,-0.033769,0.004778,-0.192939,-0.032095,0.004775,-0.192939,0.089486,0.197169,0.605067,4.516709,1.906391,-6.377742
1790542275.9134,-0.033596,-0.002358,-0.188304,-0.033146,-0.000218,-0.188304,0.352955,0.022332,0.912245,-2.343999,-0.473129,-8.939280
1790542275.9273,-0.027263,-0.012478,-0.179107,-0.029028,-0.008800,-0.179107,0.674702,-0.457254,0.902532,-1.730752,0.976891,-9.016902
1790542275.9413,-0.026502,-0.023777,-0.170311,-0.027260,-0.019284,-0.170311,0.720840,-0.146433,0.768976,0.108991,0.196111,-10.841028
1790542275.9552,-0.038755,-0.037221,-0.155006,-0.035306,-0.031840,-0.155006,0.901747,0.650044,0.948669,2.830278,0.605091,-11.423196
1790542275.9690,-0.048061,-0.049897,-0.136645,-0.044234,-0.044480,-0.136645,0.935743,0.518916,1.208496,0.722239,1.646131,-7.386832
1790542275.9825,-0.064340,-0.057072,-0.118492,-0.058308,-0.053294,-0.118492,0.559359,1.082278,1.288629,0.568927,1.906391,-7.464455
1790542275.9960,-0.075120,-0.061596,-0.105529,-0.070076,-0.059106,-0.105529,0.337171,0.794527,1.147789,-0.657568,1.794851,-7.969000
1790542276.0094,-0.080680,-0.067843,-0.094013,-0.077499,-0.065222,-0.094013,0.372381,0.410858,1.146574,-0.695896,0.865351,-10.608161
1790542276.0232,-0.067637,-0.073371,-0.085470,-0.070596,-0.070926,-0.085470,0.181761,-0.914985,1.033659,-1.807408,-1.997508,-14.372847
1790542276.0370,-0.060665,-0.070381,-0.068099,-0.063644,-0.070544,-0.068099,-0.288112,-0.660016,1.008162,2.868606,1.199971,-15.343126
1790542276.0508,-0.057474,-0.069413,-0.053788,-0.059325,-0.069753,-0.053788,-0.265044,-0.388048,1.004520,2.140375,-1.625708,-11.811308
1790542276.0648,-0.051816,-0.064387,-0.031879,-0.054069,-0.065996,-0.031879,-0.521228,-0.736506,0.868536,4.516709,-1.030829,-8.434735
1790542276.0787,-0.036316,-0.048676,-0.012892,-0.041642,-0.053872,-0.012892,-1.180507,-1.404285,0.844253,3.328542,0.716631,-8.163056
1790542276.0926,-0.032217,-0.028068,0.010910,-0.035044,-0.035809,0.010910,-1.564176,-0.826353,0.806615,5.474909,0.047391,-4.980539
1790542276.1064,-0.019612,-0.008765,0.027204,-0.024242,-0.016878,0.027204,-1.604242,-1.072824,0.686415,0.530599,-0.733389,-4.243126
1790542276.1204,-0.001899,0.011508,0.039117,-0.008602,0.002992,0.039117,-1.545963,-1.433424,0.482439,1.028863,0.270471,-8.512357
1790542276.1342,0.004410,0.023271,0.046564,0.000507,0.017187,0.046564,-1.038452,-0.570169,0.149764,2.830278,-2.927008,-21.281238
1790542276.1484,-0.009910,0.001766,0.043583,-0.006785,0.006392,0.043583,1.378905,1.119917,-0.315253,-1.462456,-1.476988,-21.048371
1790542276.1632,-0.004314,-0.012754,0.030380,-0.005055,-0.007010,0.030380,1.036517,-0.134292,-0.853118,-4.030431,4.174371,-18.680889
1790542276.1772,-0.011165,-0.021675,0.021405,-0.009332,-0.017275,0.021405,0.669846,0.534700,-0.493731,0.530599,1.608951,-9.172147
1790542276.1912,-0.016196,-0.043071,0.015654,-0.014137,-0.035332,0.015654,1.459038,0.605121,-0.452451,-2.458983,-0.324409,-8.163056
1790542276.2051,0.006984,-0.063684,0.004606,0.000648,-0.055179,0.004606,1.512460,-1.285299,-0.658855,-4.643678,1.051251,-7.309210
1790542276.2187,0.015755,-0.077063,-0.007663,0.011223,-0.070498,-0.007663,1.049872,-0.555599,-0.949035,-0.427600,2.017931,-10.646972
1790542276.2322,0.027704,-0.077748,-0.023437,0.022759,-0.075573,-0.023437,0.266751,-0.867634,-0.961176,0.530599,3.616671,-7.309210
1790542276.2463,0.041603,-0.079856,-0.033594,0.035950,-0.078571,-0.033594,0.161120,-0.972050,-0.788768,0.262303,1.237151,-9.560259
1790542276.2601,0.054598,-0.088409,-0.039143,0.049004,-0.085458,-0.039143,0.747551,-0.867634,-0.328608,-1.807408,3.951291,-12.781588
1790542276.2740,0.032107,-0.083343,-0.047141,0.037176,-0.083978,-0.047141,-0.426524,1.594646,-0.511944,1.258831,0.121751,-17.632987
1790542276.2879,0.012650,-0.061024,-0.058737,0.020008,-0.067910,-0.058737,-1.603028,1.567935,-0.579936,-2.688951,1.571771,-13.092077
1790542276.3019,0.009746,-0.046361,-0.081866,0.012824,-0.052826,-0.081866,-1.318919,0.612405,-0.786340,-4.720334,-3.075728,-6.688231
1790542276.3158,0.000963,-0.025909,-0.097006,0.004521,-0.033984,-0.097006,-1.605456,0.988789,-0.864045,-2.382327,-0.621849,-5.252217
1790542276.3296,-0.008045,-0.004457,-0.113630,-0.004275,-0.013315,-0.113630,-1.754796,0.796955,-0.657641,-0.350944,-0.993649,-4.592427
1790542276.3435,-0.009872,0.012399,-0.116393,-0.008193,0.004684,-0.116393,-1.403909,0.458209,-0.322537,-3.570495,-1.439808,-7.309210
1790542276.3574,-0.013746,0.014333,-0.117844,-0.012080,0.011439,-0.117844,-0.152128,0.429070,-0.236333,-2.190688,1.832031,-13.635434
1790542276.3713,-0.000197,-0.001981,-0.115551,-0.003762,0.002045,-0.115551,1.093581,-1.002404,0.242039,-0.810880,0.530731,-21.281238
1790542276.3855,-0.003165,-0.010608,-0.104194,-0.003344,-0.006812,-0.104194,0.635850,-0.001951,0.881891,1.565455,2.092291,-10.414105
1790542276.4012,0.005821,-0.022578,-0.083483,0.003072,-0.017849,-0.083483,0.828898,-0.618735,0.817542,-1.462456,2.873071,-11.073895
1790542276.4160,0.000264,-0.033200,-0.071801,0.001107,-0.028595,-0.071801,0.794902,0.107322,0.853966,2.791950,2.315371,-8.900469
1790542276.4302,-0.010584,-0.042267,-0.058343,-0.007077,-0.038165,-0.058343,0.730553,0.569910,0.862465,1.757095,2.612811,-9.172147
1790542276.4450,-0.029648,-0.048113,-0.040578,-0.022877,-0.045129,-0.040578,0.532648,1.128416,0.979023,1.143847,2.873071,-7.192776
1790542276.4586,-0.039921,-0.049119,-0.024810,-0.034808,-0.047922,-0.024810,0.127124,0.705894,0.997235,-0.427600,2.612811,-10.491728
1790542276.4724,-0.045525,-0.049094,-0.010722,-0.042310,-0.048742,-0.010722,-0.024643,0.331939,1.000877,0.070663,1.460231,-10.569350
1790542276.4864,-0.048044,-0.046293,0.002932,-0.046324,-0.047028,0.002932,-0.180054,0.120678,0.832112,0.070663,2.055111,-9.909560
1790542276.5004,-0.049971,-0.045290,0.015638,-0.048877,-0.045811,0.015638,-0.042856,-0.025019,0.738623,1.795423,1.980751,-8.939280
1790542276.5143,-0.036179,-0.039959,0.026912,-0.039988,-0.041715,0.026912,-0.331821,-1.122604,0.498223,2.370342,3.653851,-14.722147
1790542276.5281,-0.017951,-0.032983,0.037599,-0.024562,-0.035602,0.037599,-0.549153,-1.467420,0.619637,1.757095,1.125611,-13.286133
1790542276.5419,-0.007483,-0.022513,0.045527,-0.012606,-0.026440,0.045527,-0.822335,-1.046113,0.594140,3.750150,0.344831,-10.064805
1790542276.5558,-0.000697,-0.011513,0.046914,-0.004270,-0.015991,0.046914,-0.929179,-0.804498,0.340384,3.788478,-0.807749,-7.891378
1790542276.5696,0.012339,0.004286,0.046932,0.007357,-0.001797,0.046932,-1.065163,-1.233091,0.022279,2.408670,1.460231,-4.747672
1790542276.5835,0.024127,0.018924,0.046889,0.019096,0.012708,0.046889,-0.958319,-1.078895,-0.048141,2.025391,1.757671,-5.096972
1790542276.5974,0.002647,0.004844,0.042598,0.007581,0.007203,0.042598,0.833755,1.533939,-0.374746,2.638638,-2.220588,-16.546273
1790542276.6112,0.002990,-0.010059,0.021133,0.004367,-0.004881,0.021133,1.151860,0.322225,-1.298708,-3.187215,3.207691,-12.121798
1790542276.6250,0.005668,-0.024512,-0.000852,0.005278,-0.018623,-0.000852,1.019519,0.085468,-1.603457,-1.270816,1.014071,-11.888930
1790542276.6389,0.007621,-0.043002,-0.017620,0.006918,-0.035688,-0.017620,1.380119,-0.174359,-1.157867,2.255358,1.571771,-7.813756
1790542276.6530,0.018224,-0.061451,-0.030061,0.014832,-0.053722,-0.030061,1.297557,-0.619949,-0.924752,-1.002520,1.051251,-11.733686
1790542276.6672,0.040039,-0.078035,-0.047490,0.032477,-0.070741,-0.047490,1.264775,-1.370289,-1.069235,-1.769080,2.649991,-9.327392
1790542276.6809,0.056454,-0.086871,-0.065843,0.049261,-0.082032,-0.065843,0.814329,-1.122604,-1.105659,-0.274288,2.798711,-6.106063
1790542276.6946,0.061449,-0.098818,-0.079905,0.057793,-0.093783,-0.079905,0.928458,-0.351623,-1.000029,0.185647,3.096151,-13.247322
1790542276.7087,0.054340,-0.101757,-0.095141,0.055376,-0.099364,-0.095141,0.138052,0.538343,-1.128728,-0.120976,0.642271,-17.206063
1790542276.7225,0.040642,-0.095442,-0.113581,0.045062,-0.096619,-0.113581,-0.555224,1.113846,-1.199148,-2.343999,-0.324409,-16.817952
1790542276.7365,0.034717,-0.094833,-0.132181,0.037821,-0.095369,-0.132181,-0.311181,0.658543,-1.270782,-3.263871,-3.559068,-9.987182
1790542276.7506,0.027056,-0.087403,-0.153455,0.030285,-0.089793,-0.153455,-0.716704,1.008216,-1.214932,-4.720334,-1.514168,-5.213406
1790542276.7653,0.022302,-0.076330,-0.169497,0.024697,-0.080369,-0.169497,-0.859973,0.557769,-0.925966,-2.305671,-0.621849,-6.998721
1790542276.7796,0.022498,-0.058102,-0.182349,0.023157,-0.064782,-0.182349,-1.352915,0.278516,-0.845833,-3.225543,-0.138509,-7.658511
1790542276.7938,0.022757,-0.037413,-0.196742,0.022877,-0.045624,-0.196742,-1.622454,0.279730,-0.768128,-3.647151,-1.514168,-8.706413
1790542276.8077,0.019463,-0.011517,-0.206163,0.020487,-0.021749,-0.206163,-1.940560,0.488563,-0.617574,-2.420655,0.196111,-7.891378
1790542276.8217,0.011164,0.011311,-0.224320,0.013961,0.001393,-0.224320,-1.900493,0.868589,-0.627287,-1.730752,-1.625708,-5.523895
1790542276.8356,0.025331,0.016500,-0.226576,0.021920,0.011968,-0.226576,-0.346391,-0.812997,-0.709849,-1.347472,1.571771,-6.998721
1790542276.8495,0.036709,-0.003514,-0.215959,0.032272,0.001130,-0.215959,1.533101,-0.910129,0.302746,0.262303,3.988471,-14.489280
1790542276.8635,0.025751,-0.016634,-0.196329,0.027708,-0.011305,-0.196329,1.139719,0.447282,0.767762,3.328542,3.802571,-7.658511
1790542276.8774,0.028353,-0.019032,-0.176163,0.028159,-0.016714,-0.176163,0.424589,-0.066300,0.412019,-2.918919,4.657711,-7.580888
1790542276.8914,0.021241,-0.026042,-0.176181,0.023316,-0.023243,-0.176181,0.490153,0.229951,0.277249,3.366870,0.753811,-7.930189
1790542276.9050,0.005272,-0.040227,-0.174066,0.010685,-0.035132,-0.174066,1.007377,0.947509,0.446014,2.600310,0.493551,-8.900469
1790542276.9191,-0.006254,-0.047390,-0.161833,-0.001172,-0.043712,-0.161833,0.584856,0.639117,0.750764,1.987063,2.612811,-10.763406
1790542276.9332,-0.016219,-0.046887,-0.147661,-0.011705,-0.045934,-0.147661,0.074916,0.707108,0.894033,-1.232488,2.910251,-9.055714
1790542276.9471,-0.018863,-0.041415,-0.131183,-0.016715,-0.042771,-0.131183,-0.300254,0.131605,0.998449,-0.504256,2.724351,-8.822846
1790542276.9610,-0.022039,-0.037897,-0.113049,-0.020442,-0.039359,-0.113049,-0.171555,0.103680,1.064013,0.185647,1.534591,-5.213406
1790542276.9748,-0.030198,-0.032561,-0.093805,-0.027271,-0.034601,-0.093805,-0.149700,0.338009,0.928029,2.332014,4.583351,-7.076343
1790542276.9887,-0.017496,-0.028711,-0.082613,-0.020429,-0.030478,-0.082613,-0.183696,-0.927127,0.923172,-1.730752,3.616671,-10.569350
1790542277.0026,-0.007613,-0.017518,-0.065520,-0.011458,-0.021406,-0.065520,-0.791981,-0.942911,0.730124,3.366870,2.575631,-14.566903
1790542277.0164,-0.000618,-0.002841,-0.056143,-0.003870,-0.008411,-0.056143,-1.139226,-0.917414,0.458156,8.042884,0.047391,-12.121798
1790542277.0303,-0.003148,0.005762,-0.050342,-0.003364,0.001510,-0.050342,-0.680280,-0.120936,0.198330,5.244941,0.530731,-10.414105
1790542277.0442,-0.003721,0.005423,-0.054059,-0.003614,0.004249,-0.054059,-0.115704,0.080611,-0.094279,-0.235960,-0.584669,-7.503266
1790542277.0581,0.014440,0.002150,-0.079654,0.009024,0.002779,-0.079654,0.420947,-0.970836,-0.520443,-4.222071,4.174371,-7.580888
1790542277.0721,0.020761,-0.009499,-0.090768,0.017240,-0.005816,-0.090768,0.877464,-0.313985,-0.823978,-0.504256,2.389731,-9.909560
1790542277.0860,0.014496,-0.019325,-0.097934,0.015319,-0.015272,-0.097934,0.719626,0.433926,-0.867687,2.791950,2.129471,-12.354665
1790542277.0998,0.016346,-0.022263,-0.106994,0.016038,-0.020166,-0.106994,0.155050,-0.088155,-0.830049,0.837223,0.493551,-9.560259
1790542277.1136,0.023254,-0.026161,-0.124880,0.021089,-0.024363,-0.124880,0.213328,-0.288488,-1.072877,-1.577440,0.419191,-10.802217
1790542277.1276,0.023835,-0.036370,-0.143718,0.023011,-0.032768,-0.143718,0.663775,0.134033,-1.246500,-0.427600,0.344831,-7.076343
1790542277.1411,0.031024,-0.039300,-0.162434,0.028621,-0.037340,-0.162434,0.366310,-0.321270,-1.235572,-0.887536,2.501271,-5.795574
1790542277.1549,0.031362,-0.038610,-0.172897,0.030540,-0.038229,-0.172897,-0.039213,-0.043231,-1.233144,1.642111,1.348691,-6.998721
1790542277.1695,0.027764,-0.042182,-0.187474,0.028597,-0.040996,-0.187474,0.169619,0.310084,-1.144512,0.913879,0.344831,-10.336483
1790542277.1836,0.031546,-0.039433,-0.206427,0.030661,-0.039902,-0.206427,-0.163056,-0.088155,-1.194291,-1.232488,2.426911,-10.918651
1790542277.1975,0.032317,-0.037232,-0.223753,0.031820,-0.038033,-0.223753,-0.177625,0.098823,-1.170009,-0.695896,1.497411,-10.879840
1790542277.2115,0.019961,-0.030529,-0.237801,0.023519,-0.032780,-0.237801,-0.422882,0.974220,-1.042524,0.645583,3.393591,-12.703965
1790542277.2254,0.011776,-0.023012,-0.258122,0.015299,-0.025943,-0.258122,-0.596504,0.807882,-1.015813,-2.037376,0.828171,-13.868301
1790542277.2394,0.003874,-0.009862,-0.273421,0.007302,-0.014686,-0.273421,-0.935250,0.756888,-0.650356,-1.807408,1.757671,-11.151518
1790542277.2532,0.006269,-0.001569,-0.289202,0.006579,-0.005504,-0.289202,-0.688779,0.051472,-0.447594,-2.957247,0.047391,-11.151518
1790542277.2670,0.012655,-0.004987,-0.292273,0.010832,-0.005142,-0.292273,0.113769,-0.440256,0.033206,-0.580912,-0.733389,-10.103616
1790542277.2809,0.006991,-0.011708,-0.282254,0.008144,-0.009738,-0.282254,0.383308,0.204454,0.639063,1.757095,-0.361589,-9.405014
1790542277.2947,-0.001235,-0.018626,-0.265939,0.001578,-0.015960,-0.265939,0.503508,0.308870,0.835754,2.332014,1.051251,-7.658511
1790542277.3085,0.008497,-0.027011,-0.261730,0.006421,-0.023696,-0.261730,0.621280,-0.601737,0.625708,-3.072231,1.460231,-9.366203
1790542277.3224,0.005324,-0.034552,-0.254326,0.005653,-0.031295,-0.254326,0.485296,0.147389,0.617209,0.108991,0.196111,-10.375294
1790542277.3362,-0.007417,-0.043688,-0.243900,-0.003496,-0.039970,-0.243900,0.621280,0.764173,0.731338,1.757095,0.530731,-12.082986
1790542277.3501,-0.018700,-0.054829,-0.228146,-0.014139,-0.050371,-0.228146,0.771834,0.634260,1.093152,1.258831,0.605091,-8.861658
1790542277.3636,-0.037021,-0.060816,-0.212552,-0.030156,-0.057683,-0.212552,0.474369,1.200050,1.136861,1.105519,1.608951,-8.318301
1790542277.3770,-0.047914,-0.064310,-0.199588,-0.042587,-0.062322,-0.199588,0.274036,0.747175,1.067655,0.070663,1.683311,-9.133336
1790542277.3908,-0.055821,-0.069626,-0.185187,-0.051851,-0.067435,-0.185187,0.340813,0.484920,1.085867,0.530599,1.014071,-9.676693
1790542277.4046,-0.045265,-0.072889,-0.171062,-0.047241,-0.071253,-0.171062,0.227898,-0.806927,1.027589,-0.274288,2.389731,-14.566903
1790542277.4189,-0.035900,-0.070563,-0.152000,-0.039302,-0.070770,-0.152000,-0.251688,-0.867634,0.979023,3.213558,0.047391,-12.044175
1790542277.4330,-0.035380,-0.069583,-0.132380,-0.036556,-0.069939,-0.132380,-0.273543,-0.307914,1.009376,3.941790,-2.294948,-10.452916
1790542277.4471,-0.023520,-0.065401,-0.114461,-0.027431,-0.066763,-0.114461,-0.495731,-1.105606,0.909817,3.520182,-2.146228,-10.103616
1790542277.4610,-0.011225,-0.048325,-0.102699,-0.016087,-0.053856,-0.102699,-1.210860,-1.267087,0.806615,4.095102,1.125611,-6.765853
1790542277.4749,-0.006779,-0.028493,-0.089166,-0.009571,-0.036102,-0.089166,-1.579959,-0.772931,0.647562,3.520182,-0.807749,-4.320748
1790542277.4888,-0.001513,-0.007497,-0.079502,-0.003931,-0.016079,-0.079502,-1.537464,-0.718294,0.653633,3.673494,0.828171,-8.124245
1790542277.5027,0.006644,0.012162,-0.069583,0.003471,0.003690,-0.069583,-1.521681,-0.871276,0.272392,3.673494,-0.101329,-9.094525
1790542277.5165,0.003892,0.022304,-0.071761,0.003766,0.016719,-0.071761,-0.694850,0.004120,0.194687,2.791950,2.315371,-9.870749
1790542277.5304,-0.004993,0.012545,-0.069625,-0.002365,0.013797,-0.069625,0.560573,0.673112,-0.525299,2.102047,-1.105189,-17.477742
1790542277.5442,0.007204,-0.002170,-0.098911,0.004333,0.002620,-0.098911,1.252634,-0.619949,-0.916253,-1.654096,3.282051,-6.921098
1790542277.5581,-0.007860,-0.014369,-0.131578,-0.004202,-0.009272,-0.131578,1.121507,0.940224,-0.776627,2.178703,2.315371,-3.660958
1790542277.5720,-0.002094,-0.025229,-0.147601,-0.002727,-0.020442,-0.147601,0.862894,-0.103938,-0.598148,-2.612295,1.571771,-6.222497
1790542277.5858,0.009113,-0.042019,-0.144150,0.005561,-0.035546,-0.144150,1.098438,-0.746220,-0.538655,-0.235960,-0.882109,-12.471098
1790542277.5994,0.022764,-0.056819,-0.159013,0.017603,-0.050437,-0.159013,1.109365,-0.863991,-0.959962,-0.887536,1.385871,-9.521448
1790542277.6130,0.034049,-0.053039,-0.190033,0.029115,-0.052258,-0.190033,0.040920,-0.709795,-0.902897,-0.619240,5.029511,-6.571797
1790542277.6268,0.036944,-0.053280,-0.198864,0.034595,-0.052974,-0.198864,-0.033142,-0.171930,-0.924752,0.415615,0.567911,-8.318301
1790542277.6407,0.045328,-0.056354,-0.214759,0.042108,-0.055340,-0.214759,0.221827,-0.480323,-0.945392,-0.925864,1.460231,-9.715504
1790542277.6546,0.058373,-0.059302,-0.233626,0.053493,-0.058113,-0.233626,0.231541,-0.748648,-0.947821,-2.075704,1.757671,-9.133336
1790542277.6686,0.031951,-0.051583,-0.250066,0.038414,-0.053542,-0.250066,-0.513943,1.956461,-0.736560,-0.120976,3.430771,-15.110259
1790542277.6832,0.024979,-0.033189,-0.261185,0.029010,-0.039295,-0.261185,-1.293422,0.764173,-0.530156,-6.445094,1.348691,-14.683336
1790542277.6975,0.012520,-0.018483,-0.270819,0.017467,-0.024727,-0.270819,-1.042095,1.207335,-0.473091,-4.337055,1.014071,-8.279490
1790542277.7122,-0.004721,-0.004862,-0.281565,0.001935,-0.010822,-0.281565,-0.742201,1.367602,-0.232691,-1.385800,2.426911,-4.670049
1790542277.7261,-0.007639,0.005035,-0.280974,-0.004767,0.000278,-0.280974,-0.413169,0.446068,-0.208408,-0.925864,1.757671,-2.069699
1790542277.7399,0.000594,-0.004909,-0.281609,-0.001014,-0.003353,-0.281609,0.822828,-0.562884,0.096342,-1.309144,5.252591,-15.692427
1790542277.7538,-0.005778,-0.004149,-0.270576,-0.004349,-0.003910,-0.270576,0.027565,0.336795,0.826041,0.223975,3.616671,-12.082986
1790542277.7676,-0.008160,-0.016572,-0.252117,-0.007016,-0.012773,-0.252117,0.768191,0.028403,1.236421,-0.542584,-0.733389,-12.936833
1790542277.7815,-0.012669,-0.030651,-0.218197,-0.010973,-0.025287,-0.218197,0.913888,0.000478,1.248562,2.178703,-0.138509,-7.852567
1790542277.7956,-0.024215,-0.045157,-0.190728,-0.020242,-0.039196,-0.190728,1.075369,0.520131,1.028803,2.370342,1.571771,-6.765853
1790542277.8095,-0.040359,-0.059904,-0.164628,-0.034324,-0.053692,-0.164628,1.062014,0.885587,1.309270,2.945262,1.794851,-10.064805
1790542277.8230,-0.051560,-0.073963,-0.157778,-0.046389,-0.067881,-0.157778,1.075369,0.834593,1.386975,-1.002520,1.869211,-7.969000
1790542277.8366,-0.061963,-0.079766,-0.146795,-0.057291,-0.076200,-0.146795,0.482868,0.724106,1.453752,-0.235960,2.612811,-8.667602
1790542277.8501,-0.056265,-0.081027,-0.140504,-0.056573,-0.079579,-0.140504,0.114983,-0.356480,1.357835,-1.922392,2.501271,-9.987182
1790542277.8639,-0.042440,-0.073977,-0.119512,-0.046680,-0.075657,-0.119512,-0.590434,-1.125032,1.334766,1.028863,1.014071,-13.984735
1790542277.8777,-0.044729,-0.068921,-0.078957,-0.045315,-0.070942,-0.078957,-0.564937,-0.124579,1.073726,5.359925,-2.332128,-14.334035
1790542277.8916,-0.036137,-0.061604,-0.043311,-0.038890,-0.064406,-0.043311,-0.738559,-0.885846,1.067655,3.826806,-2.146228,-12.199420
1790542277.9055,-0.017965,-0.049920,-0.016572,-0.024242,-0.054266,-0.016572,-0.983816,-1.522056,0.920744,1.527127,-0.547489,-7.270399
1790542277.9194,-0.012030,-0.036512,0.014915,-0.015694,-0.041838,0.014915,-1.106444,-0.849422,0.994807,2.830278,-0.473129,-4.747672
1790542277.9336,-0.006757,-0.022564,0.045398,-0.009438,-0.028346,0.045398,-1.159866,-0.712224,1.100437,2.638638,-1.105189,-7.192776
1790542277.9477,0.003531,-0.006908,0.060877,-0.000360,-0.013340,0.060877,-1.141654,-0.995119,0.724053,2.178703,0.865351,-8.124245
1790542277.9616,0.006731,0.006727,0.069446,0.004604,0.000707,0.069446,-0.999600,-0.406260,0.314887,2.102047,1.237151,-10.103616
1790542277.9756,-0.003227,-0.004159,0.076057,-0.000878,-0.002699,0.076057,0.624923,0.665828,-0.270329,2.676966,-1.514168,-16.429840
1790542277.9896,0.001981,-0.017951,0.006319,0.001123,-0.013375,0.006319,1.269632,0.049043,-0.916253,-3.072231,3.244871,-5.135783
1790542278.0035,-0.001093,-0.022083,-0.039230,-0.000428,-0.019471,-0.039230,0.764549,0.182599,-0.401457,1.258831,5.103871,-3.622147
1790542278.0175,-0.000843,-0.038137,-0.040128,-0.000718,-0.032537,-0.040128,1.121507,0.017476,-0.203552,-0.082648,0.344831,-5.368651
1790542278.0314,0.021364,-0.057292,-0.057518,0.014739,-0.049866,-0.057518,1.456610,-1.404285,-0.482804,-3.493839,2.873071,-13.130889
1790542278.0454,0.026277,-0.073384,-0.072741,0.022816,-0.066328,-0.072741,1.244135,-0.316413,-0.819122,0.453943,2.873071,-10.646972
1790542278.0590,0.038333,-0.075756,-0.094178,0.033678,-0.072928,-0.094178,0.254609,-0.753504,-0.934465,-1.309144,2.426911,-10.103616
1790542278.0725,0.044657,-0.079050,-0.089165,0.041363,-0.077213,-0.089165,0.139266,-0.528888,-0.738988,1.028863,-0.287229,-8.357112
1790542278.0863,0.056500,-0.089138,-0.089376,0.051959,-0.085560,-0.089376,0.643135,-0.855492,-0.573865,-0.005993,-0.287229,-9.987182
1790542278.1002,0.047721,-0.087680,-0.108789,0.048993,-0.087044,-0.108789,0.072488,0.716822,-0.348034,-1.385800,3.988471,-10.025993
1790542278.1140,0.021973,-0.072966,-0.124597,0.030079,-0.077189,-0.124597,-1.076090,2.017168,-0.480376,-3.110559,1.311511,-15.537182
1790542278.1280,0.025330,-0.057549,-0.125580,0.026755,-0.063441,-0.125580,-1.252141,0.176528,-0.548368,-7.863229,-1.848788,-9.405014
1790542278.1420,0.012129,-0.047037,-0.112680,0.016516,-0.051958,-0.112680,-1.067591,1.079850,-0.470663,-0.887536,-2.183408,-4.902916
1790542278.1558,-0.001507,-0.030871,-0.117476,0.003900,-0.037197,-0.117476,-1.281281,1.144200,-0.192624,-1.079176,-0.361589,-5.019350
1790542278.1701,-0.013389,-0.018469,-0.126683,-0.008202,-0.024087,-0.126683,-0.940107,1.095634,-0.212051,-3.033903,-0.026969,-7.774944
1790542278.1847,-0.024908,-0.003146,-0.136270,-0.019896,-0.009428,-0.136270,-1.015383,0.926868,-0.244832,-1.539112,2.203831,-11.345574
1790542278.1987,-0.026706,0.010074,-0.146327,-0.024663,0.004223,-0.146327,-0.879399,0.376862,-0.241190,-2.765607,2.166651,-8.201867
1790542278.2126,-0.012220,0.003108,-0.143526,-0.015953,0.003443,-0.143526,0.369953,-0.951410,0.172833,-2.573967,-0.696209,-12.471098
1790542278.2265,0.001767,-0.007017,-0.126075,-0.003549,-0.003879,-0.126075,0.717197,-1.220949,0.732552,1.642111,1.497411,-10.646972
1790542278.2404,0.003698,-0.023074,-0.106894,0.001524,-0.017315,-0.106894,1.083868,-0.328555,1.214566,0.377287,0.196111,-11.500819
1790542278.2543,-0.002372,-0.037427,-0.095473,-0.001203,-0.031394,-0.095473,1.144575,0.341652,0.852752,-0.005993,1.460231,-4.747672
1790542278.2682,-0.011057,-0.049999,-0.084792,-0.008101,-0.044418,-0.084792,0.944242,0.557769,0.925601,-0.350944,1.980751,-10.879840
1790542278.2818,-0.027691,-0.061125,-0.067360,-0.021814,-0.056113,-0.067360,0.913888,1.037355,0.972952,1.948735,2.873071,-9.987182
1790542278.2953,-0.048795,-0.068438,-0.048001,-0.040701,-0.064740,-0.048001,0.667418,1.360317,1.076154,1.757095,2.761531,-7.270399
1790542278.3089,-0.061204,-0.075809,-0.036480,-0.055053,-0.072488,-0.036480,0.577571,0.861305,1.123506,0.147319,2.315371,-9.909560
1790542278.3227,-0.061003,-0.078969,-0.024053,-0.059218,-0.077025,-0.024053,0.204829,-0.068728,1.021518,0.415615,1.943571,-13.441378
1790542278.3366,-0.057574,-0.078039,-0.008069,-0.058067,-0.077735,-0.008069,-0.160627,-0.356480,0.875821,2.063719,0.196111,-15.770049
1790542278.3505,-0.050978,-0.076012,0.015870,-0.053105,-0.076529,0.015870,-0.425310,-0.583525,0.996021,1.067191,-3.224448,-10.685784
1790542278.3644,-0.046857,-0.074909,0.046261,-0.048731,-0.075395,0.046261,-0.326965,-0.556813,1.059156,3.865134,-2.815468,-10.879840
1790542278.3783,-0.031958,-0.069159,0.068352,-0.036990,-0.071030,0.068352,-0.605003,-1.228234,0.989950,1.335487,-1.402628,-8.900469
1790542278.3922,-0.024077,-0.057481,0.089566,-0.027951,-0.061546,0.089566,-0.958319,-0.844565,0.904960,2.753622,-0.398769,-7.619700
1790542278.4060,-0.018391,-0.038886,0.107755,-0.021259,-0.045684,0.107755,-1.430620,-0.717080,0.811471,3.443526,-0.026969,-8.434735
1790542278.4199,-0.008066,-0.012366,0.123278,-0.012024,-0.022361,0.123278,-2.013408,-1.020616,0.573499,3.251886,-0.101329,-9.288581
1790542278.4342,0.001868,0.019466,0.134721,-0.002299,0.006918,0.134721,-2.333942,-0.998761,0.325814,3.750150,-0.175689,-8.318301
1790542278.4484,-0.022437,0.017153,0.145378,-0.016396,0.014082,0.145378,-0.082922,1.584933,0.165548,5.321597,-5.529608,-21.281238
1790542278.4624,0.007136,-0.001132,0.118880,0.000076,0.003432,0.118880,1.324268,-1.637400,-0.480376,-14.953906,2.612811,-15.653616
1790542278.4780,-0.012663,-0.011978,0.106519,-0.008841,-0.007355,0.106519,0.734195,1.268042,-0.433024,1.680439,2.203831,-10.569350
1790542278.4926,-0.020264,-0.026257,0.095885,-0.016837,-0.020586,0.095885,0.962454,0.756888,-0.700136,-2.152360,0.642271,-10.064805
1790542278.5071,-0.005545,-0.039034,0.091563,-0.008933,-0.033499,0.091563,0.752407,-0.729222,-0.664926,-3.493839,-1.291089,-9.210958
1790542278.5213,0.000731,-0.059057,0.082929,-0.002168,-0.051390,0.082929,1.297557,-0.284846,-0.942964,-0.734224,-0.733389,-7.464455
1790542278.5355,0.014809,-0.066289,0.064327,0.009716,-0.061819,0.064327,0.655276,-0.918628,-0.873758,-0.159304,2.873071,-8.434735
1790542278.5492,0.024912,-0.064492,0.046731,0.020353,-0.063690,0.046731,-0.021001,-0.730436,-0.915039,0.760567,2.278191,-7.736133
