t,imu_roll,imu_pitch,imu_yaw,lpf_roll,lpf_pitch,lpf_yaw,gyro_x,gyro_y,gyro_z,acc_x,acc_y,acc_z
1790542048.0344,-0.009800,-0.035799,-0.015485,-0.006860,-0.025059,-0.015485,-0.012532,-0.005878,-0.006904,-0.005993,1.237151,-9.987182
1790542048.0500,-0.016331,-0.033144,-0.020173,-0.013489,-0.030718,-0.020173,0.019036,0.012334,-0.009333,0.108991,1.311511,-9.831937
1790542048.0636,-0.018431,-0.033865,-0.021078,-0.016949,-0.032921,-0.021078,0.009323,0.008691,-0.002048,0.108991,1.311511,-10.220049
1790542048.0774,-0.025247,-0.032011,-0.025563,-0.022758,-0.032284,-0.025563,-0.010103,0.000192,0.001595,0.338959,1.348691,-9.870749
1790542048.0915,-0.028008,-0.032005,-0.026579,-0.026433,-0.032089,-0.026579,-0.053813,-0.033804,0.000381,0.300631,1.311511,-10.220049
1790542048.1056,-0.027767,-0.031597,-0.026146,-0.027367,-0.031744,-0.026146,-0.085380,-0.045945,-0.005690,0.185647,1.311511,-10.258860
1790542048.1197,-0.027362,-0.029250,-0.026560,-0.027363,-0.029998,-0.026560,-0.126661,-0.058086,0.011308,0.185647,1.423051,-10.336483
1790542048.1342,-0.027029,-0.025189,-0.028206,-0.027129,-0.026632,-0.028206,-0.098736,-0.062943,0.051375,0.185647,1.571771,-9.987182
1790542048.1481,-0.031188,-0.019279,-0.031582,-0.029970,-0.021485,-0.031582,-0.114520,-0.071442,0.138793,0.568927,1.720491,-9.560259
1790542048.1622,-0.036218,-0.011307,-0.034645,-0.034344,-0.014361,-0.034645,-0.166728,-0.025305,0.277205,0.683911,2.017931,-9.831937
1790542048.1761,-0.037057,-0.013285,-0.022673,-0.036243,-0.013608,-0.022673,-0.076881,-0.141862,0.418046,0.453943,1.237151,-10.181238
1790542048.1901,-0.041821,-0.015359,-0.010859,-0.040147,-0.014834,-0.010859,0.027535,-0.058086,0.575884,0.760567,1.274331,-9.637881
1790542048.2042,-0.039918,-0.014026,-0.008641,-0.039987,-0.014268,-0.008641,0.083385,-0.104224,0.598953,0.070663,1.608951,-8.784035
1790542048.2183,-0.028551,-0.017862,0.003174,-0.031982,-0.016784,0.003174,0.045747,-0.204998,0.517605,-1.079176,1.051251,-9.870749
1790542048.2324,-0.023688,-0.027511,0.017589,-0.026176,-0.024293,0.017589,0.090670,-0.225638,0.390120,-0.274288,0.233291,-12.005364
1790542048.2463,-0.020920,-0.031918,0.027179,-0.022497,-0.029631,0.027179,0.006895,-0.130935,0.356124,-0.159304,0.716631,-10.646972
1790542048.2602,-0.018550,-0.036136,0.037361,-0.019734,-0.034184,0.037361,0.065173,-0.058086,0.371908,-0.274288,0.716631,-9.599070
1790542048.2740,-0.019063,-0.037730,0.044071,-0.019265,-0.036666,0.044071,-0.036815,0.083968,0.313629,-0.120976,0.865351,-9.599070
1790542048.2876,-0.024891,-0.035995,0.041697,-0.023203,-0.036196,0.041697,-0.153372,0.262447,0.218926,0.377287,0.976891,-8.046623
1790542048.3012,-0.021226,-0.029515,0.052033,-0.021819,-0.031519,0.052033,-0.210437,-0.053230,0.198286,-0.504256,1.943571,-9.482637
1790542048.3151,-0.020222,-0.020782,0.055279,-0.020701,-0.024003,0.055279,-0.381631,-0.120008,0.177645,0.147319,2.129471,-9.948371
1790542048.3291,-0.018401,-0.014214,0.055461,-0.019091,-0.017151,0.055461,-0.323352,-0.339767,0.169146,0.607255,1.943571,-10.025993
1790542048.3430,-0.018327,-0.006280,0.050761,-0.018556,-0.009541,0.050761,-0.363419,-0.467252,0.098726,1.335487,2.055111,-9.210958
1790542048.3569,-0.011371,0.006889,0.044376,-0.013526,0.001960,0.044376,-0.473906,-0.718580,0.143649,0.530599,2.798711,-8.473546
1790542048.3708,-0.018248,0.000996,0.057211,-0.016831,0.001285,0.057211,0.023892,0.273374,-0.051827,1.450471,0.567911,-17.206063
1790542048.3856,-0.022133,-0.002860,0.029732,-0.020542,-0.001617,0.029732,0.719596,0.725035,-0.537484,-1.615768,4.137191,-12.199420
1790542048.3996,-0.008118,0.013776,-0.003999,-0.011845,0.009158,-0.003999,0.456127,0.097324,-0.739032,-3.608823,7.371850,-6.338930
1790542048.4137,-0.019604,0.004535,0.001523,-0.017276,0.005922,0.001523,0.785160,0.791813,-0.844662,0.453943,1.423051,-6.571797
1790542048.4276,-0.008551,0.004696,-0.039466,-0.011168,0.005063,-0.039466,0.519262,-0.152789,-0.779099,-1.884064,3.691031,-9.249770
1790542048.4415,0.002612,0.004878,-0.066671,-0.001522,0.004934,-0.066671,0.063959,-0.442969,-1.318178,-1.040848,3.207691,-15.459560
1790542048.4554,-0.013286,0.003112,0.009610,-0.009757,0.003659,0.009610,0.078529,0.584195,-1.468731,3.060246,1.497411,-10.220049
1790542048.4694,-0.003796,0.007147,-0.078384,-0.005584,0.006100,-0.078384,-0.312425,0.137390,-1.323034,-1.807408,1.348691,-7.736133
1790542048.4833,-0.011793,0.001958,-0.096699,-0.009930,0.003200,-0.096699,-0.007675,0.654615,-1.212547,0.568927,0.010211,-9.676693
1790542048.4973,-0.014574,0.002677,-0.139594,-0.013181,0.002834,-0.139594,-0.050170,0.710466,-1.471160,-1.002520,1.571771,-9.210958
1790542048.5108,-0.010261,0.001769,-0.182990,-0.011137,0.002088,-0.182990,-0.143659,0.115536,-1.429879,-0.887536,0.828171,-10.879840
1790542048.5245,-0.016535,0.001448,-0.188368,-0.014915,0.001640,-0.188368,-0.106021,0.422714,-1.264755,1.105519,0.939711,-9.327392
1790542048.5385,-0.020551,0.001437,-0.197227,-0.018860,0.001498,-0.197227,-0.211651,0.249092,-0.899299,0.952207,0.530731,-9.443825
1790542048.5525,-0.019952,0.000577,-0.207247,-0.019624,0.000853,-0.207247,-0.127875,-0.039874,-0.675897,0.607255,0.642271,-9.754315
1790542048.5664,-0.015509,-0.000016,-0.220643,-0.016744,0.000245,-0.220643,-0.068382,-0.158860,-0.518058,-0.350944,1.051251,-9.909560
1790542048.5803,-0.017536,0.011500,-0.204558,-0.017298,0.008123,-0.204558,-0.411985,0.280659,-0.575123,-0.197632,3.653851,-8.978091
1790542048.5937,-0.013564,0.017912,-0.177531,-0.014684,0.014976,-0.177531,-0.073239,-0.429614,-0.471921,1.105519,4.323091,-10.608161
1790542048.6067,-0.007352,0.007398,-0.176125,-0.009551,0.009672,-0.176125,0.663745,-0.549814,-0.067611,0.530599,1.497411,-15.614805
1790542048.6198,-0.015627,0.006549,-0.117273,-0.013804,0.007486,-0.117273,0.764519,-0.139434,0.422902,2.715294,4.025651,-6.183686
1790542048.6344,-0.024597,-0.003550,-0.079983,-0.021359,-0.000239,-0.079983,0.618822,0.164102,0.594096,1.987063,1.125611,-9.133336
1790542048.6485,-0.029613,-0.006893,-0.068862,-0.027137,-0.004897,-0.068862,0.148949,0.250306,0.852708,0.032335,1.199971,-10.802217
1790542048.6624,-0.025834,-0.008058,-0.089854,-0.026225,-0.007109,-0.089854,-0.116948,-0.107866,1.117391,-1.462456,0.344831,-8.279490
1790542048.6763,-0.019158,-0.013936,-0.104731,-0.021278,-0.011888,-0.104731,0.067602,-0.349480,1.190240,-1.462456,-0.510309,-8.124245
1790542048.6902,-0.016270,-0.013923,-0.105490,-0.017772,-0.013313,-0.105490,-0.234720,-0.143076,1.123462,-1.385800,0.084571,-9.987182
1790542048.7043,-0.018965,-0.017939,-0.097936,-0.018607,-0.016551,-0.097936,-0.067168,0.063328,1.021474,-0.082648,-0.882109,-11.190329
1790542048.7182,-0.020208,-0.021350,-0.082891,-0.019728,-0.019910,-0.082891,0.094313,-0.110294,1.190240,0.300631,0.567911,-11.423196
1790542048.7320,-0.027323,-0.031522,-0.070034,-0.025044,-0.028039,-0.070034,0.507121,0.323154,1.125890,0.415615,-0.101329,-10.142427
1790542048.7457,-0.030340,-0.037694,-0.057291,-0.028752,-0.034798,-0.057291,0.402705,0.411787,0.957125,-1.577440,0.865351,-8.279490
1790542048.7598,-0.029134,-0.037901,-0.043574,-0.029019,-0.036970,-0.043574,0.072458,0.267304,0.640234,-2.152360,1.274331,-7.270399
1790542048.7739,-0.030576,-0.039761,-0.039473,-0.030109,-0.038924,-0.039473,0.066387,0.144675,0.585597,-0.619240,0.865351,-10.064805
1790542048.7879,-0.030870,-0.039265,-0.031069,-0.030641,-0.039163,-0.031069,0.002038,0.064542,0.401048,-0.465928,1.534591,-9.870749
1790542048.8018,-0.028950,-0.036544,-0.006632,-0.029458,-0.037330,-0.006632,0.050604,-0.177072,0.396191,0.070663,3.170511,-10.220049
1790542048.8158,-0.025496,-0.033879,-0.001256,-0.026685,-0.034914,-0.001256,-0.212865,-0.350695,0.335484,0.722239,1.497411,-12.781588
1790542048.8298,-0.016059,-0.027164,0.000393,-0.019246,-0.029489,0.000393,-0.547968,-0.860634,0.114510,1.527127,1.051251,-12.082986
1790542048.8437,-0.014485,-0.020075,-0.010674,-0.015913,-0.022899,-0.010674,-0.728876,-0.574097,-0.128318,3.941790,-0.361589,-10.258860
1790542048.8578,-0.009190,-0.008307,-0.011497,-0.011207,-0.012685,-0.011497,-0.756801,-0.809640,-0.367504,2.255358,1.274331,-5.640329
1790542048.8717,-0.017804,-0.013389,-0.016253,-0.015825,-0.013178,-0.016253,0.180517,0.429999,-0.541127,2.600310,0.047391,-11.617252
1790542048.8864,-0.018667,-0.022047,-0.033576,-0.017815,-0.019386,-0.033576,0.681958,0.366863,-0.972147,-1.462456,2.352551,-11.073895
1790542048.9004,-0.008553,-0.025110,-0.054035,-0.011332,-0.023393,-0.054035,0.275220,-0.433256,-1.439592,-0.887536,2.055111,-11.267951
1790542048.9143,-0.012760,-0.027966,-0.073954,-0.012331,-0.026594,-0.073954,0.301931,0.138605,-1.440806,2.332014,1.683311,-7.542077
1790542048.9282,-0.026775,-0.031208,-0.084179,-0.022442,-0.029824,-0.084179,0.232725,0.688611,-1.036497,3.826806,1.162791,-8.978091
1790542048.9422,-0.007873,-0.035581,-0.102688,-0.012244,-0.033854,-0.102688,0.270363,-0.847279,-1.131200,-3.302199,0.865351,-10.375294
1790542048.9562,-0.004194,-0.040715,-0.121608,-0.006609,-0.038657,-0.121608,0.434273,-0.188000,-1.187050,0.492271,1.720491,-9.172147
1790542048.9698,0.002875,-0.043707,-0.143247,0.000030,-0.042192,-0.143247,0.286147,-0.299701,-1.255042,-0.695896,1.720491,-9.288581
1790542048.9833,0.005342,-0.044384,-0.155634,0.003748,-0.043726,-0.155634,0.078529,-0.196499,-1.074135,0.798895,1.274331,-8.046623
1790542048.9969,0.011674,-0.049916,-0.164657,0.009296,-0.048059,-0.164657,0.326214,-0.368907,-0.981860,-0.120976,0.605091,-9.793126
1790542049.0108,0.013406,-0.054915,-0.171737,0.012173,-0.052858,-0.171737,0.328642,-0.163717,-0.792454,0.798895,0.939711,-9.405014
1790542049.0247,0.008037,-0.058302,-0.184937,0.009278,-0.056669,-0.184937,0.358996,0.341366,-0.486490,0.722239,2.241011,-10.297672
1790542049.0386,-0.007937,-0.053990,-0.192508,-0.002772,-0.054794,-0.192508,-0.325780,1.186409,-0.516844,0.185647,1.274331,-12.509909
1790542049.0527,-0.013258,-0.040331,-0.214193,-0.010112,-0.044670,-0.214193,-1.015413,0.890159,-0.543555,-4.567022,0.828171,-10.491728
1790542049.0665,-0.018955,-0.029823,-0.210303,-0.016303,-0.034277,-0.210303,-1.123472,0.822167,-0.441567,-2.880591,-1.997508,-8.628791
1790542049.0805,-0.021795,-0.016588,-0.213333,-0.020147,-0.021895,-0.213333,-1.230316,0.698324,-0.284943,-2.650623,-0.882109,-5.912007
1790542049.0945,-0.023743,-0.004451,-0.217826,-0.022664,-0.009684,-0.217826,-1.015413,0.370506,-0.225450,-2.075704,0.158931,-12.082986
1790542049.1083,-0.012410,-0.010960,-0.222649,-0.015486,-0.010577,-0.222649,0.249723,-0.779287,0.141221,-1.194160,-0.919289,-17.671798
1790542049.1225,-0.022340,-0.018237,-0.231604,-0.020284,-0.015939,-0.231604,0.400277,0.302514,0.841781,3.596838,0.456371,-12.742777
1790542049.1370,-0.017763,-0.026206,-0.183922,-0.018519,-0.023126,-0.183922,0.802158,-0.269347,1.060327,-1.769080,3.728211,-8.784035
1790542049.1511,-0.007707,-0.034128,-0.157734,-0.010950,-0.030827,-0.157734,0.589683,-0.308200,0.598953,-2.573967,0.716631,-4.670049
1790542049.1651,-0.021242,-0.038720,-0.156428,-0.018154,-0.036352,-0.156428,0.401491,0.697110,0.498179,2.025391,1.757671,-8.745224
1790542049.1789,-0.034274,-0.053865,-0.157046,-0.029438,-0.048611,-0.157046,1.044986,0.783314,0.522462,1.182175,0.679451,-9.676693
1790542049.1928,-0.049691,-0.058311,-0.136731,-0.043615,-0.055401,-0.136731,0.612751,0.898658,0.726438,1.450471,3.244871,-7.309210
1790542049.2063,-0.064604,-0.062949,-0.120256,-0.058307,-0.060684,-0.120256,0.521691,0.988504,0.778646,0.760567,2.612811,-8.279490
1790542049.2200,-0.066425,-0.070952,-0.114494,-0.063989,-0.067871,-0.114494,0.553258,0.212667,0.767718,-0.964192,1.014071,-9.831937
1790542049.2338,-0.074822,-0.076907,-0.107925,-0.071572,-0.074196,-0.107925,0.382064,0.601193,0.670587,0.108991,0.642271,-8.745224
1790542049.2476,-0.065115,-0.078473,-0.089632,-0.067052,-0.077190,-0.089632,0.286147,-0.662729,0.721581,-0.734224,3.988471,-12.626343
1790542049.2616,-0.050782,-0.075185,-0.072974,-0.055663,-0.075787,-0.072974,-0.192225,-1.128960,0.628092,1.067191,2.017931,-12.160609
1790542049.2754,-0.044611,-0.065880,-0.069474,-0.047926,-0.068852,-0.069474,-0.806581,-0.793856,0.636591,3.903462,-0.250049,-11.229140
1790542049.2893,-0.044533,-0.057688,-0.089371,-0.045551,-0.061038,-0.089371,-0.866074,-0.544957,0.550387,6.088157,-2.109048,-9.443825
1790542049.3033,-0.037590,-0.042418,-0.080409,-0.039978,-0.048004,-0.080409,-1.259456,-0.791428,0.295417,2.370342,-0.435949,-7.542077
1790542049.3171,-0.031212,-0.024589,-0.075929,-0.033842,-0.031613,-0.075929,-1.383298,-0.803570,0.250494,2.791950,0.307651,-7.697322
1790542049.3309,-0.017368,-0.014203,-0.062706,-0.022310,-0.019426,-0.062706,-0.992344,-1.311081,0.159433,2.868606,-1.068009,-9.094525
1790542049.3448,-0.007220,-0.003884,-0.079491,-0.011747,-0.008547,-0.079491,-0.728876,-1.171455,0.222569,3.136902,1.051251,-6.688231
1790542049.3587,-0.027240,-0.019181,-0.066262,-0.022592,-0.015990,-0.066262,0.941784,1.318751,0.012522,2.638638,-0.361589,-15.381938
1790542049.3726,-0.030984,-0.034984,-0.079878,-0.028466,-0.029286,-0.079878,1.230750,0.510132,-0.635830,-2.037376,2.910251,-13.324944
1790542049.3869,-0.022082,-0.036661,-0.105325,-0.023998,-0.034449,-0.105325,0.233939,-0.464824,-1.061994,-0.197632,2.129471,-8.861658
1790542049.4009,-0.024401,-0.042878,-0.133098,-0.024280,-0.040349,-0.133098,0.611537,0.249092,-0.730533,0.147319,2.092291,-7.115154
1790542049.4149,-0.017653,-0.057516,-0.135582,-0.019641,-0.052366,-0.135582,1.051057,-0.215925,-0.610333,-2.650623,1.311511,-11.772497
1790542049.4286,-0.004671,-0.069678,-0.157519,-0.009162,-0.064484,-0.157519,1.058342,-0.780501,-0.810666,-1.117504,2.687171,-9.521448
1790542049.4422,0.009279,-0.074084,-0.180500,0.003747,-0.071204,-0.180500,0.560543,-0.962622,-0.844662,-0.044320,2.687171,-7.076343
1790542049.4559,0.014762,-0.079714,-0.179673,0.011457,-0.077161,-0.179673,0.467054,-0.552242,-0.780313,1.795423,1.423051,-8.085434
1790542049.4698,0.026536,-0.087053,-0.186059,0.022013,-0.084085,-0.186059,0.501050,-0.865491,-0.856804,0.492271,0.642271,-8.007811
1790542049.4837,0.006517,-0.090238,-0.139742,0.011166,-0.088392,-0.139742,-0.120590,1.282326,-0.889586,3.903462,-4.079588,-14.799770
1790542049.4976,-0.007592,-0.074889,-0.151439,-0.001965,-0.078940,-0.151439,-1.141684,1.203407,-0.751173,-2.190688,0.902531,-15.071448
1790542049.5115,-0.005135,-0.062206,-0.164597,-0.004184,-0.067226,-0.164597,-1.259456,0.284302,-0.815523,-5.103614,-3.670608,-9.327392
1790542049.5254,-0.002463,-0.045584,-0.198701,-0.002979,-0.052077,-0.198701,-1.365086,0.446997,-0.983074,-2.535639,-0.435949,-3.039979
1790542049.5393,-0.016907,-0.023107,-0.213111,-0.012729,-0.031798,-0.213111,-1.651624,1.045569,-0.686824,0.262303,0.233291,-2.341378
1790542049.5533,-0.027416,-0.004983,-0.211009,-0.023010,-0.013027,-0.211009,-1.488929,1.107490,-0.779099,-2.190688,-0.882109,-8.124245
1790542049.5673,-0.031123,0.000841,-0.216511,-0.028689,-0.003320,-0.216511,-0.325780,0.538057,-0.739032,-1.769080,2.798711,-10.685784
1790542049.5813,-0.028507,-0.018129,-0.212605,-0.028562,-0.013686,-0.212605,1.312097,-0.004664,-0.112535,-2.688951,1.199971,-14.450469
1790542049.5952,-0.029295,-0.015533,-0.215770,-0.029075,-0.014979,-0.215770,-0.005247,-0.073870,0.317272,1.143847,3.579491,-9.016902
1790542049.6092,-0.030029,-0.021544,-0.219876,-0.029743,-0.019575,-0.219876,0.429416,-0.253563,0.648733,2.408670,1.311511,-8.395923
1790542049.6234,-0.020468,-0.033404,-0.205888,-0.023250,-0.029255,-0.205888,0.832511,-0.456325,0.432615,-2.727279,0.976891,-7.425644
1790542049.6377,-0.034556,-0.045952,-0.209910,-0.031164,-0.040943,-0.209910,0.901717,0.752961,0.467825,2.408670,1.497411,-9.366203
1790542049.6518,-0.041067,-0.060770,-0.198113,-0.038096,-0.054822,-0.198113,1.014632,0.528344,0.625664,-1.692424,0.865351,-12.703965
1790542049.6654,-0.057711,-0.066992,-0.188319,-0.051827,-0.063341,-0.188319,0.618822,1.134201,0.825997,0.530599,2.798711,-8.240679
1790542049.6791,-0.070779,-0.066377,-0.175639,-0.065093,-0.065466,-0.175639,0.100383,0.901086,0.961981,0.147319,2.947431,-8.512357
1790542049.6929,-0.077433,-0.070437,-0.165059,-0.073731,-0.068946,-0.165059,0.207228,0.480993,0.907345,-0.350944,0.456371,-8.628791
1790542049.7070,-0.082663,-0.070067,-0.153160,-0.079983,-0.069730,-0.153160,0.091884,0.397217,0.742221,-0.465928,2.947431,-9.327392
1790542049.7209,-0.068626,-0.072345,-0.148265,-0.072033,-0.071561,-0.148265,-0.065954,-1.043970,0.886704,-0.120976,-1.737248,-14.372847
1790542049.7347,-0.053885,-0.062223,-0.137135,-0.059329,-0.065024,-0.137135,-0.781084,-1.175097,0.719153,1.412143,1.423051,-15.964105
1790542049.7488,-0.052150,-0.052805,-0.135619,-0.054304,-0.056471,-0.135619,-0.923138,-0.459967,0.792001,3.980118,-2.071868,-10.181238
1790542049.7627,-0.047042,-0.037837,-0.130431,-0.049220,-0.043427,-0.130431,-1.196320,-0.747719,0.611094,3.251886,-0.064149,-7.037532
1790542049.7780,-0.032988,-0.016582,-0.122371,-0.037858,-0.024636,-0.122371,-1.548422,-1.218806,0.308773,2.370342,-0.473129,-5.950818
1790542049.7925,-0.016939,0.005237,-0.125934,-0.023214,-0.003725,-0.125934,-1.471931,-1.402142,0.322128,1.910407,1.274331,-5.756762
1790542049.8072,-0.019314,0.007165,-0.129955,-0.020484,0.003898,-0.129955,-0.070811,0.006263,0.306344,0.990535,1.646131,-6.416553
1790542049.8217,-0.033329,-0.008938,-0.126854,-0.029476,-0.005087,-0.126854,1.228321,1.239832,-0.199953,-2.803935,2.947431,-9.210958
1790542049.8361,-0.015319,-0.015285,-0.122465,-0.019566,-0.012226,-0.122465,0.664960,-0.734364,-1.075349,-5.985158,4.917971,-9.405014
1790542049.8501,-0.022952,-0.021796,-0.133648,-0.021936,-0.018925,-0.133648,0.497408,0.380219,-0.759672,3.635166,1.608951,-8.784035
1790542049.8642,-0.017973,-0.035719,-0.138454,-0.019162,-0.030681,-0.138454,0.922358,-0.090868,-0.630973,-2.650623,0.344831,-11.112707
1790542049.8783,-0.005559,-0.051129,-0.148996,-0.009640,-0.044995,-0.148996,1.100837,-0.762289,-0.839806,-0.427600,1.274331,-10.608161
1790542049.8920,0.012288,-0.059736,-0.170250,0.005710,-0.055314,-0.170250,0.889576,-1.170241,-1.021927,-0.350944,2.873071,-5.601518
1790542049.9057,0.024478,-0.062169,-0.182799,0.018847,-0.060112,-0.182799,0.351711,-0.920127,-1.070493,1.182175,3.058971,-7.774944
1790542049.9197,0.025081,-0.067442,-0.191251,0.023211,-0.065243,-0.191251,0.366281,-0.066585,-1.031640,1.297159,1.348691,-9.987182
1790542049.9335,0.034180,-0.071863,-0.213770,0.030890,-0.069877,-0.213770,0.452485,-0.540101,-0.909012,-1.079176,3.802571,-11.656063
1790542049.9473,0.009300,-0.068666,-0.221653,0.015777,-0.069029,-0.221653,-0.316067,1.834761,-0.918725,1.143847,0.642271,-19.301868
1790542049.9611,0.006680,-0.055382,-0.243657,0.009409,-0.059476,-0.243657,-1.020270,0.460352,-0.885943,-4.030431,0.828171,-15.420749
1790542049.9750,0.004294,-0.041262,-0.253769,0.005829,-0.046726,-0.253769,-1.283739,0.657043,-0.816737,-3.302199,-1.551348,-4.941727
1790542049.9888,0.003002,-0.025402,-0.268353,0.003850,-0.031799,-0.268353,-1.414866,0.524702,-0.811880,-2.803935,-1.402628,-5.485084
1790542050.0027,-0.015108,-0.004245,-0.272528,-0.009420,-0.012511,-0.272528,-1.390583,1.430452,-0.702608,-0.044320,2.166651,-5.989630
1790542050.0166,-0.023238,0.008161,-0.282624,-0.019093,0.001959,-0.282624,-0.812651,0.901086,-0.664969,-2.573967,2.612811,-9.327392
1790542050.0305,-0.016907,0.002396,-0.302366,-0.017563,0.002265,-0.302366,0.229083,-0.302129,-0.400286,-2.382327,-1.811608,-19.922847
1790542050.0445,-0.015425,-0.005857,-0.301881,-0.016066,-0.003421,-0.301881,0.507121,-0.189214,0.420474,0.338959,0.753811,-15.420749
1790542050.0585,-0.017313,-0.014119,-0.283105,-0.016939,-0.010910,-0.283105,0.626107,-0.154004,0.906131,2.140375,1.943571,-9.637881
1790542050.0725,-0.000331,-0.025048,-0.263253,-0.005314,-0.020807,-0.263253,0.613966,-0.972335,0.739793,-3.225543,-0.770569,-5.446273
1790542050.0865,-0.007034,-0.036782,-0.262758,-0.006518,-0.031990,-0.262758,0.781517,0.209025,0.549173,1.642111,0.233291,-5.795574
1790542050.1004,-0.021854,-0.045872,-0.256864,-0.017253,-0.041707,-0.256864,0.645533,1.028571,0.558886,-0.235960,1.274331,-12.005364
1790542050.1143,-0.037500,-0.058038,-0.243937,-0.031426,-0.053139,-0.243937,0.911430,0.981219,0.811428,1.182175,1.869211,-10.685784
1790542050.1281,-0.055745,-0.061197,-0.216699,-0.048449,-0.058779,-0.216699,0.397848,1.181553,0.892775,0.990535,3.096151,-7.930189
1790542050.1424,-0.059310,-0.066744,-0.206931,-0.056052,-0.064354,-0.206931,0.315287,0.264875,0.935270,-1.002520,0.493551,-9.327392
1790542050.1565,-0.064672,-0.072459,-0.195408,-0.062086,-0.070028,-0.195408,0.357782,0.301300,0.885490,0.453943,0.716631,-8.745224
1790542050.1706,-0.056649,-0.075914,-0.178444,-0.058280,-0.074148,-0.178444,0.250937,-0.656658,0.849066,0.952207,2.352551,-14.683336
1790542050.1847,-0.047847,-0.072491,-0.169366,-0.050977,-0.072988,-0.169366,-0.313639,-0.822996,0.699726,3.175230,0.456371,-13.907112
1790542050.1987,-0.040582,-0.061807,-0.164509,-0.043700,-0.065161,-0.164509,-0.910997,-0.792642,0.716724,3.980118,-0.993649,-12.082986
1790542050.2127,-0.036911,-0.050768,-0.161118,-0.038948,-0.055086,-0.161118,-1.016627,-0.593523,0.575884,3.673494,-1.885968,-8.163056
1790542050.2267,-0.026868,-0.033148,-0.156237,-0.030492,-0.039729,-0.156237,-1.332304,-0.917699,0.464183,1.220503,0.233291,-5.717951
1790542050.2406,-0.010528,-0.017927,-0.147196,-0.016517,-0.024468,-0.147196,-1.237601,-1.444637,0.507892,1.872079,-0.435949,-6.804665
1790542050.2545,0.004530,-0.004611,-0.148914,-0.001784,-0.010568,-0.148914,-0.903712,-1.334150,0.312415,1.910407,1.571771,-6.959909
1790542050.2685,-0.008977,-0.013916,-0.137554,-0.006819,-0.012911,-0.137554,0.494980,0.817310,0.195858,3.213558,-1.700068,-16.585084
1790542050.2824,-0.013031,-0.021689,-0.130494,-0.011168,-0.019056,-0.130494,0.702598,0.593908,-0.342007,-5.333582,5.103871,-13.402567
1790542050.2962,-0.004800,-0.025349,-0.135069,-0.006710,-0.023461,-0.135069,0.317715,-0.252349,-0.963648,-3.532167,2.426911,-10.724595
1790542050.3102,-0.016680,-0.032830,-0.159227,-0.013689,-0.030019,-0.159227,0.552044,0.795456,-0.890800,2.025391,1.162791,-7.348021
1790542050.3241,-0.006852,-0.043160,-0.158384,-0.008903,-0.039218,-0.158384,0.821584,-0.434470,-0.468278,-2.382327,1.646131,-6.843476
1790542050.3380,0.004217,-0.060191,-0.165134,0.000281,-0.053899,-0.165134,1.207681,-0.705224,-0.641901,-0.619240,0.939711,-11.500819
1790542050.3516,0.019862,-0.072033,-0.175665,0.013987,-0.066593,-0.175665,0.985493,-1.045184,-0.797311,-0.734224,2.649991,-9.172147
1790542050.3651,0.029013,-0.075853,-0.191015,0.024505,-0.073075,-0.191015,0.457341,-0.674871,-0.893228,0.530599,3.058971,-7.619700
1790542050.3790,0.035935,-0.078691,-0.203807,0.032506,-0.077006,-0.203807,0.320143,-0.563169,-0.860446,1.833751,3.616671,-11.229140
1790542050.3937,0.020107,-0.079550,-0.212233,0.023827,-0.078787,-0.212233,-0.140017,1.094134,-0.992788,1.297159,-2.592388,-16.391028
1790542050.4077,0.007825,-0.069520,-0.223325,0.012626,-0.072300,-0.223325,-0.815080,1.007930,-0.875016,-1.347472,-0.175689,-15.537182
1790542050.4217,0.007483,-0.061627,-0.235369,0.009026,-0.064829,-0.235369,-0.813866,0.337724,-0.985503,-3.685479,-2.815468,-9.987182
1790542050.4356,-0.002771,-0.049433,-0.247276,0.000768,-0.054052,-0.247276,-1.050623,0.959365,-0.901727,-0.964192,-0.659029,-5.213406
1790542050.4496,-0.005921,-0.032856,-0.254438,-0.003914,-0.039215,-0.254438,-1.277668,0.587837,-0.832521,-3.110559,-0.175689,-7.386832
1790542050.4636,-0.012278,-0.017308,-0.265148,-0.009769,-0.023880,-0.265148,-1.235173,0.694682,-0.672254,-2.037376,-0.324409,-9.715504
1790542050.4774,-0.014201,-0.006454,-0.279729,-0.012871,-0.011682,-0.279729,-0.975346,0.528344,-0.702608,-4.720334,-1.625708,-10.491728
1790542050.4913,-0.001911,-0.010282,-0.280013,-0.005199,-0.010702,-0.280013,0.187802,-0.634804,-0.528985,-3.225543,0.196111,-11.888930
1790542050.5052,-0.004195,-0.018601,-0.316549,-0.004496,-0.016231,-0.316549,0.578755,-0.183143,0.353696,4.555037,1.311511,-10.336483
1790542050.5192,-0.006148,-0.031920,-0.321151,-0.005652,-0.027213,-0.321151,0.974566,-0.099367,0.567385,3.098574,2.055111,-13.208511
1790542050.5332,-0.004877,-0.044586,-0.296005,-0.005109,-0.039374,-0.296005,0.826440,0.025689,0.370694,-1.117504,-0.064149,-4.592427
1790542050.5471,-0.014642,-0.054514,-0.299927,-0.011782,-0.049972,-0.299927,0.627321,0.665542,0.252922,0.147319,-0.175689,-9.094525
1790542050.5609,-0.028680,-0.066260,-0.303626,-0.023611,-0.061374,-0.303626,0.836154,0.936296,0.286918,1.220503,1.162791,-13.635434
1790542050.5749,-0.052016,-0.077320,-0.305159,-0.043494,-0.072536,-0.305159,0.825226,1.505729,0.620807,1.757095,1.348691,-8.318301
1790542050.5886,-0.066136,-0.079080,-0.256004,-0.059343,-0.077117,-0.256004,0.356567,1.097777,0.707011,-0.849208,3.579491,-7.270399
1790542050.6022,-0.072090,-0.083983,-0.230995,-0.068266,-0.081923,-0.230995,0.418489,0.497991,0.775003,-0.925864,1.757671,-7.736133
1790542050.6164,-0.077972,-0.089243,-0.220889,-0.075060,-0.087047,-0.220889,0.320143,0.368077,0.739793,0.607255,0.716631,-11.229140
1790542050.6307,-0.063880,-0.093336,-0.211445,-0.067234,-0.091449,-0.211445,0.163519,-1.008760,0.839353,-0.235960,-0.510309,-13.984735
1790542050.6451,-0.049702,-0.086004,-0.208713,-0.054962,-0.087637,-0.208713,-0.529756,-1.159313,0.764076,2.983590,1.385871,-13.169700
1790542050.6591,-0.039194,-0.078584,-0.231210,-0.043924,-0.081300,-0.231210,-0.714306,-1.079180,0.772575,3.865134,-1.514168,-8.589979
1790542050.6733,-0.033064,-0.067280,-0.225801,-0.036322,-0.071486,-0.225801,-0.982631,-0.876418,0.643876,4.938317,-1.551348,-6.377742
1790542050.6873,-0.022655,-0.048826,-0.226227,-0.026755,-0.055624,-0.226227,-1.368728,-0.892202,0.437472,1.220503,0.382011,-7.852567
1790542050.7013,-0.018084,-0.026923,-0.227847,-0.020685,-0.035533,-0.227847,-1.668622,-0.563169,0.282062,2.676966,-0.287229,-8.434735
1790542050.7152,-0.001240,-0.009743,-0.226819,-0.007073,-0.017480,-0.226819,-1.333518,-1.426425,0.186144,2.791950,-0.064149,-10.841028
1790542050.7292,-0.013966,-0.006449,-0.238640,-0.011898,-0.009758,-0.238640,-0.226221,0.661900,0.237138,4.018446,1.869211,-11.462007
1790542050.7430,-0.022364,-0.017938,-0.222080,-0.019224,-0.015484,-0.222080,0.826440,0.803955,-0.339579,-2.382327,1.906391,-13.014455
1790542050.7570,-0.015135,-0.021601,-0.198275,-0.016362,-0.019766,-0.198275,0.474339,-0.151575,-0.985503,-3.033903,4.174371,-7.852567
1790542050.7709,-0.014057,-0.022087,-0.210098,-0.014748,-0.021391,-0.210098,0.357782,0.126463,-0.694109,-1.309144,4.880791,-6.300119
1790542050.7848,-0.017548,-0.035252,-0.209522,-0.016708,-0.031093,-0.209522,0.940570,0.453067,-0.543555,-1.462456,0.902531,-7.852567
1790542050.7986,0.000740,-0.047387,-0.207669,-0.004494,-0.042499,-0.207669,0.892004,-1.093750,-0.684396,-2.727279,1.423051,-10.491728
1790542050.8121,0.008274,-0.054673,-0.229313,0.004444,-0.051021,-0.229313,0.658889,-0.611735,-0.782741,1.757095,2.873071,-8.939280
1790542050.8256,0.013096,-0.059376,-0.249130,0.010500,-0.056869,-0.249130,0.331070,-0.418687,-0.941794,1.948735,0.976891,-8.939280
1790542050.8394,0.024576,-0.061175,-0.263473,0.020353,-0.059883,-0.263473,0.141664,-0.751362,-0.974575,-0.120976,1.274331,-7.891378
1790542050.8535,0.028196,-0.066506,-0.279195,0.025843,-0.064519,-0.279195,0.352925,-0.232923,-0.946650,0.530599,0.902531,-8.279490
1790542050.8675,0.040301,-0.068841,-0.294065,0.035964,-0.067544,-0.294065,0.266721,-0.751362,-0.855590,-1.079176,3.244871,-10.181238
1790542050.8815,0.018556,-0.064502,-0.308907,0.023778,-0.065415,-0.308907,-0.284500,1.531226,-0.677111,1.948735,2.947431,-15.110259
1790542050.8961,0.008180,-0.048370,-0.316409,0.012860,-0.053483,-0.316409,-1.059122,0.924155,-0.572694,-3.608823,2.761531,-12.859210
1790542050.9101,-0.001495,-0.033041,-0.307712,0.002811,-0.039174,-0.307712,-1.291023,0.987290,-0.531414,-3.187215,-1.551348,-8.318301
1790542050.9240,-0.010049,-0.017926,-0.306544,-0.006191,-0.024300,-0.306544,-1.237601,0.986076,-0.383288,-3.072231,-0.659029,-5.679140
1790542050.9379,-0.025587,-0.002412,-0.309082,-0.019768,-0.008979,-0.309082,-1.128328,1.268971,-0.237591,-0.580912,0.605091,-4.243126
1790542050.9519,-0.012892,-0.014452,-0.314911,-0.014955,-0.012810,-0.314911,0.692885,-0.759861,-0.186597,-3.417183,-1.997508,-16.817952
1790542050.9657,-0.015185,-0.020191,-0.313350,-0.015116,-0.017977,-0.313350,0.471911,-0.111509,0.776217,3.596838,3.207691,-13.402567
1790542050.9795,-0.016518,-0.026946,-0.297609,-0.016097,-0.024255,-0.297609,0.434273,-0.024090,1.127104,-0.542584,0.605091,-10.608161
1790542050.9934,-0.006897,-0.036657,-0.270213,-0.009657,-0.032936,-0.270213,0.680743,-0.689440,1.195096,-1.845736,0.716631,-7.037532
1790542051.0073,-0.004091,-0.048764,-0.269555,-0.005761,-0.044016,-0.269555,0.845867,-0.438113,0.823569,1.527127,0.493551,-7.658511
1790542051.0228,-0.027617,-0.063969,-0.265248,-0.021060,-0.057983,-0.265248,0.952711,1.301753,1.020260,2.293686,0.605091,-10.724595
1790542051.0368,-0.037018,-0.075549,-0.240509,-0.032231,-0.070279,-0.240509,0.894432,0.660686,1.130747,-0.887536,1.757671,-7.736133
1790542051.0503,-0.052682,-0.078367,-0.218745,-0.046547,-0.075941,-0.218745,0.337141,1.091706,1.110107,0.032335,2.389731,-6.959909
1790542051.0639,-0.055115,-0.080445,-0.201208,-0.052544,-0.079094,-0.201208,0.107668,0.240593,1.015403,-1.960720,0.828171,-10.841028
1790542051.0780,-0.048560,-0.078056,-0.186177,-0.049755,-0.078368,-0.186177,-0.203152,-0.542529,0.976551,0.300631,1.125611,-11.656063
1790542051.0918,-0.040986,-0.072666,-0.175099,-0.043616,-0.074376,-0.175099,-0.427768,-0.654230,0.859993,0.990535,1.014071,-13.130889
1790542051.1059,-0.040765,-0.068921,-0.185366,-0.041621,-0.070557,-0.185366,-0.481191,-0.303343,0.901274,3.865134,-2.406488,-10.491728
1790542051.1198,-0.036075,-0.064282,-0.182665,-0.037739,-0.066165,-0.182665,-0.538255,-0.642089,0.879420,3.596838,-1.960328,-9.327392
1790542051.1339,-0.027869,-0.056267,-0.178015,-0.030830,-0.059236,-0.178015,-0.691237,-0.872776,0.768933,2.025391,-0.435949,-5.562707
1790542051.1484,-0.021822,-0.044226,-0.170891,-0.024524,-0.048729,-0.170891,-0.938922,-0.729507,0.685157,2.600310,-0.398769,-6.222497
1790542051.1626,-0.017529,-0.029661,-0.169592,-0.019627,-0.035382,-0.169592,-1.071264,-0.587452,0.580741,3.175230,0.567911,-9.055714
1790542051.1766,-0.011251,-0.013801,-0.169146,-0.013764,-0.020275,-0.169146,-1.147755,-0.614163,0.407118,1.987063,1.571771,-12.509909
1790542051.1906,-0.018662,-0.012847,-0.154880,-0.017192,-0.015075,-0.154880,-0.240790,0.431213,-0.090680,3.558510,-2.146228,-17.206063
1790542051.2047,-0.015693,-0.021550,-0.124657,-0.016143,-0.019607,-0.124657,0.609109,0.161673,-0.821594,-4.260399,1.460231,-10.879840
1790542051.2187,-0.008949,-0.025949,-0.172061,-0.011107,-0.024046,-0.172061,0.686814,-0.412616,-0.836163,0.338959,5.401311,-5.834385
1790542051.2326,-0.016030,-0.036033,-0.189139,-0.014553,-0.032437,-0.189139,0.803372,0.398431,-0.337151,1.795423,1.720491,-6.804665
1790542051.2465,-0.003978,-0.053764,-0.185218,-0.007151,-0.047366,-0.185218,1.225893,-0.745291,-0.515630,-1.424128,0.493551,-13.247322
1790542051.2605,0.014444,-0.068784,-0.203697,0.007965,-0.062359,-0.203697,1.244105,-1.228519,-0.904155,-0.312616,3.505131,-8.628791
1790542051.2740,0.021118,-0.079837,-0.223801,0.017172,-0.074594,-0.223801,0.830083,-0.547386,-1.218618,1.757095,1.274331,-8.007811
1790542051.2876,0.035314,-0.081771,-0.246429,0.029871,-0.079618,-0.246429,0.271577,-0.988119,-1.070493,-0.044320,2.873071,-8.163056
1790542051.3016,0.043432,-0.087009,-0.253102,0.039364,-0.084792,-0.253102,0.333499,-0.665157,-0.884729,1.220503,0.530731,-6.494175
1790542051.3154,0.049738,-0.093547,-0.272125,0.046626,-0.090920,-0.272125,0.583612,-0.416258,-0.664969,-0.542584,3.133331,-10.336483
1790542051.3293,0.027529,-0.089848,-0.273487,0.033258,-0.090170,-0.273487,-0.362205,1.607717,-0.577551,0.147319,-0.287229,-15.459560
1790542051.3432,0.021514,-0.073382,-0.249893,0.025037,-0.078418,-0.249893,-1.260670,0.778458,-0.654042,-7.441621,0.196111,-13.324944
1790542051.3571,0.015453,-0.060353,-0.237631,0.018328,-0.065772,-0.237631,-1.148969,0.653401,-0.583622,-2.458983,-1.774428,-8.745224
1790542051.3710,0.002756,-0.043956,-0.236629,0.007428,-0.050501,-0.236629,-1.314092,1.086850,-0.490133,-1.309144,-0.510309,-6.843476
1790542051.3849,-0.007336,-0.026064,-0.243662,-0.002907,-0.033395,-0.243662,-1.269169,0.960579,-0.590907,-1.922392,1.311511,-7.464455
1790542051.3993,-0.022058,-0.016142,-0.247291,-0.016313,-0.021318,-0.247291,-0.836934,1.205836,-0.395430,-1.309144,-0.770569,-7.153965
1790542051.4133,-0.019224,-0.010322,-0.249741,-0.018350,-0.013621,-0.249741,-0.424126,-0.061729,-0.451280,-2.382327,2.873071,-21.281238
1790542051.4271,-0.011687,-0.015534,-0.255733,-0.013686,-0.014960,-0.255733,0.374780,-0.701582,0.186144,2.102047,1.571771,-10.763406
1790542051.4411,-0.013953,-0.018344,-0.268069,-0.013873,-0.017329,-0.268069,0.263078,-0.195284,0.778646,3.558510,2.055111,-8.395923
1790542051.4550,-0.018045,-0.027744,-0.267961,-0.016793,-0.024619,-0.267961,0.674673,-0.065371,0.790787,3.366870,1.014071,-7.697322
1790542051.4688,-0.023601,-0.044329,-0.266593,-0.021558,-0.038416,-0.266593,1.267174,0.187170,0.817498,1.833751,2.203831,-9.327392
1790542051.4827,-0.038820,-0.059413,-0.265306,-0.033642,-0.053114,-0.265306,1.153045,0.924155,0.800500,1.910407,2.426911,-10.763406
1790542051.4964,-0.056113,-0.071269,-0.259885,-0.049372,-0.065823,-0.259885,0.917501,1.100205,1.104036,1.220503,2.166651,-9.210958
1790542051.5099,-0.074117,-0.078210,-0.254649,-0.066694,-0.074494,-0.254649,0.644319,1.281112,1.125890,-0.005993,2.984611,-7.774944
1790542051.5235,-0.079173,-0.084421,-0.238725,-0.075429,-0.081443,-0.238725,0.451271,0.410572,1.140460,-1.424128,1.906391,-10.414105
1790542051.5374,-0.075184,-0.086099,-0.222933,-0.075257,-0.084702,-0.222933,0.059103,-0.276632,0.970480,-0.925864,1.051251,-12.471098
1790542051.5512,-0.067418,-0.089913,-0.200844,-0.069770,-0.088350,-0.200844,0.138022,-0.672442,1.065183,1.450471,-0.584669,-14.722147
1790542051.5650,-0.062481,-0.091145,-0.170248,-0.064668,-0.090307,-0.170248,-0.096308,-0.551028,1.085824,3.136902,-1.662888,-12.975644
1790542051.5789,-0.065590,-0.097128,-0.112040,-0.065313,-0.095081,-0.112040,0.084600,-0.128507,1.162315,4.670021,-3.559068,-7.464455
1790542051.5929,-0.054409,-0.089703,-0.102185,-0.057680,-0.091317,-0.102185,-0.577108,-0.995404,1.292228,1.872079,0.865351,-8.978091
1790542051.6068,-0.044816,-0.076332,-0.089375,-0.048675,-0.080827,-0.089375,-1.080977,-0.982049,1.199953,2.446998,-0.287229,-6.843476
1790542051.6207,-0.040470,-0.057447,-0.087490,-0.042932,-0.064461,-0.087490,-1.436720,-0.699153,1.038472,3.443526,-0.026969,-6.377742
1790542051.6350,-0.031763,-0.033113,-0.069023,-0.035113,-0.042518,-0.069023,-1.826460,-0.846065,0.632949,2.293686,-0.361589,-7.774944
1790542051.6496,-0.020852,-0.001161,-0.062009,-0.025131,-0.013568,-0.062009,-2.278121,-1.031828,0.483609,2.791950,0.084571,-7.503266
1790542051.6638,-0.022835,0.014041,-0.010066,-0.023524,0.005759,-0.010066,-1.395440,0.048758,0.065944,4.363398,-6.756548,-21.281238
1790542051.6778,-0.030069,-0.009550,0.016564,-0.028106,-0.004958,0.016564,1.562211,0.817310,-0.429426,-6.176798,-0.621849,-20.155714
1790542051.6919,-0.019126,-0.006433,-0.154967,-0.021820,-0.005991,-0.154967,0.295860,-0.510961,-0.777884,-5.065286,10.271890,-8.318301
1790542051.7059,-0.025705,-0.019758,-0.106825,-0.024540,-0.015628,-0.106825,0.713525,0.501633,-0.207238,0.453943,-1.402628,-7.736133
1790542051.7199,-0.016817,-0.033063,-0.051918,-0.019134,-0.027832,-0.051918,0.860436,-0.218353,-0.542341,-4.490366,0.158931,-7.813756
1790542051.7336,0.005449,-0.052745,-0.036451,-0.001926,-0.045271,-0.036451,1.350950,-1.300154,-0.747531,-4.490366,-0.212869,-10.724595
1790542051.7473,0.020166,-0.060845,-0.108923,0.013539,-0.056173,-0.108923,0.922358,-1.013616,-0.735389,-0.427600,4.211551,-5.873196
1790542051.7611,0.026020,-0.062593,-0.146337,0.022276,-0.060667,-0.146337,0.317715,-0.473323,-0.765743,1.028863,2.835891,-6.144874
1790542051.7750,0.034625,-0.068301,-0.158731,0.030921,-0.066011,-0.158731,0.385707,-0.610521,-0.754816,0.377287,0.753811,-7.736133
1790542051.7888,0.049325,-0.072215,-0.173813,0.043804,-0.070354,-0.173813,0.423345,-0.912842,-0.684396,-2.190688,3.876931,-9.948371
1790542051.8026,0.020348,-0.066292,-0.182069,0.027384,-0.067511,-0.182069,-0.511544,2.089731,-0.669826,1.872079,0.605091,-17.477742
1790542051.8166,0.002941,-0.045824,-0.183781,0.010274,-0.052330,-0.183781,-1.488929,1.437737,-0.567838,-3.800463,2.017931,-17.671798
1790542051.8305,0.001880,-0.028939,-0.134737,0.004398,-0.035957,-0.134737,-1.507141,0.363221,-0.545983,-1.769080,-1.662888,-4.825294
1790542051.8443,-0.005083,-0.011966,-0.128077,-0.002239,-0.019163,-0.128077,-1.457361,0.854948,-0.524129,-1.155832,-0.621849,-2.380189
1790542051.8601,-0.025597,0.005322,-0.146284,-0.018589,-0.002024,-0.146284,-0.971704,1.623500,-0.555696,-1.922392,1.794851,-4.204315
1790542051.8746,-0.009391,-0.005528,-0.148912,-0.012150,-0.004476,-0.148912,0.594539,-0.938339,-0.594549,-3.608823,-2.480848,-21.281238
1790542051.8892,-0.009399,-0.015882,-0.156569,-0.010224,-0.012460,-0.156569,0.697741,-0.185571,0.418046,3.290214,2.055111,-16.779140
1790542051.9036,-0.007979,-0.016271,-0.153654,-0.008652,-0.015128,-0.153654,0.065173,-0.264491,0.685157,0.952207,1.980751,-9.560259
1790542051.9180,0.005496,-0.023095,-0.138807,0.001251,-0.020705,-0.138807,0.406347,-1.091321,0.878205,0.147319,0.084571,-8.900469
1790542051.9319,0.001236,-0.035045,-0.140640,0.001241,-0.030743,-0.140640,0.888362,0.069399,0.838139,2.140375,1.683311,-11.539630
1790542051.9459,-0.017411,-0.047239,-0.142747,-0.011816,-0.042291,-0.142747,0.890790,1.073494,0.998405,2.830278,1.534591,-11.617252
1790542051.9595,-0.033145,-0.056998,-0.129478,-0.026746,-0.052586,-0.129478,0.747521,1.064995,1.102822,-0.197632,1.608951,-8.939280
1790542051.9732,-0.043696,-0.058576,-0.116167,-0.038611,-0.056779,-0.116167,0.213299,0.706823,1.167171,-0.465928,2.910251,-9.249770
1790542051.9867,-0.046200,-0.057986,-0.092820,-0.043924,-0.057624,-0.092820,-0.084166,0.164102,1.179313,-1.347472,1.162791,-11.073895
1790542052.0006,-0.049287,-0.057230,-0.075008,-0.047678,-0.057348,-0.075008,-0.114520,0.142247,1.071254,-0.120976,0.642271,-9.133336
1790542052.0146,-0.049106,-0.056798,-0.064950,-0.048678,-0.056963,-0.064950,0.016608,-0.088440,0.828426,0.185647,2.575631,-10.841028
1790542052.0285,-0.039386,-0.054360,-0.053230,-0.042173,-0.055141,-0.053230,-0.240790,-0.810854,0.784716,0.837223,0.642271,-13.363756
1790542052.0423,-0.035472,-0.046209,-0.049967,-0.037483,-0.048888,-0.049967,-0.694880,-0.485464,0.608666,3.175230,-0.510309,-13.324944
1790542052.0563,-0.030309,-0.035188,-0.047127,-0.032461,-0.039298,-0.047127,-0.966847,-0.677299,0.594096,3.826806,-1.551348,-9.094525
1790542052.0703,-0.020910,-0.017368,-0.053716,-0.024375,-0.023947,-0.053716,-1.337161,-1.065824,0.521248,3.443526,0.158931,-5.912007
1790542052.0842,-0.000619,0.000080,-0.032546,-0.007746,-0.007128,-0.032546,-1.408795,-1.533269,0.182502,0.262303,-0.398769,-4.631238
1790542052.0983,0.012758,0.011007,-0.041965,0.006607,0.005567,-0.041965,-0.806581,-1.178740,0.119367,3.328542,1.237151,-11.850119
1790542052.1122,-0.007654,-0.007819,-0.051392,-0.003376,-0.003804,-0.051392,1.299956,1.438951,-0.235163,2.370342,1.757671,-19.651168
1790542052.1262,0.010830,-0.014569,-0.053894,0.006568,-0.011339,-0.053894,0.544759,-0.966265,-1.343675,-5.755190,5.735931,-19.146623
1790542052.1404,0.008008,-0.018163,-0.094055,0.007576,-0.016116,-0.094055,0.243652,0.024475,-1.194335,5.436581,1.237151,-8.395923
1790542052.1549,0.008731,-0.028473,-0.066256,0.008384,-0.024766,-0.066256,0.666174,0.301300,-0.737818,-2.190688,0.605091,-4.980539
1790542052.1689,0.019637,-0.046379,-0.044551,0.016261,-0.039895,-0.044551,1.191897,-0.430828,-0.796097,-4.107087,0.158931,-9.133336
1790542052.1829,0.036349,-0.066992,-0.056008,0.030323,-0.058863,-0.056008,1.540356,-0.934697,-1.020713,-2.727279,2.352551,-8.357112
1790542052.1965,0.050304,-0.073968,-0.097727,0.044310,-0.069436,-0.097727,0.669816,-0.941982,-1.285396,-0.274288,3.653851,-7.969000
1790542052.2102,0.052094,-0.076236,-0.142750,0.049759,-0.074196,-0.142750,0.248509,-0.291202,-1.081420,2.830278,2.501271,-7.697322
1790542052.2242,0.061006,-0.083601,-0.161576,0.057632,-0.080779,-0.161576,0.470697,-0.574097,-1.150626,-0.235960,1.051251,-9.599070
1790542052.2381,0.050148,-0.091915,-0.158956,0.052393,-0.088574,-0.158956,0.361424,0.739605,-0.986717,2.063719,-2.666748,-14.450469
1790542052.2520,0.038048,-0.082070,-0.159592,0.042352,-0.084021,-0.159592,-0.840577,0.988504,-0.860446,-1.577440,-0.510309,-12.626343
1790542052.2660,0.040063,-0.072837,-0.134404,0.040749,-0.076192,-0.134404,-0.926781,0.138605,-0.827664,-4.030431,-2.852648,-10.064805
1790542052.2798,0.032949,-0.057705,-0.129060,0.035289,-0.063252,-0.129060,-1.323805,0.800312,-0.850733,-1.999048,-1.142369,-5.329839
1790542052.2937,0.023394,-0.037416,-0.129794,0.026963,-0.045167,-0.129794,-1.638268,0.903514,-0.781527,-1.270816,-0.584669,-5.873196
1790542052.3076,0.016117,-0.019729,-0.151614,0.019371,-0.027361,-0.151614,-1.569062,0.833094,-0.646757,-2.535639,-2.183408,-5.679140
1790542052.3215,0.001073,-0.003916,-0.151766,0.006562,-0.010949,-0.151766,-1.277668,1.333320,-0.706250,-2.190688,-0.473129,-10.297672
1790542052.3354,0.012189,-0.006609,-0.144560,0.010501,-0.007911,-0.144560,0.113739,-0.628733,-0.400286,-4.107087,0.716631,-20.931938
1790542052.3494,0.012067,-0.012095,-0.159190,0.011597,-0.010840,-0.159190,0.442772,-0.173430,0.425330,1.258831,1.906391,-8.900469
1790542052.3634,0.013290,-0.012686,-0.144636,0.012782,-0.012132,-0.144636,0.207228,-0.059301,0.758005,-1.462456,2.203831,-5.213406
1790542052.3772,0.013736,-0.026242,-0.154056,0.013450,-0.022009,-0.154056,0.961210,-0.291202,0.834496,0.952207,0.382011,-5.485084
1790542052.3912,0.005804,-0.039645,-0.192134,0.008098,-0.034354,-0.192134,1.046200,0.188384,0.805357,4.286742,2.315371,-10.181238
1790542052.4058,-0.008691,-0.050563,-0.204100,-0.003655,-0.045700,-0.204100,0.797301,0.732320,0.781074,2.791950,1.646131,-9.676693
1790542052.4195,-0.019659,-0.063363,-0.202458,-0.014858,-0.058064,-0.202458,1.072911,0.666756,0.902488,0.530599,2.575631,-7.697322
1790542052.4332,-0.035371,-0.068715,-0.201329,-0.029217,-0.065520,-0.201329,0.519262,0.952080,1.110107,1.795423,3.356411,-10.181238
1790542052.4468,-0.043385,-0.069654,-0.189024,-0.039135,-0.068414,-0.189024,0.141664,0.490706,1.185383,0.108991,2.501271,-9.482637
1790542052.4608,-0.050887,-0.072421,-0.181549,-0.047361,-0.071219,-0.181549,0.237582,0.389932,1.070040,1.067191,1.869211,-8.784035
1790542052.4747,-0.040556,-0.075993,-0.169368,-0.042598,-0.074561,-0.169368,0.252151,-0.831495,0.947411,0.415615,1.720491,-12.703965
1790542052.4886,-0.029668,-0.068302,-0.163056,-0.033547,-0.070179,-0.163056,-0.541898,-0.943196,0.770147,2.370342,2.055111,-14.683336
1790542052.5025,-0.026692,-0.056615,-0.131973,-0.028749,-0.060685,-0.131973,-0.977775,-0.541315,0.759219,5.743205,-1.142369,-12.044175
1790542052.5164,-0.017391,-0.042136,-0.114299,-0.020799,-0.047701,-0.114299,-1.153825,-0.967479,0.569813,3.596838,-0.547489,-8.589979
1790542052.5303,-0.004673,-0.025530,-0.106501,-0.009510,-0.032181,-0.106501,-1.267955,-1.196952,0.359767,2.063719,0.010211,-5.252217
1790542052.5443,0.013639,-0.011736,-0.095574,0.006694,-0.017870,-0.095574,-1.050623,-1.479847,0.376765,0.568927,0.121751,-3.932637
1790542052.5583,0.026656,-0.001142,-0.110461,0.020667,-0.006160,-0.110461,-0.626888,-1.195738,0.402262,1.795423,2.166651,-6.610609
1790542052.5723,0.010720,-0.003596,-0.123757,0.013704,-0.004365,-0.123757,0.230297,0.999431,0.110868,2.638638,3.133331,-13.208511
1790542052.5862,0.008317,-0.010137,-0.133470,0.009933,-0.008406,-0.133470,0.553258,0.365649,-0.595763,-2.382327,4.062831,-12.471098
1790542052.6002,0.010243,-0.019672,-0.150418,0.010150,-0.016292,-0.150418,0.713525,0.104609,-1.180980,-1.500784,2.538451,-10.841028
1790542052.6141,0.001040,-0.029803,-0.156682,0.003773,-0.025750,-0.156682,0.655246,0.676470,-0.773028,1.412143,0.456371,-9.327392
1790542052.6280,0.010705,-0.042332,-0.142190,0.008625,-0.037357,-0.142190,0.867721,-0.480608,-0.430640,-1.462456,0.530731,-5.096972
1790542052.6421,0.021045,-0.062779,-0.133742,0.017319,-0.055152,-0.133742,1.363091,-0.610521,-0.553268,-1.462456,-0.138509,-10.841028
1790542052.6562,0.042979,-0.075227,-0.136273,0.035281,-0.069205,-0.136273,0.941784,-1.315938,-0.770600,-2.727279,1.943571,-7.580888
1790542052.6699,0.048224,-0.082472,-0.159168,0.044341,-0.078491,-0.159168,0.542331,-0.449040,-0.865303,1.833751,1.943571,-11.578441
1790542052.6839,0.056687,-0.086299,-0.175394,0.052983,-0.083956,-0.175394,0.253365,-0.653016,-0.754816,0.990535,1.051251,-9.405014
1790542052.6978,0.046932,-0.088054,-0.197448,0.048748,-0.086825,-0.197448,0.181731,0.720179,-0.695323,-0.120976,4.285911,-18.448022
1790542052.7119,0.030043,-0.078177,-0.192560,0.035654,-0.080771,-0.192560,-0.807795,1.340605,-0.544769,-2.995575,-0.250049,-16.585084
1790542052.7259,0.029828,-0.068604,-0.163157,0.031576,-0.072254,-0.163157,-0.883072,0.297657,-0.709892,-5.065286,-2.071868,-12.548721
1790542052.7398,0.021371,-0.056652,-0.143024,0.024432,-0.061332,-0.143024,-1.079763,0.884088,-0.668612,-2.152360,-1.253909,-5.717951
1790542052.7538,0.005340,-0.038566,-0.147468,0.011068,-0.045396,-0.147468,-1.369943,1.227690,-0.514416,-0.120976,0.158931,-4.204315
1790542052.7675,-0.001850,-0.022348,-0.138484,0.002025,-0.029263,-0.138484,-1.345660,0.783314,-0.513201,-1.654096,-0.659029,-5.329839
1790542052.7814,-0.018605,-0.009173,-0.143930,-0.012416,-0.015200,-0.143930,-0.981417,1.294468,-0.394216,-0.120976,1.311511,-11.966553
1790542052.7952,-0.006605,-0.016025,-0.135160,-0.008349,-0.015777,-0.135160,0.337141,-0.714937,-0.266731,-3.953775,-2.294948,-20.505015
1790542052.8090,-0.000336,-0.021720,-0.176889,-0.002740,-0.019937,-0.176889,0.530190,-0.814497,0.524890,4.095102,2.798711,-9.366203
1790542052.8229,-0.003291,-0.032124,-0.178465,-0.003126,-0.028468,-0.178465,0.712311,-0.065371,0.800500,3.136902,0.456371,-11.888930
1790542052.8367,-0.003977,-0.047775,-0.178983,-0.003722,-0.041983,-0.178983,1.267174,0.018405,0.547959,-0.542584,2.426911,-7.037532
1790542052.8505,-0.017894,-0.063575,-0.191043,-0.013642,-0.057097,-0.191043,1.223465,0.820952,0.419260,2.140375,1.869211,-8.745224
1790542052.8645,-0.033837,-0.076882,-0.196320,-0.027778,-0.070947,-0.196320,1.047414,1.078351,0.430187,0.798895,2.910251,-12.082986
1790542052.8780,-0.055606,-0.086982,-0.207462,-0.047258,-0.082171,-0.207462,0.928428,1.487516,0.535817,1.335487,3.021791,-7.580888
1790542052.8915,-0.066888,-0.092678,-0.204698,-0.060999,-0.089526,-0.204698,0.548402,0.864662,0.663302,-0.542584,2.761531,-8.589979
1790542052.9055,-0.070385,-0.101750,-0.190447,-0.067569,-0.098083,-0.190447,0.622465,0.304942,0.674229,-1.002520,0.828171,-9.754315
1790542052.9196,-0.064206,-0.103871,-0.179136,-0.065215,-0.102135,-0.179136,0.111311,-0.491535,0.833282,0.722239,0.902531,-12.315854
1790542052.9336,-0.054471,-0.104385,-0.159979,-0.057694,-0.103710,-0.159979,-0.070811,-0.752576,0.919486,0.607255,-0.473129,-12.199420
1790542052.9479,-0.051290,-0.105240,-0.131695,-0.053211,-0.104781,-0.131695,-0.103592,-0.506105,1.019046,4.861661,-1.625708,-10.414105
1790542052.9620,-0.041078,-0.097812,-0.112731,-0.044718,-0.099903,-0.112731,-0.636601,-1.002689,1.192668,3.558510,-0.473129,-9.249770
1790542052.9760,-0.032699,-0.088466,-0.087038,-0.036304,-0.091897,-0.087038,-0.840577,-0.842422,0.946197,3.251886,-1.662888,-9.521448
1790542052.9900,-0.029585,-0.070245,-0.085341,-0.031601,-0.076741,-0.085341,-1.342017,-0.514604,0.673015,3.635166,0.196111,-8.395923
1790542053.0038,-0.025196,-0.047155,-0.077023,-0.027117,-0.056031,-0.077023,-1.766967,-0.646945,0.470254,4.286742,-0.361589,-8.201867
1790542053.0178,-0.018654,-0.019511,-0.072811,-0.021193,-0.030467,-0.072811,-2.049862,-0.733149,0.311201,3.481854,0.196111,-8.900469
1790542053.0318,-0.006100,0.008358,-0.052196,-0.010628,-0.003289,-0.052196,-2.155493,-1.114390,0.200714,2.408670,-0.621849,-7.813756
1790542053.0457,-0.007518,0.029380,-0.068559,-0.008451,0.019579,-0.068559,-1.450076,-0.024090,0.050160,1.642111,2.426911,-9.288581
1790542053.0596,-0.013024,0.006345,-0.011960,-0.011652,0.010315,-0.011960,1.361877,0.575696,-0.138032,-3.072231,-4.079588,-18.797322
1790542053.0735,-0.026445,-0.005374,-0.115193,-0.022007,-0.000667,-0.115193,1.326667,0.875589,-0.314082,1.642111,6.814150,-6.610609
1790542053.0874,-0.036009,-0.015799,-0.137340,-0.031809,-0.011259,-0.137340,0.854366,0.608478,-0.263088,1.948735,2.426911,-8.512357
1790542053.1014,-0.039840,-0.017902,-0.133016,-0.037431,-0.015909,-0.133016,0.155020,0.468851,-0.447638,-2.037376,1.794851,-11.539630
1790542053.1151,-0.033437,-0.039953,-0.084476,-0.034635,-0.032740,-0.084476,1.355806,-0.314270,-0.462208,-0.810880,-2.034688,-9.366203
1790542053.1287,-0.023460,-0.040562,-0.134052,-0.026812,-0.038215,-0.134052,0.538689,-0.527959,-0.533842,-1.577440,4.955151,-3.699769
1790542053.1428,-0.017006,-0.041630,-0.160278,-0.019948,-0.040606,-0.160278,0.236367,-0.434470,-0.616404,0.683911,3.021791,-8.318301
1790542053.1571,-0.003400,-0.044084,-0.177247,-0.008365,-0.043040,-0.177247,0.232725,-0.826638,-0.819165,-0.657568,2.166651,-10.064805
1790542053.1712,0.000201,-0.041625,-0.204497,-0.002369,-0.042050,-0.204497,0.006895,-0.209854,-0.830093,0.645583,3.579491,-8.201867
1790542053.1851,-0.009408,-0.048798,-0.200619,-0.007296,-0.046773,-0.200619,0.441557,0.818524,-0.486490,-1.845736,0.344831,-16.856763
1790542053.1991,-0.015765,-0.037093,-0.204765,-0.013224,-0.039997,-0.204765,-0.776227,0.657043,-0.389359,-4.605350,4.025651,-17.438931
1790542053.2132,-0.019296,-0.020845,-0.199240,-0.017474,-0.026591,-0.199240,-1.129542,0.468851,-0.195096,-3.762135,2.352551,-11.617252
1790542053.2270,-0.019521,-0.016256,-0.183329,-0.018907,-0.019357,-0.183329,-0.365847,0.249092,-0.080967,-2.612295,0.790991,-7.037532
1790542053.2408,-0.015320,-0.019876,-0.176276,-0.016396,-0.019720,-0.176276,0.325000,-0.111509,0.095084,-2.152360,1.571771,-5.873196
1790542053.2548,-0.024529,-0.017065,-0.174624,-0.022089,-0.017862,-0.174624,-0.036815,0.445783,0.510320,2.715294,4.323091,-9.443825
1790542053.2686,-0.025573,-0.020566,-0.152691,-0.024528,-0.019755,-0.152691,0.148949,0.098538,0.710654,-2.343999,-0.026969,-12.199420
1790542053.2824,-0.024075,-0.024328,-0.138114,-0.024211,-0.022956,-0.138114,0.247295,-0.253563,0.957125,0.262303,1.162791,-9.560259
1790542053.2963,-0.018957,-0.027724,-0.119474,-0.020533,-0.026294,-0.119474,0.165947,-0.430828,0.790787,-0.772552,0.270471,-10.297672
1790542053.3101,-0.023550,-0.030675,-0.104858,-0.022645,-0.029361,-0.104858,0.181731,0.111894,0.903702,1.718767,0.902531,-9.521448
1790542053.3240,-0.031384,-0.038757,-0.089917,-0.028762,-0.035938,-0.089917,0.531404,0.400859,0.919486,1.028863,0.679451,-10.258860
1790542053.3379,-0.040743,-0.043479,-0.078603,-0.037149,-0.041217,-0.078603,0.351711,0.453067,1.121034,1.565455,1.608951,-8.939280
1790542053.3515,-0.044737,-0.043842,-0.070543,-0.042461,-0.043054,-0.070543,0.088242,0.252734,1.023902,-0.887536,2.426911,-9.016902
1790542053.3651,-0.046927,-0.043449,-0.060884,-0.045587,-0.043331,-0.060884,-0.010103,0.065756,0.997191,-0.005993,2.055111,-10.181238
1790542053.3790,-0.048308,-0.044293,-0.049582,-0.047492,-0.044004,-0.049582,0.034820,0.035403,0.816284,-0.159304,1.162791,-9.366203
1790542053.3929,-0.046695,-0.045132,-0.042241,-0.046934,-0.044793,-0.042241,0.056674,-0.166145,0.597739,-0.005993,1.683311,-11.423196
1790542053.4072,-0.035375,-0.042828,-0.033450,-0.038843,-0.043418,-0.033450,-0.175227,-0.838780,0.529747,-0.197632,1.534591,-11.966553
1790542053.4215,-0.030783,-0.033656,-0.020412,-0.033201,-0.036584,-0.020412,-0.692451,-0.495178,0.494536,2.485326,0.679451,-11.694875
1790542053.4355,-0.022522,-0.021526,-0.005644,-0.025726,-0.026043,-0.005644,-0.930423,-0.844850,0.382835,2.600310,0.456371,-7.503266
1790542053.4494,-0.012346,-0.010656,0.004805,-0.016360,-0.015272,0.004805,-0.827221,-0.971121,0.188573,2.025391,0.493551,-5.756762
1790542053.4634,0.000645,-0.001942,0.010133,-0.004457,-0.005941,0.010133,-0.653599,-0.989333,0.002809,0.837223,1.088431,-10.375294
1790542053.4773,-0.007076,-0.008889,0.017892,-0.006290,-0.008005,0.017892,0.360210,0.553841,-0.363862,2.102047,-0.993649,-18.680889
1790542053.4911,-0.008595,-0.014401,0.001856,-0.007904,-0.012482,0.001856,0.447628,0.337724,-0.906584,-2.075704,3.170511,-13.596623
1790542053.5049,-0.006467,-0.019647,-0.024392,-0.006898,-0.017497,-0.024392,0.479196,0.154388,-1.365529,-1.730752,2.761531,-8.745224
1790542053.5187,-0.016262,-0.025762,-0.043196,-0.013453,-0.023283,-0.043196,0.468268,0.629118,-1.218618,1.450471,0.567911,-3.039979
1790542053.5329,-0.010671,-0.033440,-0.062320,-0.011506,-0.030393,-0.062320,0.647962,-0.217139,-0.684396,-0.925864,1.869211,-5.989630
1790542053.5485,-0.000025,-0.050723,-0.071935,-0.003469,-0.044624,-0.071935,1.077768,-0.540101,-0.889586,-1.232488,0.976891,-14.411658
1790542053.5626,0.012401,-0.053628,-0.105395,0.007640,-0.050927,-0.105395,0.407561,-0.778073,-1.245329,0.185647,4.248731,-8.589979
1790542053.5765,0.026907,-0.056421,-0.130267,0.021127,-0.054773,-0.130267,0.280076,-0.901915,-1.217404,-0.580912,2.724351,-9.366203
1790542053.5901,0.026736,-0.060679,-0.141318,0.025054,-0.058907,-0.141318,0.295860,-0.008307,-1.115416,1.182175,0.976891,-6.377742
1790542053.6044,0.041876,-0.070361,-0.151408,0.036829,-0.066925,-0.151408,0.596968,-0.899487,-0.994002,-1.500784,0.307651,-9.172147
1790542053.6181,0.038296,-0.075859,-0.170582,0.037856,-0.073179,-0.170582,0.467054,0.286730,-0.895656,0.645583,3.728211,-14.062357
1790542053.6316,0.021592,-0.064858,-0.177028,0.026471,-0.067355,-0.177028,-0.901284,1.447450,-0.675897,-4.337055,0.196111,-15.847672
1790542053.6455,0.020395,-0.050637,-0.171934,0.022218,-0.055652,-0.171934,-1.182965,0.338938,-0.658899,-4.337055,-1.365448,-12.277042
1790542053.6595,0.015673,-0.035664,-0.154935,0.017637,-0.041661,-0.154935,-1.350516,0.643688,-0.708678,-2.957247,-2.257768,-6.804665
1790542053.6734,-0.000396,-0.016679,-0.153755,0.005014,-0.024174,-0.153755,-1.543565,1.174268,-0.581193,0.568927,-0.621849,-5.252217
1790542053.6874,-0.008487,-0.001466,-0.155576,-0.004437,-0.008278,-0.155576,-1.270383,1.001860,-0.629759,-3.493839,-1.030829,-5.679140
1790542053.7015,-0.017048,0.006396,-0.160196,-0.013265,0.001994,-0.160196,-0.658455,0.848878,-0.567838,-3.417183,-0.101329,-14.838581
1790542053.7153,-0.011735,-0.013154,-0.158866,-0.012194,-0.008610,-0.158866,1.335166,-0.422329,-0.089466,1.603783,0.456371,-20.699071
1790542053.7293,-0.017520,-0.019568,-0.162632,-0.015922,-0.016281,-0.162632,0.600610,0.227237,0.588025,2.217030,4.583351,-11.617252
1790542053.7433,-0.020729,-0.030695,-0.148759,-0.019287,-0.026371,-0.148759,0.824012,0.092467,1.134389,-0.197632,1.794851,-9.094525
1790542053.7573,-0.006905,-0.047053,-0.128954,-0.010619,-0.040848,-0.128954,1.055913,-0.893416,0.878205,-3.570495,-0.733389,-9.482637
1790542053.7713,-0.020075,-0.051679,-0.137183,-0.017238,-0.048430,-0.137183,0.525333,0.631546,0.743436,2.102047,2.203831,-4.514804
1790542053.7852,-0.035785,-0.064231,-0.128694,-0.030221,-0.059491,-0.128694,0.906574,0.983648,0.806571,1.680439,1.348691,-11.656063
1790542053.7988,-0.054830,-0.075578,-0.123834,-0.047447,-0.070752,-0.123834,0.918715,1.231333,0.942555,1.527127,2.166651,-7.969000
1790542053.8124,-0.072359,-0.076772,-0.123572,-0.064886,-0.074966,-0.123572,0.284933,1.180339,1.000834,0.683911,3.244871,-6.222497
1790542053.8259,-0.075648,-0.085113,-0.111802,-0.072419,-0.082069,-0.111802,0.581184,0.268518,1.025117,-1.309144,1.423051,-11.888930
1790542053.8397,-0.070269,-0.088693,-0.096029,-0.070914,-0.086706,-0.096029,0.197515,-0.546171,1.009333,2.638638,1.088431,-13.790679
1790542053.8536,-0.058735,-0.085047,-0.080989,-0.062389,-0.085545,-0.080989,-0.368275,-0.861848,0.772575,-0.044320,-0.287229,-13.713056
1790542053.8675,-0.052492,-0.082365,-0.054055,-0.055461,-0.083319,-0.054055,-0.394987,-0.718580,0.921914,3.826806,-1.923148,-9.948371
1790542053.8814,-0.042746,-0.072792,-0.035309,-0.046560,-0.075950,-0.035309,-0.813866,-0.975978,0.876991,3.136902,-0.547489,-8.357112
1790542053.8954,-0.038689,-0.059465,-0.018936,-0.041050,-0.064411,-0.018936,-1.094332,-0.684584,0.787145,4.631693,-0.919289,-7.037532
1790542053.9098,-0.028130,-0.039348,-0.001095,-0.032006,-0.046867,-0.001095,-1.543565,-0.932269,0.539460,1.718767,-0.659029,-6.921098
1790542053.9240,-0.013749,-0.020715,0.002199,-0.019226,-0.028560,0.002199,-1.335947,-1.290441,0.479967,2.945262,0.790991,-8.085434
1790542053.9394,-0.000387,-0.005763,0.010250,-0.006039,-0.012602,0.010250,-1.014199,-1.142315,0.475110,2.715294,0.419191,-7.464455
1790542053.9541,-0.015512,-0.008271,0.025634,-0.012670,-0.009570,0.025634,0.002038,0.840379,0.280847,4.899989,-2.183408,-16.701518
1790542053.9686,-0.024795,-0.018763,0.008429,-0.021157,-0.016006,0.008429,0.827655,0.992147,-0.579979,-6.253454,4.100011,-12.703965
1790542053.9831,-0.021056,-0.026595,-0.011200,-0.021087,-0.023418,-0.011200,0.592111,-0.089654,-1.110559,-0.159304,1.794851,-8.978091
1790542053.9984,-0.020806,-0.032021,-0.047694,-0.020890,-0.029440,-0.047694,0.620036,0.081540,-0.374789,-0.504256,3.244871,-5.058161
1790542054.0124,-0.015193,-0.044988,-0.049263,-0.016903,-0.040324,-0.049263,0.909002,-0.270561,-0.385717,-1.730752,1.162791,-12.665154
1790542054.0262,0.005682,-0.064146,-0.058688,-0.001094,-0.056999,-0.058688,1.432297,-1.289226,-0.752387,-2.957247,1.832031,-10.569350
1790542054.0400,0.020010,-0.074415,-0.081502,0.013679,-0.069191,-0.081502,0.866507,-1.014830,-0.911440,0.530599,2.612811,-8.240679
1790542054.0536,0.031618,-0.076433,-0.108723,0.026236,-0.074260,-0.108723,0.339569,-0.786572,-0.949078,-0.082648,2.761531,-5.950818
1790542054.0677,0.036528,-0.080487,-0.113374,0.033441,-0.078619,-0.113374,0.224226,-0.422329,-0.927224,1.258831,0.344831,-6.261308
1790542054.0817,0.028574,-0.080640,-0.137696,0.030034,-0.080034,-0.137696,0.144093,0.627904,-0.766957,-0.235960,3.021791,-8.395923
1790542054.0956,0.006903,-0.073207,-0.135594,0.013842,-0.075255,-0.135594,-0.676667,1.548224,-0.841020,2.446998,-1.439808,-19.651168
1790542054.1097,0.002795,-0.053247,-0.134625,0.006109,-0.059850,-0.134625,-1.526567,0.587837,-0.790026,-5.716862,-0.882109,-14.062357
1790542054.1246,-0.004409,-0.038746,-0.111816,-0.001254,-0.045077,-0.111816,-1.263098,0.796670,-0.664969,-3.263871,-2.889828,-6.765853
1790542054.1401,-0.023039,-0.011275,-0.146703,-0.016503,-0.021416,-0.146703,-1.533852,1.362460,-0.587264,-0.274288,1.534591,-2.302567
1790542054.1561,-0.044918,0.011926,-0.185003,-0.036394,0.001923,-0.185003,-1.124686,1.673280,-0.824022,-1.155832,3.096151,-3.195224
1790542054.1719,-0.027253,0.002940,-0.190918,-0.029995,0.002635,-0.190918,0.516834,-0.935911,-0.709892,-2.612295,1.014071,-21.281238
1790542054.1874,-0.022905,-0.004764,-0.184512,-0.025032,-0.002544,-0.184512,0.519262,-0.396832,0.260207,2.178703,3.282051,-15.847672
1790542054.2030,-0.027222,-0.008689,-0.171585,-0.026565,-0.006846,-0.171585,0.240010,0.115536,0.709440,1.335487,1.832031,-12.044175
1790542054.2186,-0.008094,-0.020590,-0.161441,-0.013635,-0.016467,-0.161441,0.724452,-1.224877,0.448399,-1.194160,0.642271,-7.930189
1790542054.2338,-0.025083,-0.029752,-0.142753,-0.021649,-0.025766,-0.142753,0.616394,0.807597,0.674229,4.210086,1.720491,-9.521448
1790542054.2482,-0.040327,-0.043080,-0.133172,-0.034724,-0.037886,-0.133172,0.929642,0.943581,0.793215,0.875551,1.571771,-11.190329
1790542054.2619,-0.054296,-0.055957,-0.131042,-0.048424,-0.050536,-0.131042,1.055913,0.947223,1.019046,-0.120976,2.352551,-6.610609
1790542054.2756,-0.071812,-0.058012,-0.128799,-0.064796,-0.055769,-0.128799,0.304359,1.193694,1.085824,0.262303,3.356411,-7.464455
1790542054.2896,-0.077726,-0.061381,-0.121373,-0.073847,-0.059697,-0.121373,0.241224,0.451853,1.158672,-1.577440,1.980751,-9.249770
1790542054.3035,-0.064951,-0.065132,-0.098970,-0.067619,-0.063501,-0.098970,0.074886,-0.915271,1.124676,-2.190688,-1.439808,-14.605714
1790542054.3174,-0.058683,-0.061931,-0.078952,-0.061364,-0.062402,-0.078952,-0.371918,-0.565598,0.885490,1.105519,-0.659029,-13.286133
1790542054.3314,-0.055632,-0.057795,-0.043529,-0.057351,-0.059177,-0.043529,-0.511544,-0.493963,1.172028,3.596838,-1.923148,-12.005364
1790542054.3457,-0.052022,-0.050961,-0.011530,-0.053621,-0.053426,-0.011530,-0.669383,-0.592309,0.974123,3.443526,-1.068009,-7.503266
1790542054.3597,-0.032794,-0.041193,0.007122,-0.039042,-0.044863,0.007122,-0.800510,-1.375431,0.903702,-1.040848,0.047391,-6.455364
1790542054.3736,-0.028641,-0.029952,0.025480,-0.031761,-0.034425,0.025480,-0.903712,-0.702796,0.940127,2.830278,-0.026969,-5.368651
1790542054.3875,-0.026109,-0.013994,0.038115,-0.027804,-0.020124,0.038115,-1.206033,-0.400474,0.637805,2.485326,0.828171,-11.229140
1790542054.4014,-0.015010,0.003742,0.049944,-0.018848,-0.003418,0.049944,-1.372371,-1.037899,0.331841,3.251886,0.270471,-11.112707
1790542054.4156,-0.023767,0.008016,0.050490,-0.022291,0.004586,0.050490,-0.354920,0.507704,-0.070040,2.945262,1.051251,-12.742777
1790542054.4300,-0.031724,-0.002309,0.037462,-0.028894,-0.000241,0.037462,0.717168,0.878017,-0.828878,-5.333582,2.464091,-18.331588
1790542054.4442,-0.020153,-0.008070,0.000188,-0.022775,-0.005721,0.000188,0.629749,-0.432042,-0.916297,-4.873646,5.512851,-9.831937
1790542054.4582,-0.030928,-0.016168,-0.015277,-0.028482,-0.013034,-0.015277,0.725667,0.576910,-0.343222,3.903462,3.133331,-7.619700
1790542054.4721,-0.020243,-0.029735,-0.019237,-0.022715,-0.024725,-0.019237,0.930857,-0.508533,-0.613975,-3.608823,0.605091,-12.277042
1790542054.4861,-0.006125,-0.046228,-0.033241,-0.011102,-0.039777,-0.033241,1.205253,-0.779287,-0.902941,-2.688951,1.943571,-12.548721
1790542054.4996,0.001980,-0.056780,-0.045733,-0.001945,-0.051679,-0.045733,0.766947,-0.569240,-1.092347,0.952207,0.790991,-7.386832
1790542054.5132,0.011329,-0.057338,-0.063484,0.007347,-0.055641,-0.063484,0.140450,-0.734364,-0.970933,1.143847,1.534591,-5.174595
1790542054.5272,0.021183,-0.064429,-0.071454,0.017032,-0.061792,-0.071454,0.435487,-0.672442,-1.023141,0.568927,0.233291,-7.619700
1790542054.5412,0.030394,-0.070250,-0.091684,0.026386,-0.067712,-0.091684,0.510763,-0.654230,-0.913868,1.143847,3.579491,-11.966553
1790542054.5555,0.015430,-0.066132,-0.099308,0.018717,-0.066606,-0.099308,-0.373132,1.069852,-0.885943,1.335487,0.344831,-17.865854
1790542054.5713,0.007258,-0.042756,-0.114914,0.010696,-0.049911,-0.114914,-1.490143,0.769959,-0.664969,-3.877119,1.274331,-10.530539
1790542054.5856,0.006078,-0.029870,-0.097342,0.007463,-0.035882,-0.097342,-1.235173,0.459138,-0.660113,-2.727279,-2.257768,-4.243126
1790542054.5995,-0.014245,-0.012692,-0.106063,-0.007732,-0.019649,-0.106063,-1.249743,1.496015,-0.456137,0.492271,0.828171,-5.640329
1790542054.6135,-0.025488,-0.000869,-0.112758,-0.020161,-0.006503,-0.112758,-0.966847,1.067423,-0.736604,-1.539112,-0.435949,-6.843476
1790542054.6276,-0.022221,-0.000999,-0.116657,-0.021603,-0.002650,-0.116657,-0.057455,-0.060515,-0.524129,-1.654096,0.530731,-12.199420
1790542054.6416,-0.016062,-0.012750,-0.111914,-0.017724,-0.009720,-0.111914,0.832511,-0.515818,0.258993,1.028863,2.798711,-19.418301
1790542054.6556,-0.018042,-0.015547,-0.100502,-0.017946,-0.013799,-0.100502,0.144093,-0.088440,0.743436,2.485326,0.753811,-12.199420
1790542054.6703,-0.013417,-0.027167,-0.080810,-0.014776,-0.023157,-0.080810,0.695313,-0.421115,0.940127,-0.465928,-0.212869,-8.745224
1790542054.6843,-0.015783,-0.041021,-0.068898,-0.015481,-0.035662,-0.068898,0.940570,0.210239,0.700941,-1.999048,0.456371,-9.405014
1790542054.6982,-0.033316,-0.052900,-0.061340,-0.027965,-0.047728,-0.061340,0.828869,1.083207,0.795644,1.833751,0.828171,-10.452916
1790542054.7123,-0.049075,-0.060849,-0.055624,-0.042742,-0.056913,-0.055624,0.621250,0.992147,0.915844,0.798895,2.241011,-9.288581
1790542054.7260,-0.065486,-0.063937,-0.054196,-0.058663,-0.061830,-0.054196,0.346854,1.140272,0.936484,0.070663,2.984611,-8.279490
1790542054.7397,-0.075037,-0.066161,-0.043880,-0.070125,-0.064861,-0.043880,0.148949,0.694682,0.963195,-0.772552,1.608951,-10.142427
1790542054.7535,-0.079108,-0.068533,-0.033098,-0.076413,-0.067432,-0.033098,0.141664,0.245449,0.889133,0.108991,1.423051,-10.336483
1790542054.7674,-0.068751,-0.068208,-0.025050,-0.071050,-0.067975,-0.025050,0.004466,-0.813283,0.781074,0.415615,2.575631,-11.345574
1790542054.7812,-0.058619,-0.063084,-0.012613,-0.062348,-0.064551,-0.012613,-0.445980,-0.901915,0.724009,2.293686,0.530731,-11.500819
1790542054.7950,-0.052288,-0.059632,0.004906,-0.055306,-0.061108,0.004906,-0.444766,-0.718580,0.793215,3.980118,-1.923148,-11.617252
1790542054.8089,-0.041363,-0.055771,0.022051,-0.045546,-0.057372,0.022051,-0.484833,-1.033042,0.736151,3.405198,-2.146228,-10.530539
1790542054.8228,-0.034804,-0.044784,0.026609,-0.038026,-0.048561,0.026609,-0.852718,-0.758646,0.596524,2.293686,0.233291,-5.873196
1790542054.8368,-0.028672,-0.031141,0.037747,-0.031478,-0.036367,0.037747,-1.147755,-0.674871,0.368266,2.446998,-1.105189,-7.076343
1790542054.8510,-0.017266,-0.018410,0.046192,-0.021530,-0.023797,0.046192,-1.033625,-0.991762,0.211641,2.600310,-0.844929,-9.599070
1790542054.8650,-0.010430,-0.002203,0.038667,-0.013760,-0.008682,0.038667,-1.181751,-0.712509,0.034377,3.673494,1.162791,-10.336483
1790542054.8789,-0.025331,-0.001279,0.036296,-0.021860,-0.003499,0.036296,-0.197081,0.916870,-0.207238,5.743205,-1.030829,-15.847672
1790542054.8929,-0.033989,-0.011502,0.031918,-0.030350,-0.009101,0.031918,0.708669,0.965435,-0.944222,-3.187215,1.051251,-10.996273
1790542054.9069,-0.019630,-0.010433,-0.042374,-0.022846,-0.010034,-0.042374,0.419703,-0.923770,-0.865303,0.108991,5.364131,-4.049070
1790542054.9213,-0.028299,-0.022787,-0.042939,-0.026663,-0.018961,-0.042939,0.821584,0.463995,-0.362648,2.600310,0.567911,-7.037532
1790542054.9353,-0.017030,-0.043993,-0.047829,-0.019920,-0.036483,-0.047829,1.522144,-0.611735,-0.645543,-2.075704,1.423051,-11.151518
1790542054.9490,-0.001689,-0.060702,-0.066460,-0.007158,-0.053436,-0.066460,1.330309,-1.088893,-0.765743,0.568927,2.724351,-10.414105
1790542054.9626,0.005579,-0.071898,-0.091732,0.001758,-0.066360,-0.091732,0.985493,-0.570454,-0.928438,1.565455,2.984611,-7.930189
1790542054.9762,0.015479,-0.078896,-0.106069,0.011363,-0.075135,-0.106069,0.532618,-0.734364,-0.941794,0.952207,1.199971,-8.357112
1790542054.9901,0.025987,-0.087234,-0.121826,0.021600,-0.083605,-0.121826,0.681958,-0.818139,-0.742674,1.373815,2.055111,-8.667602
1790542055.0042,-0.003915,-0.089168,-0.103215,0.003739,-0.087499,-0.103215,-0.061097,2.003527,-0.741460,4.708349,-2.555208,-14.916203
1790542055.0182,-0.009017,-0.072361,-0.101120,-0.005190,-0.076903,-0.101120,-1.280096,0.593908,-0.645543,-4.567022,-0.361589,-15.071448
1790542055.0320,-0.006957,-0.055678,-0.081913,-0.006427,-0.062045,-0.081913,-1.427007,0.098538,-0.571480,-3.800463,-2.592388,-11.539630
1790542055.0459,-0.002538,-0.038898,-0.066577,-0.003704,-0.045842,-0.066577,-1.459789,0.025689,-0.626117,-3.915447,-2.332128,-7.697322
1790542055.0597,-0.016191,-0.014548,-0.066136,-0.012445,-0.023936,-0.066136,-1.877454,1.062567,-0.476777,0.032335,-0.212869,-6.377742
1790542055.0736,-0.019743,0.011806,-0.080173,-0.017553,0.001084,-0.080173,-1.861670,0.610906,-0.758458,-2.305671,1.274331,-5.795574
1790542055.0874,-0.043591,0.024033,-0.085451,-0.035780,0.017148,-0.085451,-1.053052,1.828690,-0.656470,0.645583,-0.621849,-5.601518
1790542055.1014,-0.034247,0.013956,-0.081338,-0.034707,0.014913,-0.081338,0.640677,-0.526745,-0.374789,-2.382327,0.790991,-21.281238
1790542055.1153,-0.028811,-0.004275,-0.077785,-0.030580,0.001482,-0.077785,1.292671,-0.434470,0.180074,0.568927,2.575631,-17.322497
1790542055.1291,-0.028050,-0.001904,-0.096419,-0.028809,-0.000888,-0.096419,-0.048956,-0.351909,0.522462,3.673494,3.505131,-9.560259
1790542055.1429,-0.015401,-0.009380,-0.085656,-0.019424,-0.006832,-0.085656,0.577541,-0.915271,0.705797,-1.845736,2.092291,-9.055714
1790542055.1569,-0.022051,-0.021478,-0.103733,-0.021263,-0.017084,-0.103733,0.989135,0.036617,0.832068,3.980118,2.166651,-6.183686
1790542055.1714,-0.035120,-0.028596,-0.104289,-0.030963,-0.025143,-0.104289,0.543545,0.625476,0.755577,2.753622,1.832031,-7.852567
1790542055.1851,-0.050201,-0.032549,-0.106194,-0.044430,-0.030327,-0.106194,0.388135,0.986076,0.806571,0.492271,2.501271,-7.852567
1790542055.1988,-0.060229,-0.034544,-0.096680,-0.055489,-0.033279,-0.096680,0.141664,0.665542,0.934056,-0.389272,2.203831,-12.238231
1790542055.2129,-0.064268,-0.032788,-0.086006,-0.061634,-0.032935,-0.086006,-0.138803,0.204168,0.942555,-0.120976,2.203831,-12.160609
1790542055.2269,-0.067661,-0.031824,-0.076081,-0.065853,-0.032157,-0.076081,-0.091451,0.178671,0.816284,-0.082648,1.385871,-8.434735
1790542055.2408,-0.067082,-0.032802,-0.067291,-0.066713,-0.032609,-0.067291,0.044533,-0.150361,0.722795,0.722239,1.423051,-9.249770
1790542055.2548,-0.055729,-0.024831,-0.069273,-0.059024,-0.027165,-0.069273,-0.443552,-0.905558,0.603809,0.568927,4.211551,-10.258860
1790542055.2687,-0.045296,-0.018692,-0.052416,-0.049414,-0.021234,-0.052416,-0.537041,-0.949267,0.602595,3.021918,0.605091,-14.528091
1790542055.2826,-0.030795,-0.008316,-0.038322,-0.036381,-0.012192,-0.038322,-0.810223,-1.272228,0.504250,2.715294,0.902531,-10.646972
1790542055.2966,-0.025119,0.003645,-0.018221,-0.028497,-0.001106,-0.018221,-0.944993,-0.793856,0.309987,3.290214,0.121751,-4.864105
1790542055.3106,-0.016062,0.015753,-0.022894,-0.019792,0.010696,-0.022894,-0.812651,-0.768360,0.040447,1.220503,1.794851,-6.843476
1790542055.3247,-0.031281,0.004448,-0.019213,-0.027835,0.006322,-0.019213,0.697741,1.132987,-0.425783,1.067191,0.047391,-12.160609
1790542055.3387,-0.025317,-0.003920,-0.040747,-0.026073,-0.000847,-0.040747,0.694099,-0.124864,-1.156697,-2.343999,3.542311,-12.432287
1790542055.3526,-0.021944,-0.012669,-0.060651,-0.023182,-0.009122,-0.060651,0.624893,0.053615,-1.653281,-0.695896,1.460231,-12.354665
1790542055.3665,-0.029603,-0.021862,-0.082802,-0.027677,-0.018040,-0.082802,0.741450,0.484635,-0.977004,3.903462,2.464091,-9.754315
1790542055.3805,-0.020568,-0.036425,-0.084418,-0.022700,-0.030910,-0.084418,0.967281,-0.387119,-1.042567,-2.382327,-0.064149,-12.005364
1790542055.3943,-0.005576,-0.052290,-0.100064,-0.010713,-0.045876,-0.100064,1.160329,-0.895844,-1.177337,-1.002520,1.423051,-10.685784
1790542055.4079,0.009764,-0.059976,-0.130807,0.003621,-0.055746,-0.130807,0.720810,-0.901915,-1.276897,-1.385800,2.538451,-6.921098
1790542055.4221,0.014015,-0.066787,-0.145760,0.010897,-0.063475,-0.145760,0.426988,-0.283917,-1.303608,1.297159,0.530731,-7.697322
1790542055.4358,0.021749,-0.071570,-0.168090,0.018494,-0.069141,-0.168090,0.395420,-0.506105,-1.159125,0.415615,1.980751,-9.443825
1790542055.4499,0.000135,-0.071411,-0.165944,0.005643,-0.070730,-0.165944,-0.214079,1.502086,-1.297537,3.980118,-2.294948,-14.644525
1790542055.4639,-0.007268,-0.059734,-0.166961,-0.003395,-0.063033,-0.166961,-0.995987,0.805169,-1.193121,-4.068759,-1.960328,-15.071448
1790542055.4778,-0.008163,-0.050393,-0.158684,-0.006733,-0.054185,-0.158684,-0.925567,0.343795,-1.049852,-2.957247,-3.075728,-10.414105
1790542055.4917,-0.011299,-0.036487,-0.159560,-0.009929,-0.041796,-0.159560,-1.215747,0.578124,-1.009786,-2.727279,-1.625708,-6.804665
1790542055.5056,-0.016204,-0.015464,-0.170066,-0.014322,-0.023364,-0.170066,-1.549636,0.528344,-0.974575,-0.274288,0.419191,-4.902916
1790542055.5195,-0.018935,-0.000919,-0.178199,-0.017551,-0.007653,-0.178199,-1.272811,0.610906,-0.917511,-3.992103,-2.220588,-8.318301
1790542055.5334,-0.025014,0.009728,-0.186238,-0.022775,0.004514,-0.186238,-0.920710,0.812453,-0.946650,-3.455511,-1.179549,-10.181238
1790542055.5474,-0.014516,0.008878,-0.187507,-0.016993,0.007569,-0.187507,-0.070811,-0.526745,-0.690466,-2.803935,-0.844929,-15.847672
1790542055.5613,-0.016208,0.002162,-0.203077,-0.016443,0.003784,-0.203077,0.443986,-0.135791,0.214070,4.133430,0.865351,-11.112707
1790542055.5752,-0.014644,-0.008460,-0.202709,-0.015184,-0.004787,-0.202709,0.740236,-0.348266,0.588025,2.446998,1.162791,-10.724595
1790542055.5892,-0.009016,-0.016331,-0.217041,-0.010866,-0.012868,-0.217041,0.826440,-0.214711,0.673015,-1.807408,1.906391,-2.535434
1790542055.6030,-0.006171,-0.025971,-0.207327,-0.007580,-0.022040,-0.207327,0.627321,-0.123650,0.181288,-1.500784,0.196111,-8.279490
1790542055.6171,-0.019716,-0.038399,-0.209133,-0.016075,-0.033491,-0.209133,0.843438,0.807597,0.308773,3.175230,0.753811,-14.916203
1790542055.6312,-0.036512,-0.049652,-0.215841,-0.030381,-0.044803,-0.215841,0.938141,1.017644,0.659660,1.680439,2.947431,-8.124245
1790542055.6446,-0.054774,-0.052124,-0.217905,-0.047456,-0.049928,-0.217905,0.326214,1.225262,0.824783,0.990535,3.207691,-8.357112
1790542055.6583,-0.064834,-0.056018,-0.214459,-0.059621,-0.054191,-0.214459,0.375994,0.681326,0.788359,0.032335,2.575631,-8.163056
1790542055.6732,-0.067878,-0.064222,-0.201574,-0.065401,-0.061213,-0.201574,0.496194,0.175029,0.737365,-0.159304,0.530731,-7.697322
1790542055.6874,-0.074929,-0.071857,-0.195911,-0.072070,-0.068664,-0.195911,0.541117,0.408144,0.639019,1.067191,1.460231,-9.405014
1790542055.7013,-0.065801,-0.074972,-0.184232,-0.067682,-0.073080,-0.184232,0.207228,-0.615378,0.702155,-1.884064,2.203831,-16.041728
1790542055.7153,-0.061347,-0.065193,-0.176956,-0.063248,-0.067559,-0.176956,-0.766514,-0.536458,0.547959,4.555037,0.456371,-13.596623
1790542055.7292,-0.056381,-0.054978,-0.164099,-0.058441,-0.058752,-0.164099,-0.889142,-0.623877,0.598953,4.248414,-1.105189,-10.608161
1790542055.7430,-0.049503,-0.038294,-0.161954,-0.052184,-0.044432,-0.161954,-1.252171,-0.910414,0.488466,5.053301,0.382011,-6.649420
1790542055.7571,-0.039770,-0.018117,-0.150268,-0.043494,-0.026011,-0.150268,-1.582417,-0.979620,0.277205,2.638638,-0.510309,-5.562707
1790542055.7722,-0.019558,-0.003610,-0.139701,-0.026739,-0.010330,-0.139701,-1.032411,-1.504130,0.330627,1.488799,0.419191,-8.085434
1790542055.7885,-0.006812,0.008981,-0.148816,-0.012790,0.003188,-0.148816,-0.685166,-1.090107,0.387692,3.941790,2.575631,-7.891378
1790542055.8030,-0.025290,-0.003505,-0.124447,-0.021540,-0.001497,-0.124447,0.578755,1.249545,-0.243662,2.676966,-4.153948,-14.062357
1790542055.8182,-0.030124,-0.007885,-0.145745,-0.027549,-0.005969,-0.145745,0.375994,0.500419,-0.913868,-0.772552,4.360271,-15.614805
1790542055.8321,-0.031146,-0.017023,-0.158293,-0.030067,-0.013707,-0.158293,0.664960,0.252734,-1.036497,-0.159304,1.534591,-12.044175
1790542055.8461,-0.030386,-0.029691,-0.148730,-0.030290,-0.024896,-0.148730,0.811871,0.247877,-0.584836,-2.037376,-0.101329,-5.912007
1790542055.8601,-0.020004,-0.047331,-0.147692,-0.023090,-0.040601,-0.147692,1.233178,-0.544957,-0.560553,-2.037376,0.679451,-9.870749
1790542055.8738,-0.007163,-0.063972,-0.159243,-0.011941,-0.056960,-0.159243,1.287814,-0.721008,-0.828878,-2.267343,2.055111,-9.754315
1790542055.8874,0.005841,-0.069399,-0.187685,0.000506,-0.065667,-0.187685,0.593325,-0.892202,-0.825236,-0.082648,3.133331,-7.503266
1790542055.9013,0.014084,-0.074989,-0.203350,0.010011,-0.072193,-0.203350,0.401491,-0.591095,-0.893228,0.798895,0.902531,-7.930189
1790542055.9155,0.013740,-0.082487,-0.218019,0.012621,-0.079399,-0.218019,0.576327,0.057257,-0.621260,0.032335,1.571771,-8.784035
1790542055.9297,-0.006700,-0.077369,-0.226757,-0.000904,-0.077978,-0.226757,-0.391344,1.566436,-0.705036,-2.190688,1.162791,-19.806413
1790542055.9436,-0.014043,-0.061487,-0.224660,-0.010102,-0.066434,-0.224660,-1.258242,0.819738,-0.786383,-5.295254,-1.291089,-14.450469
1790542055.9575,-0.012118,-0.048445,-0.217074,-0.011513,-0.053842,-0.217074,-1.169609,0.199312,-0.715963,-3.838791,-2.443668,-8.240679
1790542055.9714,-0.014493,-0.030836,-0.218730,-0.013599,-0.037738,-0.218730,-1.514426,0.592694,-0.668612,-1.692424,-0.956469,-2.496623
1790542055.9854,-0.023945,-0.008171,-0.227985,-0.020841,-0.017041,-0.227985,-1.589702,0.828237,-0.649185,-0.542584,1.385871,-7.192776
1790542055.9992,-0.029548,0.006456,-0.230084,-0.026936,-0.000593,-0.230084,-1.220603,0.750532,-0.548412,-3.417183,-1.142369,-8.318301
1790542056.0134,-0.020993,0.001988,-0.229672,-0.022776,0.001214,-0.229672,0.141664,-0.359194,-0.412428,-5.563550,-2.778288,-18.564455
1790542056.0289,-0.022038,-0.004150,-0.237654,-0.022259,-0.002541,-0.237654,0.414846,-0.164931,0.470254,3.251886,2.203831,-11.229140
1790542056.0765,-0.063661,-0.041129,-0.223331,-0.051240,-0.029553,-0.223331,0.763305,0.752961,0.625664,2.638638,1.237151,-9.909560
1790542056.0905,-0.079590,-0.056646,-0.217845,-0.071085,-0.048518,-0.217845,1.098408,1.017644,0.743436,1.642111,1.980751,-13.053266
1790542056.1042,-0.097997,-0.061611,-0.217477,-0.089923,-0.057683,-0.217477,0.458555,1.179124,0.942555,1.680439,2.798711,-8.124245
1790542056.1179,-0.106120,-0.065989,-0.202539,-0.101261,-0.063497,-0.202539,0.327428,0.629118,0.992335,-0.849208,2.017931,-8.473546
1790542056.1320,-0.108040,-0.073399,-0.186095,-0.106006,-0.070428,-0.186095,0.418489,0.124035,0.919486,-0.120976,0.567911,-9.405014
1790542056.1458,-0.112385,-0.078681,-0.174494,-0.110472,-0.076205,-0.174494,0.314072,0.275803,0.778646,0.492271,0.828171,-8.551168
1790542056.1598,-0.112998,-0.084485,-0.161857,-0.112240,-0.082001,-0.161857,0.365066,0.039045,0.776217,0.147319,1.237151,-10.142427
1790542056.1742,-0.102722,-0.083223,-0.155552,-0.105577,-0.082857,-0.155552,-0.007675,-0.763503,0.653589,0.722239,2.947431,-9.133336
1790542056.1882,-0.089921,-0.080516,-0.140275,-0.094618,-0.081218,-0.140275,-0.248075,-0.889774,0.828426,-1.002520,1.869211,-16.119350
1790542056.2021,-0.081070,-0.070094,-0.135152,-0.085135,-0.073431,-0.135152,-0.822365,-0.767145,0.526104,2.715294,0.567911,-13.713056
1790542056.2163,-0.075697,-0.056607,-0.134200,-0.078529,-0.061654,-0.134200,-1.158682,-0.611735,0.524890,3.865134,-1.923148,-11.112707
1790542056.2301,-0.068708,-0.037953,-0.144801,-0.071654,-0.045063,-0.144801,-1.462217,-0.852135,0.246851,3.711822,-0.361589,-6.222497
1790542056.2439,-0.059057,-0.017918,-0.140664,-0.062836,-0.026061,-0.140664,-1.600630,-0.787786,0.069587,0.798895,-0.361589,-5.019350
1790542056.2580,-0.046389,0.007169,-0.143862,-0.051323,-0.002800,-0.143862,-1.862884,-1.081608,0.029520,1.258831,0.270471,-4.437182
1790542056.2718,-0.044684,0.020509,-0.147431,-0.046676,0.013516,-0.147431,-1.134399,-0.213497,-0.346864,5.359925,-1.997508,-20.155714
1790542056.2856,-0.038546,0.007846,-0.135252,-0.040985,0.009547,-0.135252,0.799729,-0.052016,-0.799739,-5.946830,-0.696209,-17.012007
1790542056.2996,-0.035872,0.007461,-0.144872,-0.037406,0.008087,-0.144872,0.159876,0.100966,-0.921153,-3.455511,6.293630,-17.671798
1790542056.3134,-0.041147,-0.004304,-0.145940,-0.040025,-0.000587,-0.145940,0.735380,0.572053,-0.604262,-0.772552,-0.398769,-8.784035
1790542056.3273,-0.035847,-0.007530,-0.166891,-0.037100,-0.005447,-0.166891,0.456127,0.352294,-1.051066,-2.995575,1.199971,-1.215853
1790542056.3410,-0.022066,-0.021346,-0.165426,-0.026576,-0.016576,-0.165426,0.928428,-0.676085,-0.748745,-2.535639,-0.064149,-7.425644
1790542056.3546,-0.015917,-0.028056,-0.184670,-0.019115,-0.024612,-0.184670,0.681958,-0.411402,-0.905369,0.990535,3.393591,-7.619700
1790542056.3685,-0.010782,-0.025516,-0.200435,-0.013282,-0.025245,-0.200435,0.011751,-0.246278,-0.955149,-0.005993,3.467951,-7.386832
1790542056.3823,-0.005708,-0.025848,-0.212257,-0.007980,-0.025667,-0.212257,0.048175,-0.219567,-0.952721,-0.389272,1.832031,-10.142427
1790542056.3962,0.001557,-0.028796,-0.221159,-0.001304,-0.027857,-0.221159,0.263078,-0.293630,-0.941794,-1.769080,2.241011,-9.754315
1790542056.4101,-0.010025,-0.025118,-0.236996,-0.007408,-0.025940,-0.236996,0.003252,0.887730,-0.577551,0.415615,6.033370,-9.327392
1790542056.4245,-0.024242,-0.015981,-0.245015,-0.019192,-0.018969,-0.245015,-0.584393,1.139058,-0.508345,-1.539112,3.467951,-15.420749
1790542056.4385,-0.028943,-0.000556,-0.249841,-0.026017,-0.006079,-0.249841,-1.042124,0.659472,-0.434282,-3.685479,2.278191,-8.939280
1790542056.4525,-0.028774,-0.000395,-0.251621,-0.027947,-0.002100,-0.251621,-0.062312,0.212667,-0.167171,-2.190688,0.530731,-7.270399
1790542056.4665,-0.022558,-0.005721,-0.246921,-0.024175,-0.004635,-0.246921,0.328642,-0.372549,0.224997,-1.347472,0.679451,-8.163056
1790542056.4806,-0.031915,-0.013990,-0.247154,-0.029593,-0.011184,-0.247154,0.468268,0.445783,0.648733,2.715294,-0.361589,-12.471098
1790542056.4945,-0.038310,-0.027935,-0.239252,-0.035695,-0.022910,-0.239252,0.816727,0.304942,1.006904,0.645583,-1.737248,-13.751868
1790542056.5084,-0.043686,-0.038799,-0.224812,-0.041289,-0.034033,-0.224812,0.731737,0.380219,0.872135,-1.424128,0.939711,-10.918651
1790542056.5222,-0.054928,-0.047136,-0.216307,-0.050837,-0.043205,-0.216307,0.522905,0.665542,0.910987,0.875551,0.344831,-8.279490
1790542056.5361,-0.066401,-0.059839,-0.204516,-0.061732,-0.054849,-0.204516,0.802158,0.701967,1.074896,0.683911,0.047391,-10.025993
1790542056.5501,-0.076787,-0.075301,-0.186693,-0.072270,-0.069165,-0.186693,1.025560,0.623047,1.345650,0.568927,0.716631,-9.405014
1790542056.5636,-0.088701,-0.084928,-0.164799,-0.083772,-0.080199,-0.164799,0.791230,0.841593,1.278872,-0.159304,2.984611,-8.745224
1790542056.5771,-0.097361,-0.093297,-0.141950,-0.093285,-0.089368,-0.141950,0.576327,0.769959,1.263088,-2.267343,1.348691,-8.628791
1790542056.5910,-0.088891,-0.099235,-0.125796,-0.090209,-0.096275,-0.125796,0.283719,-0.632376,1.147745,-0.159304,-0.138509,-14.993826
1790542056.6048,-0.083777,-0.097286,-0.119982,-0.085707,-0.096983,-0.119982,-0.265073,-0.512176,0.800500,2.868606,-0.398769,-13.829490
1790542056.6188,-0.079425,-0.098604,-0.122672,-0.081309,-0.098118,-0.122672,-0.153372,-0.498820,0.756791,3.865134,-3.447528,-13.519000
1790542056.6327,-0.071194,-0.092109,-0.125834,-0.074228,-0.093912,-0.125834,-0.647528,-0.923770,0.838139,4.938317,-1.402628,-9.133336
1790542056.6469,-0.067436,-0.080822,-0.122473,-0.069474,-0.084749,-0.122473,-0.942565,-0.643303,1.044543,4.746677,-0.584669,-8.007811
1790542056.6610,-0.061118,-0.062988,-0.115080,-0.063625,-0.069516,-0.115080,-1.346874,-0.657873,0.856351,1.297159,0.196111,-5.019350
1790542056.6749,-0.054371,-0.041439,-0.110217,-0.057147,-0.049862,-0.110217,-1.632197,-0.705224,0.662088,1.948735,0.233291,-7.153965
1790542056.6890,-0.045949,-0.017871,-0.106673,-0.049308,-0.027468,-0.106673,-1.827674,-0.848493,0.415617,2.983590,-0.733389,-8.628791
1790542056.7032,-0.030382,0.005711,-0.101526,-0.036060,-0.004243,-0.101526,-1.831317,-1.417926,0.345197,3.596838,-0.844929,-7.969000
1790542056.7174,-0.028481,0.020866,-0.100556,-0.030754,0.013333,-0.100556,-1.191464,-0.400474,0.244423,6.203141,-0.584669,-15.886483
1790542056.7314,-0.050584,-0.003644,-0.096318,-0.044635,0.001449,-0.096318,1.610776,1.754628,-0.408785,-1.385800,-1.885968,-20.427392
1790542056.7454,-0.033155,-0.013465,-0.083050,-0.036599,-0.008991,-0.083050,0.820370,-0.850921,-0.853161,-7.786573,5.810290,-17.477742
1790542056.7594,-0.047328,-0.026457,-0.098548,-0.044109,-0.021217,-0.098548,0.882291,0.921726,-0.363862,2.676966,0.344831,-9.793126
1790542056.7734,-0.046399,-0.037600,-0.088221,-0.045712,-0.032685,-0.088221,0.830083,0.196883,-0.383288,-2.229015,1.199971,-7.464455
1790542056.7873,-0.028707,-0.053321,-0.082294,-0.033808,-0.047130,-0.082294,1.187041,-1.023329,-0.565410,-3.378855,2.315371,-12.082986
1790542056.8009,-0.013827,-0.067210,-0.090584,-0.019821,-0.061186,-0.090584,1.265960,-0.932269,-0.833735,-0.925864,3.319231,-6.494175
1790542056.8145,-0.004069,-0.066443,-0.109732,-0.008795,-0.064866,-0.109732,0.241224,-0.734364,-0.764529,0.913879,4.100011,-6.222497
1790542056.8285,0.003605,-0.071631,-0.122614,-0.000115,-0.069602,-0.122614,0.414846,-0.549814,-0.729319,0.798895,1.571771,-9.016902
1790542056.8424,0.015960,-0.075333,-0.131759,0.011138,-0.073614,-0.131759,0.343212,-0.787786,-0.751173,-0.925864,2.501271,-10.491728
1790542056.8563,0.000204,-0.077509,-0.143532,0.003484,-0.076341,-0.143532,0.165947,1.130559,-0.584836,1.143847,1.869211,-15.226693
1790542056.8701,-0.019551,-0.056729,-0.153064,-0.012640,-0.062613,-0.153064,-1.342017,1.519084,-0.473135,-0.619240,4.583351,-11.811308
1790542056.8840,-0.017711,-0.039298,-0.146503,-0.016190,-0.046293,-0.146503,-1.496213,0.233308,-0.476777,-4.030431,-2.480848,-6.998721
1790542056.8979,-0.026240,-0.023178,-0.147203,-0.023225,-0.030112,-0.147203,-1.284953,0.930225,-0.459779,-1.999048,-0.435949,-4.941727
1790542056.9118,-0.030532,-0.010927,-0.151670,-0.028340,-0.016683,-0.151670,-1.095547,0.610906,-0.433068,-1.692424,-1.068009,-4.398371
1790542056.9257,-0.037591,-0.001093,-0.152347,-0.034816,-0.005770,-0.152347,-0.685166,0.717750,-0.406357,-1.194160,1.088431,-6.144874
1790542056.9400,-0.032293,-0.015461,-0.149538,-0.033050,-0.012553,-0.149538,0.992778,-0.365264,0.081728,-0.274288,2.129471,-16.468651
1790542056.9542,-0.028387,-0.024288,-0.142915,-0.029786,-0.020768,-0.142915,0.586040,-0.490321,0.822355,2.217030,1.497411,-13.169700
1790542056.9682,-0.032373,-0.028425,-0.133981,-0.031597,-0.026128,-0.133981,0.286147,0.023261,1.102822,2.600310,1.943571,-12.898021
1790542056.9822,-0.023703,-0.037517,-0.118652,-0.026071,-0.034100,-0.118652,0.589683,-0.705224,0.934056,-0.504256,0.605091,-10.142427
1790542056.9961,-0.030747,-0.047547,-0.107682,-0.029344,-0.043513,-0.107682,0.752378,0.330439,0.998405,1.143847,1.906391,-10.025993
1790542057.0099,-0.052191,-0.059782,-0.097197,-0.045337,-0.054901,-0.097197,0.916287,1.304181,1.266731,2.370342,2.166651,-10.258860
1790542057.0235,-0.063319,-0.068939,-0.074952,-0.057925,-0.064728,-0.074952,0.706240,0.825809,1.276444,-1.040848,1.683311,-7.425644
1790542057.0371,-0.076956,-0.072475,-0.056266,-0.071246,-0.070151,-0.056266,0.329856,0.873161,1.328652,0.837223,3.207691,-9.831937
1790542057.0509,-0.080023,-0.076219,-0.037476,-0.077390,-0.074398,-0.037476,0.131951,0.207811,1.257018,-1.002520,-0.026969,-11.539630
1790542057.0649,-0.070933,-0.078844,-0.018816,-0.072870,-0.077510,-0.018816,0.084600,-0.725865,1.235163,0.032335,0.605091,-12.277042
1790542057.0788,-0.064804,-0.074845,-0.006241,-0.067224,-0.075644,-0.006241,-0.404700,-0.592309,1.116177,1.680439,0.047391,-12.199420
1790542057.0928,-0.062507,-0.069923,-0.004223,-0.063922,-0.071639,-0.004223,-0.592892,-0.467252,1.157458,4.171758,-2.443668,-10.957462
1790542057.1068,-0.048957,-0.060626,0.002051,-0.053446,-0.063930,0.002051,-0.819936,-1.233376,0.998405,2.791950,-0.770569,-9.055714
1790542057.1208,-0.041794,-0.048014,0.000180,-0.045290,-0.052789,0.000180,-1.012985,-1.029400,0.931628,4.248414,-0.287229,-4.747672
1790542057.1347,-0.038771,-0.033403,0.005906,-0.040726,-0.039219,0.005906,-1.180536,-0.629947,0.906131,3.711822,-0.398769,-6.610609
1790542057.1487,-0.028991,-0.016138,0.012613,-0.032512,-0.023063,0.012613,-1.339589,-1.007545,0.713082,3.213558,-0.101329,-9.016902
1790542057.1628,-0.022075,0.002946,0.010552,-0.025206,-0.004856,0.010552,-1.359015,-0.752576,0.301488,3.711822,1.608951,-10.220049
1790542057.1771,-0.031939,0.000073,0.011170,-0.029919,-0.001406,0.011170,0.065173,0.686183,-0.215737,1.757095,-1.142369,-16.585084
1790542057.1913,-0.013044,-0.015367,0.079527,-0.018107,-0.011179,0.079527,1.048628,-0.626305,-0.848305,-8.246509,0.047391,-4.902916
1790542057.2053,-0.024984,-0.020342,0.035087,-0.022921,-0.017593,0.035087,0.544759,0.607263,-0.511987,3.213558,2.612811,-5.019350
1790542057.2194,-0.031305,-0.036247,0.040279,-0.028790,-0.030651,0.040279,1.134833,0.709251,-0.365076,-2.497311,0.939711,-7.930189
1790542057.2333,-0.010633,-0.054283,0.047720,-0.016080,-0.047193,0.047720,1.259889,-1.090107,-0.702608,-4.605350,0.233291,-7.969000
1790542057.2472,-0.007246,-0.069681,0.020270,-0.009896,-0.062935,0.020270,1.136047,-0.344624,-0.974575,2.715294,1.311511,-8.512357
1790542057.2608,0.006742,-0.074560,0.007220,0.001751,-0.071072,0.007220,0.447628,-0.903129,-1.059565,-0.695896,2.278191,-9.094525
1790542057.2744,0.018059,-0.076463,-0.009403,0.013166,-0.074846,-0.009403,0.258222,-0.780501,-0.998858,0.108991,2.166651,-6.804665
1790542057.2883,0.028416,-0.087355,-0.019876,0.023841,-0.083602,-0.019876,0.714739,-0.643303,-0.927224,-0.772552,0.158931,-9.366203
1790542057.3022,0.026960,-0.088925,-0.031355,0.026024,-0.087328,-0.031355,0.358996,0.212667,-0.586050,-1.577440,5.587211,-9.715504
1790542057.3161,-0.005931,-0.080789,-0.041463,0.003655,-0.082751,-0.041463,-0.646314,2.349557,-0.451280,1.258831,0.047391,-16.391028
1790542057.3300,-0.009578,-0.059875,-0.038688,-0.005608,-0.066738,-0.038688,-1.577561,0.667971,-0.532628,-8.591461,-0.473129,-12.587532
1790542057.3439,-0.012375,-0.043500,-0.041592,-0.010345,-0.050471,-0.041592,-1.308021,0.524702,-0.555696,-2.880591,-0.733389,-6.338930
1790542057.3579,-0.026299,-0.025283,-0.044052,-0.021513,-0.032839,-0.044052,-1.371157,1.287183,-0.397858,-1.539112,0.010211,-4.010259
1790542057.3719,-0.035844,-0.011527,-0.046198,-0.031544,-0.017920,-0.046198,-0.991130,1.056496,-0.440353,-3.187215,0.605091,-5.989630
1790542057.3857,-0.041922,-0.010228,-0.052267,-0.038809,-0.012536,-0.052267,-0.212865,0.672827,-0.291013,-2.152360,-0.510309,-7.930189
1790542057.3996,-0.034110,-0.019684,-0.039334,-0.035520,-0.017540,-0.039334,0.768162,-0.453897,0.234710,-2.688951,3.467951,-11.811308
1790542057.4136,-0.027421,-0.021516,-0.028490,-0.029851,-0.020323,-0.028490,0.139236,-0.582596,0.649947,0.300631,1.794851,-10.025993
1790542057.4279,-0.025255,-0.029496,-0.017732,-0.026634,-0.026744,-0.017732,0.524119,-0.425971,1.189026,2.600310,1.497411,-13.674245
1790542057.4420,-0.029089,-0.044642,-0.014046,-0.028353,-0.039273,-0.014046,1.034059,0.068184,0.770147,1.297159,0.530731,-6.804665
1790542057.4559,-0.044848,-0.054451,-0.013415,-0.039900,-0.049897,-0.013415,0.756020,0.806383,0.955910,3.750150,2.129471,-8.745224
1790542057.4697,-0.058198,-0.064963,0.000399,-0.052709,-0.060443,0.000399,0.756020,0.865876,1.023902,0.453943,1.497411,-9.909560
1790542057.4833,-0.073092,-0.073534,0.018165,-0.066977,-0.069606,0.018165,0.678315,0.958151,1.266731,0.798895,2.166651,-7.930189
1790542057.4970,-0.083156,-0.076464,0.040474,-0.078303,-0.074407,0.040474,0.267935,0.739605,1.272802,-1.002520,2.835891,-9.249770
1790542057.5109,-0.082798,-0.079674,0.060059,-0.081449,-0.078094,0.060059,0.158662,0.018405,1.203595,-1.807408,1.125611,-10.685784
1790542057.5247,-0.079301,-0.082034,0.074492,-0.079946,-0.080852,0.074492,0.066387,-0.241422,1.010547,-1.117504,0.344831,-12.703965
1790542057.5387,-0.071260,-0.081720,0.084471,-0.073866,-0.081460,0.084471,-0.157015,-0.676085,0.952268,1.258831,-0.435949,-13.674245
1790542057.5526,-0.070463,-0.076425,0.088895,-0.071484,-0.077935,0.088895,-0.493332,-0.305771,0.944983,4.018446,-0.026969,-11.811308
1790542057.5664,-0.062985,-0.069102,0.093819,-0.065535,-0.071752,0.093819,-0.702164,-0.758646,0.957125,2.523654,-0.956469,-9.754315
1790542057.5805,-0.049504,-0.055249,0.098266,-0.054313,-0.060200,0.098266,-1.104046,-1.179954,0.759219,2.025391,-0.212869,-7.542077
1790542057.5945,-0.038081,-0.036155,0.096782,-0.042951,-0.043368,0.096782,-1.452504,-1.092535,0.465397,2.906934,0.047391,-7.386832
1790542057.6084,-0.023889,-0.017065,0.098123,-0.029608,-0.024956,0.098123,-1.395440,-1.195738,0.296631,1.833751,0.939711,-8.240679
1790542057.6224,-0.020186,-0.008322,0.097712,-0.023012,-0.013312,0.097712,-0.539469,-0.422329,0.155791,2.063719,2.761531,-8.861658
1790542057.6362,-0.036697,-0.022267,0.086451,-0.032592,-0.019580,0.086451,0.865293,1.149985,-0.426997,3.136902,-1.625708,-14.295224
1790542057.6501,-0.029239,-0.031989,0.089153,-0.030245,-0.028266,0.089153,0.796087,-0.058086,-1.217404,-6.330110,2.835891,-11.112707
1790542057.6643,-0.028334,-0.037595,0.074842,-0.028907,-0.034797,0.074842,0.641891,0.104609,-1.245329,-0.005993,3.653851,-6.610609
1790542057.6788,-0.032015,-0.045894,0.059040,-0.031083,-0.042565,0.059040,0.658889,0.096110,-0.632187,5.014973,2.835891,-10.724595
1790542057.6928,-0.018088,-0.059929,0.053998,-0.021986,-0.054720,0.053998,0.991564,-0.748933,-0.781527,-3.532167,0.902531,-13.130889
1790542057.7070,-0.002801,-0.074268,0.046230,-0.008557,-0.068404,0.046230,1.065626,-0.860634,-0.924796,-2.190688,1.683311,-9.210958
1790542057.7208,0.007511,-0.079161,0.035236,0.002691,-0.075934,0.035236,0.468268,-0.553456,-1.128772,-1.692424,2.724351,-8.978091
1790542057.7345,0.014898,-0.080969,0.020574,0.011236,-0.079458,0.020574,0.163519,-0.474537,-1.138485,0.147319,1.311511,-7.464455
1790542057.7486,0.018748,-0.081641,0.006103,0.016494,-0.080986,0.006103,0.077315,-0.172216,-1.121487,-0.427600,1.608951,-8.745224
1790542057.7625,0.002164,-0.082201,-0.009725,0.006463,-0.081836,-0.009725,0.015394,1.332106,-1.078992,-1.654096,1.497411,-18.176343
1790542057.7765,-0.010571,-0.068140,-0.022145,-0.005461,-0.072249,-0.022145,-1.056694,1.103848,-0.820379,-2.842263,0.196111,-14.101168
1790542057.7904,-0.016570,-0.054924,-0.035260,-0.013237,-0.060122,-0.035260,-1.142898,0.660686,-0.649185,-2.650623,-2.146228,-9.987182
1790542057.8041,-0.018093,-0.037641,-0.038177,-0.016636,-0.044385,-0.038177,-1.280096,0.564769,-0.565410,-2.573967,0.196111,-3.311658
1790542057.8179,-0.032184,-0.016835,-0.044456,-0.027519,-0.025100,-0.044456,-1.424579,1.095349,-0.526557,0.185647,1.460231,-5.368651
1790542057.8318,-0.036388,-0.007650,-0.058784,-0.033728,-0.012885,-0.058784,-0.806581,0.706823,-0.537484,-5.103614,-1.328269,-8.745224
1790542057.8456,-0.025804,-0.009992,-0.064398,-0.028181,-0.010860,-0.064398,0.053032,-0.671228,-0.170813,-2.229015,-0.659029,-18.680889
1790542057.8594,-0.020378,-0.012565,-0.051951,-0.022719,-0.012054,-0.051951,0.219369,-0.475751,0.629306,-0.274288,2.835891,-13.208511
1790542057.8733,-0.023140,-0.020034,-0.035348,-0.023014,-0.017640,-0.035348,0.571471,-0.009521,1.113749,0.607255,1.497411,-6.843476
1790542057.8871,-0.020091,-0.036370,-0.028996,-0.020968,-0.030751,-0.028996,1.120263,-0.395618,0.783502,0.645583,0.233291,-5.756762
1790542057.9009,-0.032184,-0.046914,-0.023034,-0.028819,-0.042065,-0.023034,0.830083,0.574482,0.687585,3.673494,2.315371,-8.861658
1790542057.9147,-0.047965,-0.058346,-0.015341,-0.042221,-0.053462,-0.015341,0.839796,1.011573,0.713082,1.642111,1.683311,-11.539630
1790542057.9289,-0.068348,-0.071038,-0.001277,-0.060510,-0.065766,-0.001277,0.936927,1.322393,0.932842,0.952207,1.980751,-8.745224
1790542057.9427,-0.082745,-0.075722,0.019508,-0.076074,-0.072735,0.019508,0.416060,0.972720,1.134389,0.185647,2.798711,-8.473546
1790542057.9565,-0.088322,-0.081947,0.037809,-0.084647,-0.079183,0.037809,0.414846,0.404502,1.170814,-0.695896,1.385871,-9.094525
1790542057.9705,-0.094573,-0.087190,0.054540,-0.091595,-0.084788,0.054540,0.335927,0.420286,1.056684,-0.082648,1.348691,-9.210958
1790542057.9844,-0.079520,-0.093475,0.067543,-0.083143,-0.090869,0.067543,0.312858,-1.014830,1.043329,-2.190688,-0.212869,-12.548721
1790542057.9982,-0.074820,-0.088994,0.078832,-0.077317,-0.089556,0.078832,-0.408342,-0.458753,0.908559,2.293686,0.605091,-15.537182
1790542058.0123,-0.070551,-0.081873,0.081492,-0.072581,-0.084178,0.081492,-0.725233,-0.520675,0.924343,3.251886,-2.071868,-10.569350
1790542058.0263,-0.062451,-0.068789,0.085161,-0.065490,-0.073405,0.085161,-1.080977,-0.854564,0.733722,3.826806,-0.733389,-9.249770
1790542058.0400,-0.046733,-0.054368,0.090542,-0.052360,-0.060079,0.090542,-1.187821,-1.325651,0.658446,1.948735,-0.621849,-8.978091
1790542058.0539,-0.041472,-0.036776,0.094209,-0.044738,-0.043767,0.094209,-1.351730,-0.708867,0.580741,2.983590,0.047391,-6.028441
1790542058.0679,-0.027860,-0.017096,0.100577,-0.032923,-0.025098,0.100577,-1.382084,-1.245517,0.450827,2.523654,1.534591,-6.882287
1790542058.0818,-0.018512,-0.005982,0.104206,-0.022835,-0.011717,0.104206,-0.856361,-0.865491,0.325771,3.673494,1.051251,-15.770049
1790542058.0962,-0.027147,-0.015977,0.099553,-0.025854,-0.014699,0.099553,0.634606,0.671613,-0.266731,-0.427600,0.679451,-17.555364
1790542058.1116,-0.021922,-0.021930,0.088584,-0.023102,-0.019761,0.088584,0.499836,-0.118793,-1.018285,-1.960720,4.880791,-14.566903
1790542058.1262,-0.026378,-0.028641,0.076971,-0.025395,-0.025977,0.076971,0.646747,0.363221,-0.894442,0.837223,2.761531,-5.834385
1790542058.1405,-0.036273,-0.044472,0.068491,-0.033010,-0.038924,0.068491,1.070483,0.644902,-0.420927,1.105519,0.196111,-5.368651
1790542058.1551,-0.019677,-0.056134,0.066213,-0.023677,-0.050971,0.066213,0.786374,-0.838780,-0.718391,-4.682006,0.753811,-11.772497
1790542058.1693,-0.015435,-0.070383,0.049410,-0.017908,-0.064559,0.049410,0.993992,-0.207426,-1.167624,0.492271,0.753811,-11.578441
1790542058.1827,-0.002254,-0.071847,0.036644,-0.006950,-0.069661,0.036644,0.270363,-0.876418,-1.207691,-0.044320,3.170511,-8.589979
1790542058.1965,0.003193,-0.068735,0.023079,0.000150,-0.069013,0.023079,-0.106021,-0.411402,-1.074135,1.833751,3.319231,-10.220049
1790542058.2108,0.013068,-0.073948,0.010975,0.009193,-0.072468,0.010975,0.332285,-0.615378,-0.905369,-0.235960,0.605091,-10.103616
1790542058.2249,0.009691,-0.074831,0.004825,0.009541,-0.074122,0.004825,0.199943,0.403288,-0.575123,-2.382327,3.839751,-10.685784
1790542058.2388,-0.021334,-0.061713,-0.004149,-0.012071,-0.065436,-0.004149,-0.887928,2.217216,-0.485276,1.642111,2.687171,-13.363756
1790542058.2528,-0.021682,-0.043570,-0.012580,-0.018799,-0.050130,-0.012580,-1.369943,0.478564,-0.662541,-7.326637,-0.547489,-9.405014
1790542058.2667,-0.026465,-0.034519,-0.026251,-0.024165,-0.039203,-0.026251,-0.907354,0.640045,-0.622474,-2.229015,-2.109048,-5.912007
1790542058.2806,-0.042739,-0.018719,-0.030385,-0.037167,-0.024864,-0.030385,-1.036054,1.309038,-0.406357,-0.427600,1.311511,-4.553616
1790542058.2944,-0.050599,-0.009068,-0.037427,-0.046569,-0.013807,-0.037427,-0.798082,0.905942,-0.371147,-3.838791,-0.510309,-8.551168
1790542058.3083,-0.043846,-0.011896,-0.039652,-0.044663,-0.012469,-0.039652,0.105240,-0.317913,-0.091894,-3.838791,-0.250049,-16.429840
1790542058.3222,-0.037424,-0.013662,-0.026083,-0.039595,-0.013304,-0.026083,0.176874,-0.508533,0.586811,-0.504256,2.426911,-9.288581
1790542058.3361,-0.035014,-0.020035,-0.018485,-0.036388,-0.018016,-0.018485,0.340784,-0.412616,0.947411,1.833751,-0.064149,-10.103616
1790542058.3503,-0.039682,-0.036744,-0.012452,-0.038694,-0.031125,-0.012452,1.074125,0.076683,0.878205,1.948735,-0.101329,-7.580888
1790542058.3641,-0.050115,-0.054289,-0.001212,-0.046688,-0.047340,-0.001212,1.360663,0.570839,0.640234,1.642111,2.129471,-6.998721
1790542058.3781,-0.067200,-0.066629,0.009504,-0.061047,-0.060842,0.009504,0.961210,1.156056,0.612308,0.722239,2.426911,-9.210958
1790542058.3921,-0.085692,-0.077036,0.022200,-0.078299,-0.072178,0.022200,0.774232,1.307823,0.768933,-0.197632,2.389731,-11.384385
1790542058.4059,-0.101025,-0.084211,0.037255,-0.094207,-0.080601,0.037255,0.513192,1.058924,0.988692,0.568927,1.832031,-10.025993
1790542058.4196,-0.098785,-0.091776,0.054542,-0.097412,-0.088423,0.054542,0.493765,-0.096939,1.083395,-1.692424,1.497411,-10.879840
1790542058.4340,-0.095377,-0.096188,0.070326,-0.095987,-0.093859,0.070326,0.227868,-0.282703,1.038472,0.415615,0.902531,-10.608161
1790542058.4480,-0.089977,-0.099932,0.081601,-0.091780,-0.098110,0.081601,0.102812,-0.406545,1.036044,-0.005993,-0.659029,-10.569350
1790542058.4620,-0.082488,-0.105928,0.090033,-0.085275,-0.103583,0.090033,0.186588,-0.678513,1.106464,2.370342,-2.480848,-12.121798
1790542058.4760,-0.079351,-0.104763,0.098623,-0.081128,-0.104409,0.098623,-0.309997,-0.483036,1.089466,4.325070,-2.183408,-10.414105
1790542058.4899,-0.074060,-0.094693,0.109100,-0.076180,-0.097608,0.109100,-0.873359,-0.660301,0.997191,4.976645,-0.919289,-11.073895
1790542058.5038,-0.067190,-0.076779,0.116824,-0.069887,-0.083028,0.116824,-1.416080,-0.757432,0.737365,3.673494,-0.510309,-8.861658
1790542058.5177,-0.062289,-0.051677,0.123710,-0.064569,-0.061082,0.123710,-1.905379,-0.672442,0.585597,3.711822,-0.138509,-6.998721
1790542058.5317,-0.055332,-0.025580,0.128670,-0.058103,-0.036231,0.128670,-1.985513,-0.708867,0.421688,2.600310,-0.212869,-8.551168
1790542058.5459,-0.040471,-0.001764,0.134568,-0.045760,-0.012104,0.134568,-1.787608,-1.269800,0.371908,2.523654,0.084571,-8.745224
1790542058.5598,-0.028826,0.021012,0.137576,-0.033906,0.011077,0.137576,-1.610343,-1.102249,0.268706,3.175230,2.166651,-8.434735
1790542058.5737,-0.034765,0.000516,0.142706,-0.034508,0.003684,0.142706,1.336380,0.408144,0.171575,0.300631,-1.030829,-18.292777
1790542058.5876,-0.024249,-0.024439,0.150029,-0.027327,-0.016002,0.150029,1.892457,-0.549814,-0.174456,-5.410238,5.401311,-17.167252
1790542058.6016,-0.035415,-0.036820,0.137764,-0.032989,-0.030575,0.137764,0.962424,0.824595,-0.633402,0.875551,1.608951,-6.727042
1790542058.6154,-0.042997,-0.039086,0.131413,-0.039995,-0.036532,0.131413,0.263078,0.782100,-0.702608,-1.769080,2.203831,-8.589979
1790542058.6290,-0.029408,-0.046819,0.130092,-0.032584,-0.043733,0.130092,0.587254,-0.752576,-0.622474,-3.110559,1.311511,-10.957462
1790542058.6426,-0.020122,-0.057852,0.124662,-0.023861,-0.053616,0.124662,0.998849,-0.553456,-0.696537,-0.619240,2.984611,-7.076343
1790542058.6562,-0.007570,-0.058811,0.118702,-0.012457,-0.057253,0.118702,0.316501,-0.867919,-0.737818,0.147319,3.616671,-6.532986
1790542058.6703,-0.002469,-0.061874,0.109120,-0.005465,-0.060487,0.109120,0.282505,-0.381048,-0.731747,1.565455,2.352551,-10.530539
1790542058.6847,0.009862,-0.064791,0.097244,0.005264,-0.063500,0.097244,0.315287,-0.656658,-0.960006,-2.037376,3.170511,-9.560259
1790542058.6988,0.002532,-0.064269,0.087610,0.003352,-0.064038,0.087610,0.203586,0.647330,-0.813095,-0.772552,4.583351,-7.697322
1790542058.7128,-0.017663,-0.052831,0.080202,-0.011358,-0.056193,0.080202,-0.779870,1.457163,-0.445210,0.913879,2.315371,-13.130889
1790542058.7267,-0.022876,-0.037826,0.070530,-0.019421,-0.043336,0.070530,-1.117401,0.644902,-0.356577,-4.490366,0.530731,-11.694875
1790542058.7406,-0.027255,-0.031238,0.061405,-0.024905,-0.034867,0.061405,-0.617175,0.591480,-0.263088,-4.030431,-1.253909,-10.025993
1790542058.7545,-0.030598,-0.018930,0.056204,-0.028890,-0.023711,0.056204,-0.981417,0.518631,-0.127104,-3.455511,-0.324409,-7.774944
1790542058.7684,-0.029234,-0.008890,0.052941,-0.029131,-0.013336,0.052941,-0.759229,0.187170,-0.219379,-3.148887,0.605091,-7.309210
1790542058.7823,-0.014960,-0.013567,0.050308,-0.019211,-0.013498,0.050308,0.197515,-1.033042,0.078086,-0.312616,-0.956469,-13.635434
1790542058.7962,-0.016536,-0.020118,0.061286,-0.017339,-0.018132,0.061286,0.411204,-0.077513,0.982622,0.837223,0.530731,-10.297672
1790542058.8100,-0.016169,-0.026844,0.075375,-0.016520,-0.024230,0.075375,0.476767,-0.163717,1.027545,-0.082648,1.385871,-10.996273
1790542058.8238,-0.025614,-0.038288,0.088492,-0.022886,-0.034071,0.088492,0.871364,0.513775,0.863636,1.067191,1.869211,-9.016902
1790542058.8376,-0.035510,-0.054588,0.099270,-0.031722,-0.048433,0.099270,1.151830,0.530773,0.891561,1.297159,0.642271,-7.736133
1790542058.8514,-0.053990,-0.067689,0.115242,-0.047310,-0.061912,0.115242,1.019489,1.181553,0.988692,1.143847,1.869211,-7.309210
1790542058.8650,-0.075745,-0.075932,0.133015,-0.067215,-0.071726,0.133015,0.691671,1.503300,1.065183,0.645583,2.426911,-7.891378
1790542058.8785,-0.087086,-0.084387,0.149872,-0.081125,-0.080589,0.149872,0.632178,0.868304,1.142888,-1.040848,1.794851,-8.473546
1790542058.8925,-0.090380,-0.093336,0.169578,-0.087604,-0.089512,0.169578,0.688028,0.188384,1.067612,0.300631,3.319231,-11.539630
1790542058.9062,-0.076576,-0.095748,0.180590,-0.079885,-0.093877,0.180590,0.016608,-0.971121,1.071254,-1.500784,-0.733389,-13.674245
1790542058.9200,-0.069340,-0.092407,0.192383,-0.072503,-0.092848,0.192383,-0.368275,-0.616592,0.983836,1.220503,-0.398769,-13.441378
1790542058.9344,-0.063030,-0.091088,0.204539,-0.065872,-0.091616,0.204539,-0.303926,-0.636018,1.077325,2.868606,-2.146228,-10.685784
1790542058.9486,-0.050342,-0.084214,0.217109,-0.055001,-0.086435,0.217109,-0.673025,-1.161742,0.938912,3.060246,-1.439808,-7.930189
1790542058.9627,-0.047233,-0.071074,0.228482,-0.049563,-0.075683,0.228482,-1.057908,-0.540101,0.724009,3.980118,-0.696209,-7.774944
1790542058.9766,-0.044271,-0.053100,0.237216,-0.045858,-0.059875,0.237216,-1.397868,-0.513390,0.552815,3.136902,-0.361589,-6.610609
1790542058.9905,-0.037501,-0.028325,0.243743,-0.040008,-0.037790,0.243743,-1.834959,-0.767145,0.368266,2.945262,0.456371,-6.765853
1790542059.0045,-0.029992,-0.001924,0.249016,-0.032997,-0.012684,0.249016,-2.002511,-0.779287,0.210427,2.868606,-0.287229,-7.580888
1790542059.0186,-0.020476,0.021437,0.251375,-0.024233,0.011201,0.251375,-1.666193,-0.781715,0.098726,1.565455,2.166651,-11.500819
1790542059.0325,-0.029868,0.003517,0.252602,-0.028178,0.005822,0.252602,1.100837,0.755389,-0.151387,-1.155832,-3.112908,-21.281238
1790542059.0465,-0.041123,-0.001378,0.254943,-0.037239,0.000782,0.254943,0.667388,1.260472,-0.416070,-6.981685,7.000050,-6.571797
1790542059.0604,-0.055246,-0.008043,0.244300,-0.049844,-0.005395,0.244300,0.550830,0.983648,-0.536270,2.408670,2.241011,-9.210958
1790542059.0744,-0.057173,-0.011184,0.234597,-0.054974,-0.009447,0.234597,0.316501,0.414215,-0.698965,-1.462456,1.534591,-6.067252
1790542059.0880,-0.041551,-0.029088,0.230463,-0.045578,-0.023196,0.230463,1.108121,-0.916485,-0.419713,-2.957247,-2.555208,-10.491728
1790542059.1017,-0.029474,-0.044983,0.227743,-0.034305,-0.038447,0.227743,1.278101,-0.780501,-0.436711,-0.542584,2.241011,-7.425644
1790542059.1153,-0.013082,-0.051671,0.225419,-0.019449,-0.047704,0.225419,0.640677,-1.056111,-0.481634,-1.002520,2.241011,-6.067252
1790542059.1293,-0.000245,-0.059818,0.220432,-0.006006,-0.056184,0.220432,0.667388,-0.935911,-0.547197,1.105519,2.575631,-10.181238
1790542059.1432,0.009394,-0.065870,0.213764,0.004774,-0.062964,0.213764,0.490123,-0.695511,-0.616404,0.722239,1.832031,-8.861658
1790542059.1572,0.004222,-0.066738,0.208545,0.004387,-0.065606,0.208545,0.203586,0.523488,-0.367504,-1.845736,3.021791,-8.318301
1790542059.1713,-0.012937,-0.052631,0.205795,-0.007739,-0.056523,0.205795,-0.985060,1.332106,0.041661,-3.033903,1.980751,-15.071448
1790542059.1861,-0.012088,-0.032608,0.198819,-0.010783,-0.039783,0.198819,-1.430650,0.212667,-0.011761,-7.288309,-0.175689,-13.868301
1790542059.2002,-0.013325,-0.024029,0.188175,-0.012563,-0.028755,0.188175,-0.914639,0.270946,0.126651,-2.458983,-2.852648,-6.416553
