t,imu_roll,imu_pitch,imu_yaw,lpf_roll,lpf_pitch,lpf_yaw,gyro_x,gyro_y,gyro_z,acc_x,acc_y,acc_z
1790545752.6128,-0.057308,-0.033033,-0.003813,-0.040116,-0.023123,-0.003813,-0.009731,-0.006723,-0.002562,0.300631,1.385871,-9.831937
1790545752.6283,-0.040520,-0.037700,0.007743,-0.040399,-0.033327,0.007743,0.023050,0.013917,0.004723,-0.082648,1.348691,-9.987182
1790545752.6422,-0.039801,-0.040886,0.009352,-0.039981,-0.038618,0.009352,0.002410,0.002990,0.001081,0.070663,1.274331,-9.831937
1790545752.6560,-0.037411,-0.042656,0.011544,-0.038182,-0.041445,0.011544,-0.013374,-0.009152,-0.000134,-0.005993,1.311511,-10.220049
1790545752.6704,-0.042818,-0.041731,0.007485,-0.041427,-0.041645,0.007485,-0.048584,0.007846,-0.004990,0.338959,1.385871,-10.181238
1790545752.6844,-0.042863,-0.040042,0.007422,-0.042432,-0.040523,0.007422,-0.076509,0.021202,0.007151,0.108991,1.460231,-10.414105
1790545752.6988,-0.042623,-0.038634,0.008571,-0.042566,-0.039200,0.008571,-0.070438,0.073410,0.038719,0.032335,1.385871,-9.831937
1790545752.7133,-0.042962,-0.034313,0.009912,-0.042843,-0.035779,0.009912,-0.154214,0.094050,0.109139,0.032335,1.608951,-10.181238
1790545752.7276,-0.039758,-0.031721,0.014840,-0.040683,-0.032938,0.014840,-0.194281,0.063697,0.189273,-0.274288,1.423051,-9.870749
1790545752.7418,-0.036802,-0.030656,0.020614,-0.037966,-0.031341,0.020614,-0.162713,-0.083214,0.313115,-0.159304,1.311511,-9.676693
1790545752.7557,-0.038459,-0.033937,0.024228,-0.038311,-0.033158,0.024228,-0.114148,-0.120853,0.453956,0.300631,0.902531,-9.599070
1790545752.7697,-0.042408,-0.037483,0.029152,-0.041179,-0.036185,0.029152,-0.087436,0.015131,0.576584,0.377287,0.828171,-9.521448
1790545752.7838,-0.047243,-0.043766,0.033068,-0.045424,-0.041492,0.033068,-0.100792,-0.045576,0.628792,0.683911,0.419191,-10.297672
1790545752.7979,-0.038877,-0.033595,0.057879,-0.040841,-0.035964,0.057879,-0.186996,-0.031006,0.540160,-1.040848,2.315371,-9.366203
1790545752.8121,-0.033652,-0.036617,0.066492,-0.035809,-0.036421,0.066492,-0.092293,-0.086857,0.275477,-0.695896,0.902531,-11.384385
1790545752.8259,-0.033177,-0.041391,0.063277,-0.033967,-0.039900,0.063277,-0.013374,-0.086857,0.198986,0.070663,0.716631,-11.733686
1790545752.8398,-0.036688,-0.041073,0.058708,-0.035872,-0.040721,0.058708,0.015766,0.007846,0.218412,0.530599,1.460231,-10.064805
1790545752.8538,-0.038639,-0.042559,0.056884,-0.037809,-0.042007,0.056884,0.103184,-0.016436,0.205056,0.377287,1.348691,-10.064805
1790545752.8674,-0.043548,-0.040579,0.050254,-0.041826,-0.041007,0.050254,0.026693,0.092836,0.129780,0.645583,1.571771,-8.745224
1790545752.8810,-0.044150,-0.039074,0.049758,-0.043453,-0.039654,0.049758,0.037620,0.009061,0.064216,0.185647,1.646131,-9.288581
1790545752.8949,-0.045239,-0.037298,0.047463,-0.044703,-0.038005,0.047463,-0.009731,-0.024935,0.049646,0.415615,1.757671,-10.142427
1790545752.9089,-0.046828,-0.033292,0.042364,-0.046191,-0.034706,0.042364,-0.082580,-0.113568,0.054503,0.837223,2.129471,-10.375294
1790545752.9228,-0.044543,-0.023886,0.037377,-0.045038,-0.027132,0.037377,-0.246489,-0.336970,0.128566,0.607255,2.873071,-9.870749
1790545752.9368,-0.043989,-0.015202,0.036299,-0.044304,-0.018781,0.036299,-0.350905,-0.350326,0.115210,1.105519,2.575631,-10.181238
1790545752.9508,-0.044255,-0.009944,0.039187,-0.044269,-0.012595,0.039187,-0.298697,-0.258051,0.014436,1.297159,2.389731,-12.277042
1790545752.9649,-0.047854,-0.013672,0.030800,-0.046779,-0.013349,0.030800,0.363010,0.356305,-0.179827,-0.082648,2.501271,-12.665154
1790545752.9789,-0.041882,-0.007478,-0.000443,-0.043351,-0.009239,-0.000443,0.224598,0.021202,-0.514930,-1.385800,4.694891,-10.918651
1790545752.9929,-0.037220,-0.011313,-0.024320,-0.039059,-0.010691,-0.024320,0.246453,0.132903,-0.881601,-0.964192,1.311511,-8.628791
1790545753.0069,-0.018567,-0.009542,-0.049738,-0.024715,-0.009886,-0.049738,0.174818,-0.721853,-1.175423,-1.385800,2.203831,-7.503266
1790545753.0209,-0.021654,-0.002841,-0.037045,-0.022572,-0.004954,-0.037045,-0.063154,0.185111,-1.143855,0.568927,2.687171,-7.464455
1790545753.0348,-0.028309,-0.005809,-0.004655,-0.026588,-0.005553,-0.004655,0.037620,0.114691,-1.069793,2.102047,1.051251,-9.870749
1790545753.0486,-0.018233,-0.012202,-0.033214,-0.020739,-0.010207,-0.033214,0.132323,-0.250766,-1.185136,-1.500784,0.307651,-11.656063
1790545753.0626,-0.016858,-0.012802,-0.049299,-0.018023,-0.012023,-0.049299,0.084972,0.063697,-1.357544,0.108991,1.906391,-9.909560
1790545753.0766,-0.019740,-0.011700,-0.064382,-0.019225,-0.011797,-0.064382,-0.082580,0.345378,-1.407324,0.300631,1.720491,-9.909560
1790545753.0900,-0.031002,-0.002738,-0.069598,-0.027469,-0.005456,-0.069598,-0.380045,0.729047,-1.345403,1.220503,2.501271,-7.813756
1790545753.1036,-0.031251,-0.003468,-0.087579,-0.030116,-0.004064,-0.087579,-0.099578,0.305311,-1.126857,-0.427600,1.088431,-10.724595
1790545753.1176,-0.028972,-0.002545,-0.108918,-0.029316,-0.003001,-0.108918,-0.042513,0.119547,-0.916811,-0.657568,2.017931,-10.802217
1790545753.1316,-0.033039,0.001749,-0.117047,-0.031922,0.000324,-0.117047,-0.269558,0.366018,-0.829393,0.415615,2.129471,-10.646972
1790545753.1455,-0.037563,0.011234,-0.136925,-0.035870,0.007961,-0.136925,-0.457750,0.521428,-0.860960,-0.082648,2.835891,-9.210958
1790545753.1593,-0.043155,0.018227,-0.155304,-0.040969,0.015147,-0.155304,-0.364261,0.618560,-0.837892,-0.082648,2.464091,-9.133336
1790545753.1732,-0.041491,0.012256,-0.177057,-0.041335,0.013124,-0.177057,0.251309,0.186325,-0.680053,-1.309144,1.460231,-16.740329
1790545753.1871,-0.033688,-0.002291,-0.165510,-0.035982,0.002334,-0.165510,0.902089,-0.692714,-0.298813,1.488799,1.497411,-15.692427
1790545753.2013,-0.045075,-0.012940,-0.126911,-0.042347,-0.008358,-0.126911,0.806172,0.221535,0.370180,3.021918,1.943571,-9.366203
1790545753.2157,-0.050872,-0.018341,-0.126732,-0.048314,-0.015346,-0.126732,0.348441,0.418226,0.429673,-0.312616,1.683311,-11.462007
1790545753.2297,-0.058568,-0.022057,-0.102944,-0.055492,-0.020043,-0.102944,0.184531,0.254317,0.901974,1.373815,1.385871,-11.500819
1790545753.2436,-0.053346,-0.024770,-0.114903,-0.053990,-0.023352,-0.114903,0.184531,-0.198558,1.119305,-1.194160,1.051251,-6.494175
1790545753.2576,-0.045528,-0.027986,-0.123790,-0.048066,-0.026596,-0.123790,0.019408,-0.294475,1.070740,-2.305671,0.270471,-9.172147
1790545753.2716,-0.044326,-0.030129,-0.115603,-0.045448,-0.029069,-0.115603,-0.134788,-0.068645,0.972394,-0.964192,-0.287229,-10.918651
1790545753.2855,-0.051143,-0.036710,-0.103584,-0.049434,-0.034418,-0.103584,0.185746,0.363590,0.946897,0.185647,-0.398769,-11.733686
1790545753.2996,-0.059267,-0.043391,-0.087827,-0.056317,-0.040699,-0.087827,0.320515,0.346592,1.132661,0.875551,0.530731,-10.957462
1790545753.3137,-0.066250,-0.053294,-0.074196,-0.063270,-0.049515,-0.074196,0.513564,0.423083,1.011247,-0.005993,0.158931,-9.521448
1790545753.3273,-0.068111,-0.054736,-0.056529,-0.066659,-0.053170,-0.056529,0.212457,0.316238,0.893475,-1.347472,1.869211,-8.667602
1790545753.3410,-0.068613,-0.054245,-0.043990,-0.068026,-0.053923,-0.043990,0.002410,0.248247,0.736851,-1.385800,1.385871,-8.279490
1790545753.3551,-0.071968,-0.056108,-0.036961,-0.070785,-0.055452,-0.036961,0.055832,0.232463,0.729566,-0.159304,0.865351,-9.948371
1790545753.3690,-0.073797,-0.057648,-0.024077,-0.072894,-0.056989,-0.024077,0.186960,0.141402,0.562014,-0.120976,1.980751,-10.452916
1790545753.3828,-0.071474,-0.057300,-0.017160,-0.071900,-0.057207,-0.017160,-0.031586,-0.179131,0.461240,0.108991,1.646131,-12.742777
1790545753.3968,-0.061734,-0.049287,-0.013814,-0.064784,-0.051663,-0.013814,-0.594948,-0.726710,0.197772,0.377287,1.534591,-12.742777
1790545753.4108,-0.061538,-0.036857,-0.011855,-0.062512,-0.041299,-0.011855,-1.044180,-0.543374,0.048432,4.593365,0.158931,-10.181238
1790545753.4247,-0.054525,-0.024818,-0.012624,-0.056921,-0.029762,-0.012624,-1.073320,-0.987750,-0.126404,2.600310,-0.101329,-6.183686
1790545753.4385,-0.039341,-0.010881,-0.017093,-0.044615,-0.016545,-0.017093,-0.829277,-1.225722,-0.168899,0.607255,1.534591,-4.980539
1790545753.4526,-0.052170,-0.014989,-0.013531,-0.049904,-0.015456,-0.013531,0.159034,0.625845,-0.113049,3.711822,0.716631,-13.480189
1790545753.4672,-0.046167,-0.022482,-0.020843,-0.047288,-0.020374,-0.020843,0.501422,-0.199772,-0.720120,-1.002520,2.055111,-14.993826
1790545753.4816,-0.035728,-0.018947,-0.044852,-0.039196,-0.019375,-0.044852,-0.098364,-0.638077,-1.233702,0.913879,2.910251,-10.608161
1790545753.4956,-0.042772,-0.022092,-0.046303,-0.041699,-0.021277,-0.046303,0.002410,0.307739,-1.316264,2.906934,-0.287229,-8.046623
1790545753.5095,-0.042554,-0.026486,-0.064344,-0.042298,-0.024923,-0.064344,0.288948,-0.120853,-1.084362,2.255358,1.125611,-9.521448
1790545753.5235,-0.029544,-0.036294,-0.058990,-0.033370,-0.032883,-0.058990,0.552416,-0.702427,-1.010300,-0.810880,0.233291,-11.190329
1790545753.5373,-0.027109,-0.050396,-0.070340,-0.028988,-0.045142,-0.070340,0.908160,-0.158491,-1.172995,1.297159,0.456371,-11.656063
1790545753.5510,-0.019840,-0.049617,-0.136173,-0.022585,-0.048275,-0.136173,0.274378,-0.522734,-1.295623,0.990535,3.430771,-8.512357
1790545753.5646,-0.015288,-0.051923,-0.150958,-0.017477,-0.050829,-0.150958,0.148107,-0.368538,-1.247057,1.565455,1.348691,-10.996273
1790545753.5785,-0.013602,-0.053768,-0.173962,-0.014765,-0.052886,-0.173962,0.168748,0.010275,-1.146284,-0.082648,1.460231,-8.745224
1790545753.5925,-0.010579,-0.057011,-0.194628,-0.011835,-0.055773,-0.194628,0.278020,-0.089285,-0.924096,-0.312616,1.497411,-8.784035
1790545753.6064,-0.023299,-0.055720,-0.209896,-0.019860,-0.055736,-0.209896,-0.057083,0.934237,-0.650914,0.683911,2.203831,-13.790679
1790545753.6203,-0.033901,-0.045315,-0.212600,-0.029689,-0.048441,-0.212600,-0.783140,1.044724,-0.508859,-2.995575,1.646131,-15.808861
1790545753.6343,-0.039513,-0.030197,-0.202434,-0.036566,-0.035670,-0.202434,-1.174094,0.755758,-0.349806,-3.570495,0.865351,-13.130889
1790545753.6481,-0.042989,-0.017671,-0.175245,-0.041062,-0.023071,-0.175245,-1.141312,0.719334,-0.252675,-1.884064,-0.324409,-4.747672
1790545753.6620,-0.053979,0.000831,-0.222538,-0.050104,-0.006339,-0.222538,-0.826849,0.732689,-0.221107,0.530599,2.612811,-3.505713
1790545753.6760,-0.037441,-0.010370,-0.203761,-0.041240,-0.009161,-0.203761,0.582770,-0.929471,0.004723,-2.957247,-0.473129,-11.656063
1790545753.6899,-0.044470,-0.012870,-0.196271,-0.043501,-0.011757,-0.196271,0.383651,0.117119,0.752635,3.290214,4.285911,-11.151518
1790545753.7043,-0.055048,-0.018542,-0.174155,-0.051584,-0.016507,-0.174155,0.256166,0.617346,1.178798,-0.542584,0.567911,-12.626343
1790545753.7191,-0.055645,-0.022442,-0.150128,-0.054426,-0.020661,-0.150128,0.216099,-0.260479,1.484762,0.913879,1.385871,-9.715504
1790545753.7332,-0.057098,-0.035395,-0.107842,-0.056296,-0.030975,-0.107842,0.467426,0.181469,1.018532,-1.385800,-1.960328,-6.571797
1790545753.7471,-0.071616,-0.042985,-0.094245,-0.067020,-0.039382,-0.094245,0.411576,0.882029,0.959039,0.837223,0.307651,-10.646972
1790545753.7611,-0.080793,-0.051433,-0.079206,-0.076662,-0.047818,-0.079206,0.599768,0.641629,1.035530,-0.580912,1.534591,-9.327392
1790545753.7750,-0.089649,-0.057628,-0.066247,-0.085753,-0.054685,-0.066247,0.466212,0.580921,1.062241,-0.120976,2.129471,-10.879840
1790545753.7885,-0.093413,-0.059221,-0.056173,-0.091115,-0.057860,-0.056173,0.179675,0.327166,0.900760,-0.772552,2.055111,-8.861658
1790545753.8022,-0.096742,-0.061334,-0.046029,-0.095054,-0.060292,-0.046029,0.112897,0.196038,0.725923,0.300631,1.162791,-9.793126
1790545753.8162,-0.099774,-0.065283,-0.038227,-0.098358,-0.063786,-0.038227,0.319301,0.191182,0.611794,0.262303,1.980751,-10.297672
1790545753.8300,-0.093759,-0.065950,-0.031950,-0.095139,-0.065301,-0.031950,0.031549,-0.370966,0.407818,-0.619240,1.460231,-11.772497
1790545753.8438,-0.089156,-0.062486,-0.032805,-0.090951,-0.063330,-0.032805,-0.337550,-0.538518,0.286404,2.753622,0.493551,-11.539630
1790545753.8577,-0.086618,-0.056141,-0.038881,-0.087918,-0.058298,-0.038881,-0.586449,-0.448671,0.149206,3.251886,-0.101329,-10.103616
1790545753.8715,-0.080217,-0.041158,-0.052296,-0.082528,-0.046300,-0.052296,-1.092746,-0.839625,0.060574,3.136902,0.865351,-6.688231
1790545753.8854,-0.068528,-0.026998,-0.048792,-0.072728,-0.032789,-0.048792,-1.098817,-0.944041,-0.102121,1.182175,0.456371,-7.464455
1790545753.8994,-0.061856,-0.015915,-0.047406,-0.065118,-0.020977,-0.047406,-0.930051,-0.750992,-0.137332,3.405198,0.047391,-9.560259
1790545753.9134,-0.062452,-0.012898,-0.048403,-0.063252,-0.015322,-0.048403,-0.320552,-0.134208,-0.221107,3.136902,0.456371,-11.656063
1790545753.9273,-0.063015,-0.013885,-0.054503,-0.063086,-0.014316,-0.054503,0.053404,0.113477,-0.633916,0.837223,1.534591,-12.393476
1790545753.9413,-0.057814,-0.013970,-0.070551,-0.059395,-0.014074,-0.070551,0.116539,0.000562,-1.205777,-1.615768,2.278191,-9.094525
1790545753.9553,-0.046946,-0.019188,-0.083012,-0.050681,-0.017654,-0.083012,0.403077,-0.545802,-1.136571,-0.504256,1.757671,-10.452916
1790545753.9703,-0.039477,-0.022468,-0.097969,-0.042838,-0.021024,-0.097969,0.264665,-0.394035,-0.734690,0.108991,1.311511,-6.532986
1790545753.9845,-0.035804,-0.029882,-0.102586,-0.037914,-0.027225,-0.102586,0.495352,-0.111140,-0.737118,-0.427600,1.199971,-10.841028
1790545753.9996,-0.024992,-0.034394,-0.123202,-0.028869,-0.032243,-0.123202,0.354511,-0.511806,-1.149926,-0.695896,2.464091,-11.578441
1790545754.0140,-0.019581,-0.038795,-0.151464,-0.022368,-0.036830,-0.151464,0.381222,-0.256837,-1.267698,0.453943,2.129471,-9.016902
1790545754.0286,-0.012575,-0.042024,-0.177497,-0.015513,-0.040466,-0.177497,0.316873,-0.377037,-1.003015,0.147319,2.352551,-8.861658
1790545754.0429,-0.002902,-0.049856,-0.185832,-0.006685,-0.047039,-0.185832,0.506279,-0.523948,-0.886457,-0.619240,0.790991,-7.852567
1790545754.0580,-0.009700,-0.053573,-0.217671,-0.008795,-0.051613,-0.217671,0.475925,0.565138,-0.646057,-0.504256,3.616671,-8.007811
1790545754.0718,-0.021312,-0.046388,-0.225150,-0.017557,-0.047955,-0.225150,-0.516029,1.139427,-0.621774,-3.915447,2.129471,-14.489280
1790545754.0854,-0.022483,-0.034276,-0.219907,-0.021005,-0.038380,-0.219907,-1.025968,0.384230,-0.647271,-3.723807,-0.101329,-14.838581
1790545754.0995,-0.025927,-0.021765,-0.211654,-0.024451,-0.026749,-0.211654,-1.102459,0.559067,-0.627845,-1.922392,-0.696209,-7.270399
1790545754.1135,-0.039624,-0.003705,-0.227689,-0.035072,-0.010618,-0.227689,-1.127956,0.790968,-0.453009,1.642111,1.720491,-4.437182
1790545754.1274,-0.042126,0.006696,-0.232208,-0.040010,0.001502,-0.232208,-0.749144,0.413370,-0.357091,-1.270816,1.199971,-6.727042
1790545754.1414,-0.031009,-0.004932,-0.221936,-0.033709,-0.003002,-0.221936,0.654404,-0.699998,0.007151,-2.535639,-0.770569,-20.272147
1790545754.1553,-0.041513,-0.007333,-0.215516,-0.039172,-0.006033,-0.215516,0.206386,0.500788,0.809699,1.910407,2.426911,-11.306763
1790545754.1692,-0.049561,-0.009205,-0.201093,-0.046444,-0.008253,-0.201093,0.135966,0.361162,1.193368,0.453943,1.757671,-9.288581
1790545754.1830,-0.045108,-0.019993,-0.178485,-0.045509,-0.016471,-0.178485,0.624051,-0.207057,0.786631,-2.229015,-0.138509,-7.658511
1790545754.1969,-0.058938,-0.026511,-0.190361,-0.054909,-0.023499,-0.190361,0.422503,0.509287,0.554729,4.056774,0.567911,-6.649420
1790545754.2110,-0.079820,-0.032418,-0.186786,-0.072347,-0.029742,-0.186786,0.423717,1.305764,0.735637,1.757095,2.017931,-11.500819
1790545754.2252,-0.090524,-0.043152,-0.174828,-0.085071,-0.039129,-0.174828,0.698113,0.601562,0.932328,1.028863,1.274331,-10.724595
1790545754.2388,-0.096263,-0.046351,-0.169681,-0.092906,-0.044184,-0.169681,0.331443,0.366018,0.922614,-0.120976,2.910251,-9.016902
1790545754.2525,-0.097684,-0.047819,-0.159153,-0.096250,-0.046729,-0.159153,0.125038,0.030915,1.023388,-0.044320,2.464091,-10.530539
1790545754.2661,-0.098594,-0.047553,-0.148985,-0.097891,-0.047306,-0.148985,-0.019444,-0.009152,0.929899,0.147319,2.092291,-10.103616
1790545754.2802,-0.097768,-0.050234,-0.136601,-0.097805,-0.049355,-0.136601,0.123824,-0.109925,0.787845,0.032335,1.014071,-9.249770
1790545754.2942,-0.096561,-0.049533,-0.130517,-0.096934,-0.049480,-0.130517,-0.015802,-0.158491,0.611794,0.530599,2.017931,-8.939280
1790545754.3080,-0.087047,-0.045388,-0.123381,-0.090013,-0.046616,-0.123381,-0.270772,-0.741279,0.600867,0.223975,2.538451,-11.384385
1790545754.3219,-0.080196,-0.039167,-0.106528,-0.083141,-0.041402,-0.106528,-0.559738,-0.691499,0.466097,2.945262,0.419191,-13.519000
1790545754.3358,-0.075085,-0.029149,-0.089095,-0.077502,-0.032825,-0.089095,-0.826849,-0.638077,0.184416,3.903462,0.270471,-10.608161
1790545754.3499,-0.066781,-0.014506,-0.083318,-0.069997,-0.020002,-0.083318,-1.078176,-0.895475,0.026578,3.328542,0.902531,-7.386832
1790545754.3637,-0.061287,0.001205,-0.079994,-0.063900,-0.005157,-0.079994,-1.177736,-0.667217,-0.091194,2.446998,0.716631,-5.873196
1790545754.3778,-0.052896,0.016539,-0.080374,-0.056197,0.010030,-0.080374,-1.115815,-0.777704,-0.222322,2.025391,1.014071,-6.494175
1790545754.3918,-0.062021,0.015362,-0.067555,-0.060274,0.013762,-0.067555,-0.047370,0.637986,-0.472435,2.868606,0.270471,-15.304315
1790545754.4057,-0.059642,0.011934,-0.079440,-0.059832,0.012483,-0.079440,0.267093,0.128046,-1.172995,-1.194160,2.947431,-16.973196
1790545754.4197,-0.054232,0.008623,-0.100400,-0.055912,0.009781,-0.100400,0.290162,-0.148778,-1.308979,0.300631,2.575631,-12.160609
1790545754.4335,-0.054239,0.015131,-0.171331,-0.054741,0.013526,-0.171331,-0.126289,0.200895,-0.774756,-0.274288,3.244871,-5.058161
1790545754.4474,-0.054143,0.008860,-0.162860,-0.054323,0.010259,-0.162860,0.366653,0.253103,-0.703122,-1.500784,0.679451,-10.569350
1790545754.4614,-0.040122,0.000061,-0.166966,-0.044382,0.003120,-0.166966,0.603410,-0.632006,-1.098932,-2.612295,1.311511,-10.608161
1790545754.4754,-0.029177,-0.004195,-0.194560,-0.033739,-0.002000,-0.194560,0.406719,-0.548231,-1.254342,-0.312616,2.724351,-8.900469
1790545754.4891,-0.029875,-0.004716,-0.220239,-0.031034,-0.003901,-0.220239,0.190602,0.087980,-1.147498,1.795423,3.058971,-7.774944
1790545754.5031,-0.027384,-0.008676,-0.231792,-0.028479,-0.007244,-0.231792,0.269521,-0.037077,-1.057651,0.415615,1.423051,-9.094525
1790545754.5170,-0.018151,-0.011303,-0.255892,-0.021249,-0.010085,-0.255892,0.253737,-0.335756,-1.049152,-2.267343,2.501271,-9.521448
1790545754.5308,-0.015444,-0.015005,-0.275340,-0.017186,-0.013529,-0.275340,0.305946,-0.017651,-0.986017,-0.389272,2.203831,-9.599070
1790545754.5447,-0.023993,-0.015665,-0.296758,-0.021950,-0.015025,-0.296758,0.137180,0.755758,-0.797825,-0.120976,4.211551,-14.101168
1790545754.5586,-0.031178,-0.007730,-0.308419,-0.028410,-0.009919,-0.308419,-0.581592,0.733903,-0.550140,-2.152360,2.092291,-13.363756
1790545754.5724,-0.032384,0.002728,-0.302787,-0.031192,-0.001066,-0.302787,-0.818350,0.401228,-0.368019,-3.570495,0.902531,-10.025993
1790545754.5863,-0.033752,0.009438,-0.301477,-0.032984,0.006286,-0.301477,-0.552453,0.312596,-0.148259,-1.385800,0.493551,-5.446273
1790545754.6003,-0.022374,0.006861,-0.300427,-0.025557,0.006689,-0.300427,0.155392,-0.699998,-0.003776,-1.845736,1.423051,-9.948371
1790545754.6142,-0.031109,-0.002257,-0.270282,-0.029444,0.000427,-0.270282,0.644691,0.271315,0.843695,3.213558,1.720491,-10.685784
1790545754.6281,-0.041846,-0.008424,-0.251046,-0.038126,-0.005769,-0.251046,0.380008,0.550568,1.101093,0.798895,1.014071,-11.500819
1790545754.6420,-0.040038,-0.012216,-0.234209,-0.039465,-0.010282,-0.234209,0.214885,-0.179131,1.182441,-2.114032,1.051251,-10.452916
1790545754.6558,-0.043598,-0.016185,-0.215433,-0.042358,-0.014414,-0.215433,0.139608,0.135331,0.893475,-0.159304,-0.250049,-8.551168
1790545754.6697,-0.059472,-0.022977,-0.196741,-0.054338,-0.020408,-0.196741,0.350869,0.885671,1.025817,1.565455,-0.138509,-8.745224
1790545754.6836,-0.070236,-0.028296,-0.190298,-0.065467,-0.025930,-0.190298,0.505065,0.659841,1.142374,-0.197632,2.761531,-7.231588
1790545754.6972,-0.080475,-0.033745,-0.182507,-0.075973,-0.031401,-0.182507,0.473497,0.630701,1.029459,0.223975,2.873071,-9.366203
1790545754.7109,-0.088208,-0.037625,-0.172422,-0.084537,-0.035757,-0.172422,0.290162,0.443723,0.991821,0.415615,2.352551,-10.724595
1790545754.7250,-0.088311,-0.039293,-0.164082,-0.087179,-0.038232,-0.164082,0.095899,-0.033434,0.761134,-0.350944,1.720491,-10.220049
1790545754.7391,-0.084807,-0.040696,-0.153886,-0.085518,-0.039957,-0.153886,0.082543,-0.361253,0.704069,0.875551,2.017931,-11.733686
1790545754.7531,-0.080128,-0.039556,-0.141424,-0.081745,-0.039677,-0.141424,-0.128717,-0.491166,0.555944,2.025391,1.460231,-12.665154
1790545754.7670,-0.075140,-0.033823,-0.119106,-0.077121,-0.035579,-0.119106,-0.518457,-0.642934,0.492808,3.060246,0.233291,-8.551168
1790545754.7809,-0.073144,-0.026815,-0.102131,-0.074337,-0.029444,-0.102131,-0.613160,-0.470526,0.381107,3.060246,0.121751,-6.727042
1790545754.7948,-0.065111,-0.018726,-0.094003,-0.067879,-0.021941,-0.094003,-0.628944,-0.668431,0.222054,0.722239,0.753811,-6.882287
1790545754.8088,-0.057652,-0.009165,-0.089003,-0.060720,-0.012998,-0.089003,-0.737002,-0.713354,0.038719,3.290214,1.125611,-11.966553
1790545754.8228,-0.047777,0.004759,-0.090384,-0.051660,-0.000568,-0.090384,-1.039324,-0.946469,-0.077839,4.555037,1.348691,-11.733686
1790545754.8367,-0.039461,0.020204,-0.101447,-0.043121,0.013972,-0.101447,-1.089104,-0.820199,-0.208966,3.673494,1.980751,-9.172147
1790545754.8506,-0.051650,0.018219,-0.095522,-0.049091,0.016945,-0.095522,0.052190,0.920881,-0.539213,1.527127,0.716631,-10.802217
1790545754.8645,-0.055538,0.010224,-0.123030,-0.053604,0.012240,-0.123030,0.664118,0.637986,-0.972661,-2.114032,2.575631,-9.366203
1790545754.8786,-0.036748,0.000046,-0.141181,-0.041805,0.003704,-0.141181,0.747893,-0.911259,-1.250700,-2.918919,1.720491,-9.055714
1790545754.8925,-0.039558,-0.001760,-0.159050,-0.040232,-0.000121,-0.159050,0.176032,0.146259,-0.779613,3.290214,2.501271,-10.608161
1790545754.9065,-0.031255,-0.006427,-0.162459,-0.033948,-0.004535,-0.162459,0.298661,-0.414675,-0.714049,-1.117504,1.460231,-12.160609
1790545754.9204,-0.016459,-0.015163,-0.172848,-0.021706,-0.011975,-0.172848,0.604625,-0.737637,-0.987231,-2.343999,1.125611,-8.357112
1790545754.9341,-0.005709,-0.023793,-0.193237,-0.010508,-0.020248,-0.193237,0.644691,-0.544588,-1.248272,-1.040848,1.980751,-9.793126
1790545754.9477,-0.001035,-0.030342,-0.217681,-0.003877,-0.027314,-0.217681,0.558487,-0.332113,-1.057651,1.335487,2.166651,-7.309210
1790545754.9615,0.000227,-0.033754,-0.242947,-0.001004,-0.031822,-0.242947,0.354511,-0.092927,-0.959306,1.258831,2.352551,-6.765853
1790545754.9759,-0.004827,-0.041087,-0.232704,-0.003680,-0.038307,-0.232704,0.358154,0.414584,-0.860960,0.837223,-0.435949,-13.441378
1790545754.9899,-0.013798,-0.032219,-0.243436,-0.010762,-0.034045,-0.243436,-0.662940,0.806752,-0.677625,-1.884064,2.092291,-16.623896
1790545755.0039,-0.012578,-0.020370,-0.248332,-0.012034,-0.024473,-0.248332,-0.919124,0.227606,-0.524643,-3.647151,0.530731,-9.327392
1790545755.0180,-0.014339,-0.009557,-0.242039,-0.013647,-0.014032,-0.242039,-0.945835,0.442509,-0.487005,-2.190688,-0.584669,-5.562707
1790545755.0319,-0.029063,0.007902,-0.259291,-0.024438,0.001321,-0.259291,-1.177736,0.968233,-0.290314,1.182175,1.497411,-4.864105
1790545755.0459,-0.039101,0.019234,-0.256640,-0.034702,0.013860,-0.256640,-0.917910,0.878386,-0.394730,-1.002520,0.419191,-10.569350
1790545755.0599,-0.035887,0.012383,-0.244682,-0.035532,0.012826,-0.244682,0.343584,-0.174275,-0.058412,-1.385800,-0.547489,-21.281238
1790545755.0737,-0.037397,0.010044,-0.232686,-0.036837,0.010879,-0.232686,0.134752,0.011489,0.656717,-0.465928,2.203831,-15.304315
1790545755.0877,-0.046638,0.007916,-0.221366,-0.043698,0.008805,-0.221366,0.118968,0.389087,1.047671,1.335487,1.348691,-9.094525
1790545755.1017,-0.043836,-0.002630,-0.196363,-0.043794,0.000800,-0.196363,0.602196,-0.340612,0.976037,-0.274288,-0.175689,-6.183686
1790545755.1155,-0.038334,-0.012776,-0.178972,-0.039972,-0.008703,-0.178972,0.529348,-0.340612,0.632434,-1.654096,-0.919289,-6.610609
1790545755.1294,-0.059108,-0.011969,-0.192534,-0.053367,-0.010989,-0.192534,-0.036442,1.224417,0.791487,3.328542,2.464091,-12.121798
1790545755.1434,-0.064988,-0.017050,-0.181172,-0.061502,-0.015232,-0.181172,0.358154,0.296812,0.915330,0.032335,2.166651,-11.151518
1790545755.1569,-0.074505,-0.021237,-0.182939,-0.070604,-0.019436,-0.182939,0.353297,0.459507,1.003962,1.642111,2.464091,-9.094525
1790545755.1705,-0.082169,-0.022858,-0.182321,-0.078699,-0.021831,-0.182321,0.162677,0.349020,1.001534,1.450471,2.724351,-9.637881
1790545755.1842,-0.084230,-0.025818,-0.175112,-0.082571,-0.024622,-0.175112,0.237954,0.046699,0.909259,0.032335,2.315371,-9.133336
1790545755.1981,-0.085892,-0.025469,-0.171816,-0.084896,-0.025215,-0.171816,0.006052,-0.015222,0.765990,0.798895,2.426911,-9.288581
1790545755.2121,-0.082536,-0.023119,-0.164493,-0.083244,-0.023747,-0.164493,-0.177283,-0.326043,0.627578,0.415615,2.501271,-12.859210
1790545755.2266,-0.077102,-0.017321,-0.160091,-0.078944,-0.019249,-0.160091,-0.400685,-0.553087,0.526804,2.446998,2.575631,-12.626343
1790545755.2406,-0.071676,-0.009315,-0.151554,-0.073856,-0.012295,-0.151554,-0.625301,-0.567657,0.333756,2.753622,1.385871,-12.121798
1790545755.2546,-0.065375,0.000899,-0.150560,-0.067920,-0.003059,-0.150560,-0.739431,-0.613794,0.077572,1.910407,1.274331,-7.348021
1790545755.2685,-0.057845,0.012029,-0.153845,-0.060867,0.007502,-0.153845,-0.780712,-0.714568,-0.102121,2.178703,1.497411,-6.804665
1790545755.2825,-0.051329,0.021729,-0.159356,-0.054191,0.017461,-0.159356,-0.661726,-0.577370,-0.196825,1.795423,1.720491,-7.192776
1790545755.2965,-0.057807,0.018498,-0.151357,-0.056722,0.018187,-0.151357,0.142036,0.502002,-0.561067,2.332014,0.790991,-14.993826
1790545755.3104,-0.057285,0.018274,-0.177874,-0.057116,0.018248,-0.177874,0.125038,0.208180,-1.057651,-0.389272,3.505131,-11.151518
1790545755.3244,-0.045873,0.011863,-0.190337,-0.049246,0.013778,-0.190337,0.475925,-0.392820,-1.478959,-2.229015,1.832031,-10.181238
1790545755.3383,-0.047422,0.006698,-0.229524,-0.047969,0.008822,-0.229524,0.563344,0.131689,-1.276197,2.217030,2.575631,-5.446273
1790545755.3524,-0.040755,0.001722,-0.244212,-0.042919,0.003852,-0.244212,0.411576,-0.435315,-0.870673,1.105519,1.497411,-5.912007
1790545755.3664,-0.022904,-0.006137,-0.245632,-0.028909,-0.003141,-0.245632,0.506279,-0.999892,-1.072221,-2.152360,1.199971,-12.587532
1790545755.3803,-0.013477,-0.018151,-0.260646,-0.018106,-0.013648,-0.260646,0.852310,-0.513021,-1.176637,0.147319,1.832031,-11.267951
1790545755.3938,-0.007519,-0.021309,-0.300410,-0.010695,-0.019011,-0.300410,0.393364,-0.283548,-1.293195,0.377287,3.467951,-7.969000
1790545755.4076,-0.004491,-0.024944,-0.325303,-0.006352,-0.023164,-0.325303,0.333871,-0.106283,-1.186350,0.722239,2.761531,-9.210958
1790545755.4216,-0.000747,-0.030236,-0.347885,-0.002429,-0.028115,-0.347885,0.415218,-0.124495,-0.996944,-0.197632,2.203831,-9.094525
1790545755.4356,-0.011647,-0.031684,-0.360204,-0.008882,-0.030613,-0.360204,0.084972,0.889314,-0.774756,-0.005993,1.757671,-11.578441
1790545755.4494,-0.020600,-0.024113,-0.363726,-0.017085,-0.026063,-0.363726,-0.611946,0.817679,-0.639986,-1.692424,1.125611,-14.566903
1790545755.4634,-0.022857,-0.012048,-0.344050,-0.021125,-0.016253,-0.344050,-1.001685,0.448580,-0.564710,-3.110559,-0.250049,-9.405014
1790545755.4778,-0.024882,0.000166,-0.319724,-0.023755,-0.004760,-0.319724,-1.008970,0.478934,-0.386231,-2.458983,-0.435949,-5.058161
1790545755.4917,-0.039583,0.009285,-0.310713,-0.034835,0.005071,-0.310713,-0.794067,1.064150,-0.244176,0.530599,-0.101329,-5.562707
1790545755.5056,-0.048916,0.019873,-0.333267,-0.044692,0.015433,-0.333267,-0.632586,0.858960,-0.293956,-1.615768,3.653851,-9.172147
1790545755.5195,-0.045082,0.015846,-0.328074,-0.044965,0.015722,-0.328074,0.207600,-0.174275,-0.114263,-1.960720,1.125611,-17.012007
1790545755.5335,-0.042465,0.016466,-0.323926,-0.043215,0.016243,-0.323926,-0.037657,-0.153635,0.485523,-2.229015,2.426911,-11.229140
1790545755.5474,-0.049966,0.010950,-0.303276,-0.047941,0.012538,-0.303276,0.246453,0.281028,0.803629,2.140375,-0.324409,-11.035084
1790545755.5612,-0.053109,0.002086,-0.291197,-0.051558,0.005222,-0.291197,0.548774,-0.126923,0.801200,2.293686,0.307651,-6.338930
1790545755.5750,-0.052154,-0.001727,-0.293697,-0.051975,0.000358,-0.293697,0.338727,-0.001867,0.319186,-1.654096,2.649991,-9.172147
1790545755.5889,-0.069901,-0.001253,-0.293780,-0.064524,-0.000770,-0.293780,-0.018230,1.059293,0.497665,2.906934,2.203831,-10.258860
1790545755.6028,-0.078016,-0.008031,-0.283559,-0.073969,-0.005853,-0.283559,0.443144,0.499574,0.660360,0.223975,1.720491,-12.626343
1790545755.6164,-0.086154,-0.013682,-0.282731,-0.082498,-0.011333,-0.282731,0.469855,0.397586,0.904402,1.450471,3.096151,-9.793126
1790545755.6301,-0.095105,-0.015796,-0.284888,-0.091323,-0.014457,-0.284888,0.240382,0.538426,0.915330,0.262303,3.207691,-8.551168
1790545755.6436,-0.094809,-0.019779,-0.279029,-0.093763,-0.018182,-0.279029,0.301089,-0.028578,0.852194,-1.155832,2.129471,-8.473546
1790545755.6575,-0.097139,-0.022527,-0.269558,-0.096126,-0.021223,-0.269558,0.151750,0.069768,0.707711,0.492271,1.534591,-9.987182
1790545755.6714,-0.095643,-0.024989,-0.264995,-0.095788,-0.023859,-0.264995,0.172390,-0.154849,0.530447,0.108991,2.129471,-10.569350
1790545755.6855,-0.090472,-0.024306,-0.260639,-0.092067,-0.024172,-0.260639,-0.048584,-0.412247,0.473382,0.108991,2.426911,-11.811308
1790545755.6994,-0.080495,-0.018084,-0.245088,-0.083966,-0.019910,-0.245088,-0.543954,-0.837197,0.475810,1.412143,0.753811,-12.936833
1790545755.7136,-0.075055,-0.009910,-0.220976,-0.077728,-0.012910,-0.220976,-0.687223,-0.635649,0.288832,3.980118,0.196111,-10.414105
1790545755.7282,-0.063988,0.001940,-0.216157,-0.068110,-0.002515,-0.216157,-0.808637,-0.982894,0.163776,2.293686,1.385871,-6.494175
1790545755.7424,-0.046969,0.014744,-0.227870,-0.053311,0.009566,-0.227870,-0.757643,-1.341065,0.133422,1.143847,2.724351,-5.989630
1790545755.7563,-0.046574,0.021693,-0.215697,-0.048595,0.018055,-0.215697,-0.534241,-0.190059,-0.143402,3.520182,1.683311,-10.841028
1790545755.7703,-0.053425,0.014796,-0.195617,-0.051976,0.015774,-0.195617,0.331443,0.482576,-0.533142,4.056774,-1.068009,-18.836133
1790545755.7843,-0.046610,0.014219,-0.215888,-0.048220,0.014685,-0.215888,0.092257,-0.211913,-1.105003,-0.964192,2.426911,-10.181238
1790545755.7983,-0.050052,0.012518,-0.226880,-0.049502,0.013168,-0.226880,0.097113,0.444938,-1.208205,0.607255,0.939711,-7.619700
1790545755.8124,-0.043106,0.005282,-0.213758,-0.045025,0.007648,-0.213758,0.322944,-0.267764,-0.885243,-0.427600,-0.584669,-4.670049
1790545755.8257,-0.033224,-0.001969,-0.213341,-0.036764,0.000916,-0.213341,0.473497,-0.583441,-0.775970,-0.465928,0.716631,-10.608161
1790545755.8396,-0.019744,-0.017383,-0.219644,-0.024850,-0.011893,-0.219644,1.056285,-0.782560,-1.010300,-0.619240,1.125611,-11.888930
1790545755.8532,-0.008653,-0.024435,-0.258730,-0.013512,-0.020672,-0.258730,0.636192,-0.666002,-1.236130,0.262303,3.207691,-9.016902
1790545755.8668,-0.004768,-0.026869,-0.289143,-0.007391,-0.025010,-0.289143,0.233097,-0.203414,-1.214276,1.105519,2.315371,-8.589979
1790545755.8807,0.000604,-0.031393,-0.309415,-0.001794,-0.029478,-0.309415,0.339942,-0.232554,-1.046724,-0.350944,2.017931,-9.560259
1790545755.8945,0.001231,-0.039479,-0.322374,0.000323,-0.036479,-0.322374,0.570629,0.134117,-0.748045,-1.424128,1.423051,-9.443825
1790545755.9085,-0.010946,-0.038271,-0.336549,-0.007565,-0.037733,-0.336549,-0.075295,1.010728,-0.550140,-1.539112,2.687171,-14.760958
1790545755.9223,-0.014167,-0.028264,-0.343785,-0.012187,-0.031105,-0.343785,-0.785568,0.509287,-0.574423,-4.835318,0.865351,-14.411658
1790545755.9363,-0.017839,-0.015995,-0.340106,-0.016143,-0.020528,-0.340106,-1.039324,0.525071,-0.402015,-3.110559,-0.844929,-9.172147
1790545755.9501,-0.027430,-0.002064,-0.337749,-0.024044,-0.007603,-0.337749,-1.115815,0.739974,-0.256318,0.032335,0.047391,-3.505713
1790545755.9641,-0.046838,0.012425,-0.365936,-0.040000,0.006417,-0.365936,-0.897269,1.269340,-0.172542,1.603783,2.092291,-4.941727
1790545755.9786,-0.056355,0.021096,-0.358334,-0.051448,0.016692,-0.358334,-0.710291,0.782469,-0.185897,-1.845736,0.010211,-17.516553
1790545755.9926,-0.051099,0.015393,-0.344844,-0.051204,0.015783,-0.344844,0.270735,-0.321186,0.104283,-2.152360,-0.361589,-19.689980
1790545756.0065,-0.054312,0.018604,-0.335125,-0.053380,0.017757,-0.335125,-0.252560,0.143830,0.626364,-0.350944,2.426911,-13.286133
1790545756.0206,-0.056020,0.013725,-0.313549,-0.055228,0.014935,-0.313549,0.152964,0.021202,0.878905,-0.580912,-0.621849,-6.959909
1790545756.0345,-0.053536,0.002673,-0.297796,-0.054044,0.006352,-0.297796,0.598554,-0.261693,0.645790,-0.350944,-0.956469,-8.667602
1790545756.0485,-0.063576,-0.002489,-0.317127,-0.060716,0.000163,-0.317127,0.359368,0.441295,0.473382,2.523654,1.088431,-6.882287
1790545756.0625,-0.080116,-0.006645,-0.325370,-0.074296,-0.004603,-0.325370,0.293804,0.954877,0.549873,3.443526,2.129471,-11.772497
1790545756.0766,-0.089282,-0.016306,-0.317956,-0.084786,-0.012795,-0.317956,0.644691,0.468006,0.854622,1.565455,1.943571,-11.811308
1790545756.0922,-0.099525,-0.022228,-0.314326,-0.095103,-0.019398,-0.314326,0.388507,0.506859,0.847338,1.028863,2.278191,-9.016902
1790545756.1066,-0.102735,-0.024666,-0.311988,-0.100445,-0.023086,-0.311988,0.217313,0.135331,0.782988,0.185647,2.835891,-8.822846
1790545756.1209,-0.101885,-0.027657,-0.311874,-0.101453,-0.026285,-0.311874,0.275592,-0.131780,0.644576,0.262303,3.244871,-9.405014
1790545756.1357,-0.098951,-0.030006,-0.305290,-0.099702,-0.028890,-0.305290,0.117754,-0.317544,0.457598,2.063719,1.832031,-13.635434
1790545756.1501,-0.093497,-0.025325,-0.299847,-0.095358,-0.026395,-0.299847,-0.370332,-0.511806,0.296117,2.485326,1.385871,-12.082986
1790545756.1642,-0.088481,-0.016127,-0.295180,-0.090544,-0.019207,-0.295180,-0.694507,-0.579798,0.241481,3.788478,1.237151,-10.220049
1790545756.1783,-0.077708,-0.002832,-0.299739,-0.081559,-0.007744,-0.299739,-0.913053,-0.923401,0.096998,1.680439,1.497411,-6.222497
1790545756.1926,-0.067080,0.008024,-0.299239,-0.071424,0.003293,-0.299239,-0.756429,-0.900332,0.100640,1.948735,1.571771,-7.697322
1790545756.2068,-0.057346,0.017639,-0.285879,-0.061570,0.013336,-0.285879,-0.760071,-0.837197,-0.030487,2.945262,0.828171,-10.879840
1790545756.2210,-0.059674,0.017461,-0.269991,-0.060243,0.016223,-0.269991,-0.126289,0.166899,-0.471221,3.021918,-0.473129,-15.847672
1790545756.2355,-0.060985,0.017018,-0.292276,-0.060762,0.016779,-0.292276,0.097113,0.205752,-0.858532,1.603783,3.430771,-13.480189
1790545756.2497,-0.053906,0.011334,-0.288025,-0.055963,0.012967,-0.288025,0.361796,-0.085643,-1.265270,-2.190688,0.753811,-8.279490
1790545756.2640,-0.043516,0.006600,-0.314363,-0.047250,0.008510,-0.314363,0.458927,-0.488738,-0.953235,-0.772552,2.426911,-6.571797
1790545756.2782,-0.041036,-0.002268,-0.325782,-0.042900,0.000965,-0.325782,0.622837,-0.174275,-0.631487,1.143847,0.939711,-5.950818
1790545756.2921,-0.028504,-0.010248,-0.348402,-0.032823,-0.006884,-0.348402,0.673831,-0.646576,-0.969019,-1.654096,3.207691,-9.793126
1790545756.3064,-0.016518,-0.014380,-0.377193,-0.021409,-0.012131,-0.377193,0.366653,-0.602867,-1.355116,-0.619240,3.058971,-10.142427
1790545756.3202,-0.015287,-0.017390,-0.409923,-0.017124,-0.015812,-0.409923,0.318087,0.081909,-1.308979,0.377287,2.761531,-7.930189
1790545756.3340,-0.007525,-0.021535,-0.427627,-0.010405,-0.019818,-0.427627,0.307160,-0.343041,-1.136571,-0.810880,1.534591,-7.852567
1790545756.3481,-0.003426,-0.029821,-0.436950,-0.005520,-0.026820,-0.436950,0.534204,-0.146350,-0.962948,-0.274288,1.014071,-9.560259
1790545756.3622,-0.003419,-0.034049,-0.451870,-0.004049,-0.031880,-0.451870,0.316873,0.118333,-0.710407,-0.580912,2.166651,-10.763406
1790545756.3766,-0.017861,-0.024789,-0.469473,-0.013718,-0.026916,-0.469473,-0.611946,1.143069,-0.647271,-1.002520,3.542311,-15.343126
1790545756.3906,-0.021028,-0.011910,-0.462281,-0.018835,-0.016412,-0.462281,-0.977403,0.516572,-0.531928,-5.601878,1.423051,-15.731238
1790545756.4046,-0.026853,0.001370,-0.435635,-0.024447,-0.003965,-0.435635,-1.033253,0.862602,-0.431154,-2.688951,0.158931,-3.738581
1790545756.4188,-0.038638,0.018480,-0.456550,-0.034381,0.011746,-0.456550,-1.008970,0.897813,-0.308526,0.070663,1.832031,-3.234035
1790545756.4329,-0.036735,0.024199,-0.452677,-0.036029,0.020463,-0.452677,-0.512386,0.062483,-0.238105,-1.232488,0.084571,-5.019350
1790545756.4469,-0.027516,0.016929,-0.451854,-0.030070,0.017989,-0.451854,0.548774,-0.772847,-0.131261,2.676966,3.170511,-12.859210
1790545756.4610,-0.040756,0.017177,-0.444365,-0.037550,0.017421,-0.444365,0.032764,0.639200,0.593582,4.823333,3.765391,-12.975644
1790545756.4756,-0.047318,0.012901,-0.420699,-0.044388,0.014257,-0.420699,0.184531,0.264030,1.119305,-0.389272,0.493551,-13.519000
1790545756.4896,-0.044564,0.010508,-0.404642,-0.044511,0.011633,-0.404642,0.140822,-0.239839,1.188512,-2.727279,1.534591,-9.094525
1790545756.5034,-0.057556,0.001505,-0.383018,-0.053642,0.004543,-0.383018,0.468641,0.743616,0.963895,0.453943,-0.510309,-6.028441
1790545756.5175,-0.074455,-0.007976,-0.376471,-0.068211,-0.004221,-0.376471,0.672617,0.979160,0.880119,1.680439,1.720491,-8.551168
1790545756.5315,-0.085832,-0.016541,-0.371112,-0.080545,-0.012845,-0.371112,0.661689,0.646485,1.063455,0.530599,2.910251,-9.016902
1790545756.5451,-0.094816,-0.020719,-0.365339,-0.090535,-0.018357,-0.365339,0.343584,0.555424,1.012461,-0.120976,3.207691,-10.530539
1790545756.5586,-0.100056,-0.024134,-0.358509,-0.097200,-0.022401,-0.358509,0.269521,0.324737,0.957825,-0.504256,2.501271,-9.094525
1790545756.5725,-0.099625,-0.026292,-0.346125,-0.098897,-0.025125,-0.346125,0.070402,-0.094142,0.776917,-0.235960,1.162791,-11.423196
1790545756.5864,-0.094117,-0.025299,-0.336005,-0.095551,-0.025247,-0.336005,-0.129931,-0.497237,0.587511,0.952207,1.571771,-12.393476
1790545756.6004,-0.088958,-0.021542,-0.324476,-0.090936,-0.022653,-0.324476,-0.350905,-0.521520,0.503735,1.795423,0.828171,-10.452916
1790545756.6143,-0.083046,-0.012483,-0.315307,-0.085413,-0.015534,-0.315307,-0.704221,-0.661146,0.372608,2.753622,0.976891,-8.085434
1790545756.6272,-0.077766,-0.001501,-0.308602,-0.080060,-0.005711,-0.308602,-0.885128,-0.692714,0.288832,3.098574,1.051251,-7.309210
1790545756.6402,-0.068169,0.008542,-0.298456,-0.071736,0.004266,-0.298456,-0.854774,-0.851766,0.164990,1.105519,0.642271,-7.619700
1790545756.6534,-0.062377,0.018055,-0.293277,-0.065185,0.013919,-0.293277,-0.778283,-0.607724,0.089713,2.753622,1.311511,-10.841028
1790545756.6672,-0.061237,0.022790,-0.287803,-0.062421,0.020129,-0.287803,-0.429825,-0.204628,-0.117905,3.903462,0.828171,-14.605714
1790545756.6812,-0.065100,0.020686,-0.293852,-0.064296,0.020518,-0.293852,0.127467,0.322309,-0.590207,2.140375,1.720491,-13.247322
1790545756.6951,-0.059154,0.018309,-0.301451,-0.060696,0.018972,-0.301451,0.160249,-0.101426,-1.125643,-1.615768,1.348691,-10.569350
1790545756.7090,-0.047636,0.007852,-0.314759,-0.051554,0.011188,-0.314759,0.756392,-0.468097,-1.317478,-1.462456,1.311511,-8.318301
1790545756.7232,-0.044267,0.004936,-0.367611,-0.046453,0.006812,-0.367611,0.464998,-0.214342,-0.801467,1.143847,2.947431,-4.631238
1790545756.7377,-0.030660,-0.002034,-0.370344,-0.035398,0.000620,-0.370344,0.451643,-0.664788,-0.751688,-2.842263,1.311511,-10.724595
1790545756.7518,-0.013125,-0.009028,-0.384718,-0.019807,-0.006134,-0.384718,0.511136,-1.043601,-1.047938,-0.925864,2.426911,-11.733686
1790545756.7658,-0.006959,-0.015433,-0.410273,-0.010814,-0.012643,-0.410273,0.518420,-0.260479,-1.310193,0.223975,2.947431,-9.754315
1790545756.7794,0.001219,-0.019218,-0.434310,-0.002391,-0.017246,-0.434310,0.333871,-0.419532,-1.251914,-0.082648,2.389731,-7.891378
1790545756.7931,0.003312,-0.021654,-0.456572,0.001601,-0.020332,-0.456572,0.251309,-0.026150,-1.056437,0.185647,2.389731,-7.231588
1790545756.8071,0.004923,-0.028186,-0.464495,0.003926,-0.025830,-0.464495,0.410362,0.009061,-0.766257,-0.465928,0.976891,-9.288581
1790545756.8210,-0.002622,-0.028386,-0.476699,-0.000658,-0.027619,-0.476699,-0.014588,0.675625,-0.769900,-0.849208,2.575631,-17.555364
1790545756.8350,-0.008476,-0.019523,-0.481268,-0.006130,-0.021951,-0.481268,-0.699364,0.644057,-0.544069,-3.532167,1.088431,-14.062357
1790545756.8489,-0.015897,-0.005574,-0.477915,-0.012967,-0.010487,-0.477915,-1.102459,0.841962,-0.448152,-2.497311,0.084571,-6.028441
1790545756.8627,-0.020436,0.007593,-0.473350,-0.018195,0.002169,-0.473350,-1.108530,0.505645,-0.358305,-1.079176,-0.361589,-5.834385
1790545756.8767,-0.030444,0.020062,-0.474704,-0.026769,0.014694,-0.474704,-0.964047,0.737546,-0.245390,0.338959,0.456371,-5.368651
1790545756.8905,-0.033573,0.029028,-0.474130,-0.031532,0.024728,-0.474130,-0.739431,0.387873,-0.284243,-1.960720,0.753811,-12.665154
1790545756.9045,-0.028171,0.026315,-0.466978,-0.029179,0.025839,-0.466978,0.087400,-0.403748,0.090927,-0.312616,0.493551,-17.244875
1790545756.9185,-0.028307,0.020032,-0.452819,-0.028568,0.021774,-0.452819,0.395792,-0.131780,0.802414,-0.504256,1.497411,-14.101168
1790545756.9325,-0.036617,0.018423,-0.445212,-0.034202,0.019429,-0.445212,0.144465,0.179040,1.248005,2.561982,2.017931,-8.201867
1790545756.9465,-0.034393,0.007538,-0.417084,-0.034336,0.011105,-0.417084,0.600982,-0.200986,1.030673,-1.577440,-0.659029,-6.106063
1790545756.9604,-0.040681,0.004284,-0.410793,-0.038777,0.006330,-0.410793,0.297447,0.395158,0.621507,-0.772552,3.021791,-10.064805
1790545756.9742,-0.057407,0.002661,-0.409967,-0.051818,0.003761,-0.409967,0.083758,0.956091,0.722281,3.098574,1.571771,-11.617252
1790545756.9886,-0.065961,-0.004866,-0.402328,-0.061718,-0.002278,-0.402328,0.520849,0.369661,0.920186,1.603783,2.203831,-10.336483
1790545757.0022,-0.076404,-0.009294,-0.397586,-0.071999,-0.007189,-0.397586,0.358154,0.544497,0.938398,1.450471,2.426911,-8.745224
1790545757.0159,-0.078672,-0.009537,-0.389144,-0.076670,-0.008832,-0.389144,0.071616,0.067339,0.932328,-0.427600,3.170511,-9.560259
1790545757.0299,-0.078050,-0.010198,-0.380784,-0.077636,-0.009788,-0.380784,0.065545,-0.183988,0.808485,0.492271,2.426911,-9.172147
1790545757.0440,-0.076908,-0.009446,-0.374573,-0.077126,-0.009548,-0.374573,-0.041299,-0.209485,0.605723,0.913879,2.426911,-10.181238
1790545757.0579,-0.069798,-0.006493,-0.365982,-0.071996,-0.007410,-0.365982,-0.248917,-0.639291,0.500093,1.143847,1.832031,-11.966553
1790545757.0718,-0.064836,-0.000446,-0.359695,-0.066984,-0.002535,-0.359695,-0.456536,-0.556730,0.405390,2.945262,2.092291,-12.238231
1790545757.0858,-0.057795,0.006459,-0.352026,-0.060552,0.003761,-0.352026,-0.559738,-0.658718,0.164990,2.485326,0.939711,-11.035084
1790545757.0997,-0.052179,0.016565,-0.355772,-0.054691,0.012724,-0.355772,-0.694507,-0.600439,-0.020774,2.217030,1.571771,-6.183686
1790545757.1136,-0.040274,0.026743,-0.356635,-0.044599,0.022537,-0.356635,-0.726075,-0.971966,-0.139760,1.450471,1.423051,-6.571797
1790545757.1275,-0.031420,0.033505,-0.358052,-0.035374,0.030215,-0.358052,-0.485675,-0.749778,-0.239320,2.140375,1.757671,-8.357112
1790545757.1415,-0.040300,0.028961,-0.367333,-0.038822,0.029337,-0.367333,0.320515,0.761829,-0.585350,0.415615,2.761531,-14.217602
1790545757.1554,-0.034946,0.023570,-0.385136,-0.036109,0.025300,-0.385136,0.417647,-0.043148,-1.242201,-1.845736,2.947431,-12.160609
1790545757.1694,-0.026186,0.017376,-0.402878,-0.029163,0.019754,-0.402878,0.438287,-0.222841,-1.537237,-1.999048,1.980751,-10.530539
1790545757.1832,-0.023917,0.013446,-0.437729,-0.025491,0.015338,-0.437729,0.558487,-0.180346,-1.094076,1.603783,2.649991,-3.311658
1790545757.1972,-0.019574,0.006350,-0.442935,-0.021349,0.009046,-0.442935,0.443144,-0.063788,-0.897385,-0.964192,0.605091,-6.455364
1790545757.2110,-0.005697,-0.005054,-0.451652,-0.010392,-0.000824,-0.451652,0.764891,-0.764348,-1.079506,-1.577440,1.423051,-13.014455
1790545757.2251,0.007494,-0.015716,-0.472521,0.002128,-0.011248,-0.472521,0.761249,-0.750992,-1.342975,0.070663,2.501271,-10.685784
1790545757.2391,0.010224,-0.019933,-0.496411,0.007796,-0.017328,-0.496411,0.387293,-0.117210,-1.228845,1.297159,3.170511,-8.124245
1790545757.2528,0.013996,-0.025127,-0.514863,0.012136,-0.022787,-0.514863,0.355725,-0.092927,-1.153569,-0.465928,1.608951,-8.357112
1790545757.2669,0.018947,-0.030049,-0.537852,0.016903,-0.027870,-0.537852,0.414004,-0.209485,-0.965377,-0.504256,3.319231,-10.064805
1790545757.2813,0.007569,-0.030562,-0.539859,0.010370,-0.029754,-0.539859,-0.060725,0.860174,-0.733475,0.568927,0.828171,-14.450469
1790545757.2951,0.002624,-0.019878,-0.549836,0.004947,-0.022841,-0.549836,-0.808637,0.617346,-0.590207,-4.183743,1.794851,-13.247322
1790545757.3089,-0.000996,-0.007486,-0.540354,0.000787,-0.012092,-0.540354,-1.029611,0.567566,-0.374089,-3.685479,-0.287229,-8.007811
1790545757.3229,-0.007620,0.005442,-0.531761,-0.005098,0.000182,-0.531761,-1.101245,0.747259,-0.289099,-1.960720,-0.547489,-4.864105
1790545757.3367,-0.023712,0.018213,-0.543241,-0.018127,0.012804,-0.543241,-0.744287,1.070221,-0.216251,1.067191,2.055111,-3.660958
1790545757.3509,-0.040322,0.032703,-0.559958,-0.033664,0.026733,-0.559958,-0.767356,1.167352,-0.252675,1.565455,6.367990,-8.395923
1790545757.3648,-0.036387,0.031713,-0.553869,-0.035570,0.030219,-0.553869,-0.060725,-0.152420,-0.063269,-3.953775,-0.212869,-19.884036
1790545757.3788,-0.030765,0.030578,-0.553816,-0.032206,0.030470,-0.553816,0.135966,-0.373394,0.534089,-2.765607,3.356411,-10.841028
1790545757.3927,-0.042812,0.027215,-0.526122,-0.039631,0.028192,-0.526122,0.199101,0.487433,1.069526,2.945262,1.423051,-9.715504
1790545757.4066,-0.041906,0.017327,-0.497297,-0.041223,0.020586,-0.497297,0.485639,-0.225269,1.037958,-0.504256,-1.030829,-6.571797
1790545757.4204,-0.042729,0.008809,-0.500200,-0.042277,0.012342,-0.500200,0.622837,0.226392,0.514663,-2.573967,1.162791,-5.601518
1790545757.4343,-0.061379,0.005213,-0.492689,-0.055648,0.007352,-0.492689,0.263451,1.136999,0.526804,2.025391,1.608951,-7.930189
1790545757.4482,-0.072802,-0.002978,-0.482209,-0.067656,0.000121,-0.482209,0.543917,0.675625,0.784202,0.798895,1.683311,-11.850119
1790545757.4619,-0.080614,-0.010087,-0.472686,-0.076727,-0.007024,-0.472686,0.528134,0.413370,0.931113,0.760567,2.761531,-11.423196
1790545757.4754,-0.087139,-0.012656,-0.466038,-0.084016,-0.010967,-0.466038,0.233097,0.366018,0.967538,-0.044320,3.170511,-9.987182
1790545757.4898,-0.087137,-0.014786,-0.460283,-0.086200,-0.013640,-0.460283,0.176032,-0.045576,0.849766,-0.887536,2.538451,-8.512357
1790545757.5038,-0.087619,-0.016973,-0.451125,-0.087193,-0.015973,-0.451125,0.142036,-0.088071,0.659146,0.952207,2.241011,-11.190329
1790545757.5177,-0.079930,-0.018581,-0.441144,-0.082109,-0.017799,-0.441144,0.041263,-0.636863,0.511020,0.453943,1.051251,-11.888930
1790545757.5317,-0.075114,-0.014183,-0.428772,-0.077213,-0.015268,-0.428772,-0.388544,-0.496023,0.411461,2.178703,0.976891,-12.432287
1790545757.5455,-0.068324,-0.004909,-0.410513,-0.070991,-0.008017,-0.410513,-0.775855,-0.752207,0.368966,3.251886,0.233291,-8.900469
1790545757.5594,-0.060721,0.005134,-0.398793,-0.063802,0.001189,-0.398793,-0.808637,-0.748564,0.185630,2.408670,0.456371,-8.085434
1790545757.5733,-0.049196,0.017739,-0.396461,-0.053577,0.012774,-0.396461,-0.883914,-0.959825,0.133422,1.143847,1.720491,-6.843476
1790545757.5873,-0.046541,0.028125,-0.392957,-0.048652,0.023519,-0.392957,-0.768570,-0.352754,-0.043843,4.171758,2.278191,-13.790679
1790545757.6019,-0.051429,0.025164,-0.392231,-0.050596,0.024671,-0.392231,0.122610,0.392729,-0.514930,1.910407,0.902531,-16.934385
1790545757.6157,-0.048902,0.024086,-0.416426,-0.049410,0.024261,-0.416426,0.183317,-0.001867,-1.086791,0.990535,4.211551,-12.238231
1790545757.6296,-0.039100,0.022305,-0.448351,-0.042193,0.022892,-0.448351,0.244024,-0.318758,-1.372114,-0.810880,1.423051,-3.893825
1790545757.6435,-0.030991,0.018343,-0.477489,-0.034352,0.019707,-0.477489,0.462570,-0.353968,-0.897385,-0.427600,2.092291,-4.087881
1790545757.6574,-0.031752,0.009152,-0.473471,-0.032532,0.012318,-0.473471,0.568200,0.092836,-0.777184,0.990535,0.233291,-5.485084
1790545757.6712,-0.015578,0.001313,-0.491802,-0.020664,0.004614,-0.491802,0.611909,-0.939184,-1.017585,-1.385800,2.798711,-10.879840
1790545757.6852,-0.008321,-0.001604,-0.511613,-0.012024,0.000262,-0.511613,0.259808,-0.370966,-1.316264,1.143847,3.170511,-10.297672
1790545757.6989,-0.009401,-0.002824,-0.535787,-0.010188,-0.001899,-0.535787,0.162677,0.257960,-1.329619,0.607255,2.910251,-8.279490
1790545757.7126,-0.001024,-0.004329,-0.562213,-0.003773,-0.003600,-0.562213,0.132323,-0.298117,-1.295623,-1.385800,1.906391,-7.386832
1790545757.7267,-0.001778,-0.010882,-0.572106,-0.002376,-0.008697,-0.572106,0.406719,0.188754,-1.113502,0.492271,1.125611,-8.434735
1790545757.7412,0.002725,-0.016639,-0.584721,0.001195,-0.014256,-0.584721,0.352083,-0.143921,-0.938665,-0.849208,1.720491,-13.169700
1790545757.7552,-0.006443,-0.012602,-0.602277,-0.004152,-0.013098,-0.602277,-0.261059,0.821322,-0.621774,-1.845736,3.876931,-15.847672
1790545757.7692,-0.011664,0.001013,-0.617937,-0.009410,-0.003220,-0.617937,-0.984687,0.616132,-0.527071,-3.953775,2.575631,-14.760958
1790545757.7832,-0.017009,0.012446,-0.618049,-0.014730,0.007746,-0.618049,-0.915481,0.786111,-0.402015,-3.493839,0.047391,-5.407462
1790545757.7970,-0.030539,0.023671,-0.627249,-0.025796,0.018893,-0.627249,-0.733360,1.069007,-0.264817,-0.120976,1.237151,-3.583336
1790545757.8110,-0.040513,0.031434,-0.634873,-0.036098,0.027672,-0.634873,-0.471105,0.789754,-0.222322,-0.082648,1.720491,-4.825294
1790545757.8250,-0.016323,0.019292,-0.636083,-0.022256,0.021806,-0.636083,0.794031,-1.592393,-0.122762,-2.688951,0.679451,-10.220049
1790545757.8388,-0.029506,0.017220,-0.595335,-0.027331,0.018596,-0.595335,0.268307,0.568780,0.678572,6.433109,5.624391,-13.014455
1790545757.8527,-0.040311,0.010710,-0.584792,-0.036417,0.013076,-0.584792,0.411576,0.650128,0.956610,-0.810880,1.385871,-14.217602
1790545757.8665,-0.038752,0.004965,-0.562484,-0.038052,0.007398,-0.562484,0.380008,-0.396463,1.341493,0.568927,1.423051,-9.987182
1790545757.8804,-0.043247,-0.002693,-0.547096,-0.041688,0.000334,-0.547096,0.390936,0.209394,0.977251,-0.542584,-0.473129,-6.416553
1790545757.8942,-0.057435,-0.006315,-0.523155,-0.052711,-0.004320,-0.523155,0.212457,0.662269,1.109592,3.060246,1.051251,-8.822846
1790545757.9082,-0.067641,-0.014146,-0.506473,-0.063162,-0.011199,-0.506473,0.529348,0.503216,1.173942,0.952207,1.534591,-9.133336
1790545757.9218,-0.077692,-0.020632,-0.498285,-0.073333,-0.017802,-0.498285,0.505065,0.591849,1.090166,0.223975,3.096151,-11.384385
1790545757.9354,-0.084427,-0.021867,-0.492838,-0.081099,-0.020647,-0.492838,0.111683,0.406085,0.991821,-0.427600,2.835891,-10.685784
1790545757.9492,-0.086245,-0.022394,-0.483008,-0.084701,-0.021870,-0.483008,0.002410,0.028487,0.979679,-0.197632,1.869211,-10.297672
1790545757.9629,-0.081596,-0.022489,-0.472086,-0.082528,-0.022303,-0.472086,-0.037657,-0.451099,0.752635,0.453943,1.720491,-11.306763
1790545757.9769,-0.073141,-0.020419,-0.461623,-0.075957,-0.020984,-0.461623,-0.237990,-0.673287,0.566871,-0.082648,0.716631,-12.005364
1790545757.9910,-0.068987,-0.013749,-0.447767,-0.071078,-0.015920,-0.447767,-0.552453,-0.449885,0.387178,1.680439,0.530731,-9.016902
1790545758.0051,-0.063432,-0.005979,-0.434411,-0.065726,-0.008961,-0.434411,-0.616802,-0.600439,0.246337,2.255358,0.642271,-7.503266
1790545758.0190,-0.055502,0.001631,-0.426756,-0.058569,-0.001547,-0.426756,-0.579164,-0.691499,0.093355,1.488799,1.051251,-7.891378
1790545758.0330,-0.046479,0.011490,-0.419814,-0.050106,0.007579,-0.419814,-0.757643,-0.811700,-0.070554,3.481854,1.311511,-11.811308
1790545758.0468,-0.042154,0.022752,-0.417790,-0.044540,0.018200,-0.417790,-0.865702,-0.485095,-0.232035,5.014973,1.497411,-13.363756
1790545758.0607,-0.043190,0.024501,-0.416680,-0.043595,0.022611,-0.416680,-0.231919,0.098907,-0.673982,2.906934,0.307651,-14.644525
1790545758.0746,-0.042892,0.020714,-0.433073,-0.043103,0.021283,-0.433073,0.262236,0.296812,-1.083148,-1.462456,1.497411,-9.521448
1790545758.0885,-0.025762,0.013288,-0.491619,-0.030964,0.015687,-0.491619,0.588841,-0.625936,-1.259199,-3.110559,1.014071,-3.855014
1790545758.1023,-0.020468,0.010109,-0.512132,-0.023617,0.011782,-0.512132,0.359368,-0.200986,-0.842748,-0.235960,1.720491,-4.010259
1790545758.1162,-0.013835,0.004109,-0.522806,-0.016769,0.006411,-0.522806,0.394578,-0.266550,-0.828178,-1.615768,1.757671,-12.898021
1790545758.1301,-0.002000,-0.004221,-0.537123,-0.006431,-0.001032,-0.537123,0.565772,-0.657503,-1.221560,-0.159304,2.166651,-13.441378
1790545758.1440,0.010028,-0.012802,-0.558375,0.005090,-0.009271,-0.558375,0.580342,-0.589512,-1.533595,-0.964192,2.017931,-10.879840
1790545758.1578,0.015851,-0.015448,-0.576581,0.012623,-0.013595,-0.576581,0.304731,-0.341827,-1.294409,0.875551,2.352551,-4.980539
1790545758.1731,0.022824,-0.022563,-0.592839,0.019764,-0.019872,-0.592839,0.422503,-0.284762,-1.056437,-0.619240,1.385871,-8.357112
1790545758.1876,0.031665,-0.029756,-0.616006,0.028095,-0.026791,-0.616006,0.609481,-0.424388,-0.978732,-1.270816,4.100011,-8.861658
1790545758.2029,0.018107,-0.030786,-0.622122,0.021104,-0.029588,-0.622122,-0.014588,0.936665,-0.831821,1.258831,1.423051,-14.062357
1790545758.2175,0.013449,-0.016664,-0.639520,0.015746,-0.020541,-0.639520,-1.010184,0.560281,-0.652128,-4.605350,2.464091,-16.352217
1790545758.2323,0.009300,-0.003174,-0.648660,0.011234,-0.008384,-0.648660,-1.023540,0.588206,-0.454223,-3.570495,-0.026969,-7.542077
1790545758.2466,-0.001445,0.009328,-0.650878,0.002358,0.004015,-0.650878,-1.067249,0.990087,-0.306097,-1.385800,-0.547489,-4.243126
1790545758.2603,-0.016696,0.018436,-0.646143,-0.010980,0.014110,-0.646143,-0.801352,1.038653,-0.303669,1.297159,-0.064149,-5.562707
1790545758.2745,-0.010757,0.014235,-0.649888,-0.010824,0.014197,-0.649888,0.284091,-0.316330,-0.240534,-1.845736,2.649991,-14.838581
1790545758.2886,-0.016093,0.010460,-0.638891,-0.014512,0.011581,-0.638891,0.269521,0.160828,0.507378,2.715294,2.426911,-13.635434
1790545758.3026,-0.027044,0.008180,-0.625751,-0.023284,0.009201,-0.625751,0.109255,0.635558,0.960253,-0.465928,1.014071,-12.121798
1790545758.3164,-0.034709,0.003537,-0.605087,-0.031282,0.005236,-0.605087,0.354511,0.149901,1.294142,2.600310,1.832031,-8.589979
1790545758.3304,-0.033724,-0.004801,-0.589587,-0.032991,-0.001790,-0.589587,0.490495,-0.085643,0.961467,-2.535639,-0.026969,-9.715504
1790545758.3445,-0.054602,-0.008637,-0.579075,-0.048119,-0.006583,-0.579075,0.273164,1.156425,0.858265,2.830278,1.423051,-7.619700
1790545758.3587,-0.069621,-0.016859,-0.568927,-0.063171,-0.013776,-0.568927,0.539061,0.951235,0.809699,0.262303,1.274331,-10.375294
1790545758.3727,-0.078579,-0.023185,-0.559072,-0.073956,-0.020362,-0.559072,0.458927,0.506859,0.954182,0.338959,2.501271,-10.841028
1790545758.3863,-0.087227,-0.025991,-0.551821,-0.083246,-0.024303,-0.551821,0.237954,0.580921,0.943255,-0.734224,2.761531,-9.987182
1790545758.3999,-0.088453,-0.027107,-0.542193,-0.086891,-0.026266,-0.542193,0.094685,0.000562,0.956610,-0.274288,2.538451,-9.715504
1790545758.4139,-0.089779,-0.028758,-0.532909,-0.088913,-0.028010,-0.532909,0.106826,-0.004295,0.772061,0.338959,1.980751,-9.676693
1790545758.4277,-0.083258,-0.030429,-0.522443,-0.084954,-0.029704,-0.522443,0.063117,-0.561586,0.660360,0.415615,1.534591,-12.898021
1790545758.4417,-0.079461,-0.028177,-0.511328,-0.081109,-0.028635,-0.511328,-0.233133,-0.434101,0.449099,2.446998,0.865351,-12.121798
1790545758.4557,-0.072960,-0.021700,-0.498416,-0.075405,-0.023780,-0.498416,-0.547596,-0.690285,0.410246,2.906934,0.493551,-9.443825
1790545758.4696,-0.066546,-0.010973,-0.489615,-0.069204,-0.014815,-0.489615,-0.812279,-0.704855,0.286404,2.715294,0.865351,-7.309210
1790545758.4837,-0.056186,-0.001147,-0.481154,-0.060092,-0.005247,-0.481154,-0.772213,-0.800772,0.130994,0.492271,0.456371,-6.571797
1790545758.4979,-0.048399,0.007278,-0.476070,-0.051907,0.003520,-0.476070,-0.650798,-0.685429,0.008365,2.600310,1.014071,-11.151518
1790545758.5118,-0.048406,0.012529,-0.473741,-0.049456,0.009826,-0.473741,-0.479604,-0.146350,-0.211394,5.283269,0.121751,-15.692427
1790545758.5258,-0.049394,0.013708,-0.482982,-0.049413,0.012543,-0.482982,-0.095935,0.138974,-0.717692,1.872079,2.092291,-13.829490
1790545758.5398,-0.047744,0.010511,-0.507673,-0.048245,0.011121,-0.507673,0.326586,0.123190,-1.189993,-0.120976,2.947431,-9.366203
1790545758.5537,-0.034726,0.004845,-0.536300,-0.038782,0.006728,-0.536300,0.515992,-0.532447,-1.398825,-0.925864,1.162791,-3.350469
1790545758.5676,-0.028013,0.000469,-0.559548,-0.031244,0.002347,-0.559548,0.473497,-0.375823,-0.779613,0.262303,2.575631,-5.601518
1790545758.5816,-0.021985,-0.006024,-0.565380,-0.024763,-0.003513,-0.565380,0.435859,-0.375823,-0.802681,1.488799,1.683311,-12.587532
1790545758.5955,-0.006847,-0.011239,-0.584905,-0.012222,-0.008921,-0.584905,0.416433,-0.855409,-1.129286,-1.500784,3.058971,-11.850119
1790545758.6092,-0.000818,-0.019016,-0.603742,-0.004239,-0.015987,-0.603742,0.554845,-0.244695,-1.325977,-0.082648,2.166651,-11.151518
1790545758.6228,0.001514,-0.020942,-0.630472,-0.000212,-0.019456,-0.630472,0.279234,-0.017651,-1.165710,0.108991,3.021791,-6.610609
1790545758.6367,0.009750,-0.025924,-0.643247,0.006761,-0.023983,-0.643247,0.327800,-0.431673,-0.910740,-0.657568,1.162791,-7.697322
1790545758.6506,0.013724,-0.035217,-0.649378,0.011635,-0.031847,-0.649378,0.599768,-0.193701,-0.768685,-0.159304,0.753811,-9.016902
1790545758.6645,0.003470,-0.035819,-0.660497,0.005920,-0.034627,-0.660497,0.041263,0.807966,-0.598706,-0.082648,3.282051,-17.749420
1790545758.6786,-0.005487,-0.022356,-0.671126,-0.002065,-0.026038,-0.671126,-0.993186,0.882029,-0.473649,-4.835318,1.832031,-15.265504
1790545758.6926,-0.009016,-0.009838,-0.671566,-0.006931,-0.014698,-0.671566,-1.010184,0.505645,-0.385017,-3.723807,-0.175689,-10.685784
1790545758.7066,-0.016820,0.006459,-0.667086,-0.013853,0.000112,-0.667086,-1.160738,1.059293,-0.298813,-3.570495,0.716631,-3.272846
1790545758.7206,-0.030102,0.016073,-0.674907,-0.025227,0.011285,-0.674907,-0.761285,1.126071,-0.177398,-0.964192,0.344831,-4.670049
1790545758.7347,-0.024052,0.011866,-0.679520,-0.024405,0.011692,-0.679520,0.220956,-0.156063,-0.202895,-2.458983,0.270471,-5.601518
1790545758.7490,-0.025590,0.003557,-0.665544,-0.025235,0.005998,-0.665544,0.682330,-0.098998,0.455170,3.175230,5.401311,-14.722147
1790545758.7630,-0.037990,0.001931,-0.651952,-0.034164,0.003151,-0.651952,0.101970,0.675625,1.018532,0.990535,2.055111,-13.169700
1790545758.7770,-0.041259,-0.002596,-0.631010,-0.039131,-0.000872,-0.631010,0.264665,-0.066216,1.381560,1.297159,1.199971,-12.548721
1790545758.7909,-0.045094,-0.014008,-0.617255,-0.043305,-0.010067,-0.617255,0.616766,0.118333,0.925043,0.108991,-0.993649,-6.261308
1790545758.8049,-0.066962,-0.019813,-0.601903,-0.059865,-0.016889,-0.601903,0.432216,1.116358,0.932328,4.095102,1.385871,-6.067252
1790545758.8189,-0.082658,-0.029373,-0.588769,-0.075820,-0.025628,-0.588769,0.626479,0.907526,0.988178,1.872079,1.237151,-10.685784
1790545758.8328,-0.093854,-0.034123,-0.579014,-0.088444,-0.031575,-0.579014,0.384865,0.644057,1.062241,1.067191,3.319231,-10.763406
1790545758.8464,-0.101321,-0.035994,-0.567872,-0.097458,-0.034668,-0.567872,0.120182,0.451008,1.092594,-0.159304,2.649991,-11.772497
1790545758.8600,-0.106448,-0.038711,-0.556659,-0.103751,-0.037498,-0.556659,0.195459,0.268887,1.099879,0.108991,2.649991,-10.258860
1790545758.8739,-0.108125,-0.041325,-0.544320,-0.106813,-0.040177,-0.544320,0.118968,0.007846,0.915330,0.607255,1.423051,-10.414105
1790545758.8878,-0.102826,-0.041493,-0.536329,-0.104022,-0.041098,-0.536329,-0.025515,-0.413461,0.657931,-0.312616,1.869211,-11.617252
1790545758.9020,-0.096806,-0.038940,-0.527472,-0.098971,-0.039587,-0.527472,-0.231919,-0.519091,0.490380,1.105519,1.237151,-10.685784
1790545758.9160,-0.088970,-0.030657,-0.516369,-0.091971,-0.033336,-0.516369,-0.653227,-0.733994,0.365323,2.523654,0.865351,-9.793126
1790545758.9300,-0.084082,-0.020629,-0.504098,-0.086448,-0.024441,-0.504098,-0.802566,-0.598011,0.217198,4.325070,0.382011,-10.142427
1790545758.9440,-0.070964,-0.006829,-0.500708,-0.075609,-0.012113,-0.500708,-0.993186,-1.054528,-0.025631,1.872079,1.423051,-8.318301
1790545758.9579,-0.061043,0.007125,-0.498340,-0.065413,0.001354,-0.498340,-1.011399,-0.912473,-0.153115,3.290214,1.348691,-7.930189
1790545758.9717,-0.050125,0.021614,-0.498618,-0.054712,0.015536,-0.498618,-1.038110,-0.922186,-0.232035,2.370342,1.683311,-7.891378
1790545758.9866,-0.053987,0.021504,-0.499723,-0.054205,0.019714,-0.499723,-0.065582,0.298026,-0.656984,3.213558,0.828171,-16.313406
1790545759.0010,-0.052627,0.016203,-0.516199,-0.053101,0.017256,-0.516199,0.373938,0.221535,-1.194849,-1.615768,2.166651,-13.829490
1790545759.0151,-0.043686,0.011284,-0.540206,-0.046511,0.013076,-0.540206,0.386079,-0.256837,-1.621013,-1.424128,2.575631,-12.432287
1790545759.0290,-0.036262,0.010372,-0.577870,-0.039337,0.011183,-0.577870,0.299875,-0.463241,-1.105003,0.952207,2.241011,-3.622147
1790545759.0429,-0.034747,0.003492,-0.583405,-0.036124,0.005800,-0.583405,0.444358,0.029701,-0.801467,0.108991,0.679451,-7.115154
1790545759.0569,-0.017336,-0.006593,-0.591737,-0.022973,-0.002875,-0.591737,0.621623,-0.917330,-1.168138,-2.803935,0.121751,-11.229140
1790545759.0759,-0.006233,-0.012998,-0.624390,-0.011255,-0.009961,-0.624390,0.380008,-0.389178,-1.442534,0.683911,3.467951,-10.685784
1790545759.0893,-0.003143,-0.014517,-0.648880,-0.005577,-0.013150,-0.648880,0.206386,-0.105069,-1.308979,0.952207,3.096151,-8.279490
1790545759.1032,0.001033,-0.019017,-0.667795,-0.000950,-0.017257,-0.667795,0.280449,-0.028578,-1.194849,-1.385800,1.199971,-8.279490
1790545759.1173,0.005096,-0.026942,-0.682461,0.003283,-0.024036,-0.682461,0.524491,-0.058931,-0.880387,-1.692424,1.088431,-8.473546
1790545759.1313,-0.008038,-0.021523,-0.694252,-0.004642,-0.022277,-0.694252,-0.398257,1.020441,-0.756544,0.760567,3.021791,-16.623896
1790545759.1452,-0.008918,-0.008134,-0.702892,-0.007635,-0.012377,-0.702892,-1.045395,0.349020,-0.581708,-5.256926,0.679451,-15.149070
1790545759.1591,-0.013029,0.007487,-0.711168,-0.011411,0.001528,-0.711168,-1.229944,0.673196,-0.580493,-3.953775,0.158931,-7.930189
1790545759.1730,-0.020913,0.027280,-0.722464,-0.018062,0.019555,-0.722464,-1.214160,1.060508,-0.428726,-2.918919,2.166651,-2.651867
1790545759.1871,-0.025281,0.037286,-0.735598,-0.023115,0.031967,-0.735598,-0.802566,0.577279,-0.443295,-1.730752,0.382011,-6.106063
1790545759.2010,0.000003,0.024288,-0.739530,-0.006933,0.026591,-0.739530,0.817099,-1.677383,-0.404443,-2.995575,0.158931,-16.740329
1790545759.2151,-0.018406,0.018052,-0.703417,-0.014964,0.020614,-0.703417,0.546346,0.838320,0.903188,7.391308,4.657711,-12.354665
1790545759.2290,-0.031240,0.011035,-0.698361,-0.026357,0.013909,-0.698361,0.416433,0.906312,0.931113,-2.957247,0.382011,-12.626343
1790545759.2432,-0.029354,0.005045,-0.677839,-0.028455,0.007704,-0.677839,0.422503,-0.403748,1.365776,0.223975,1.906391,-10.491728
1790545759.2575,-0.031681,-0.001803,-0.666699,-0.030713,0.001049,-0.666699,0.361796,0.074624,1.027031,-1.117504,-0.175689,-7.076343
1790545759.2715,-0.043911,-0.000981,-0.651375,-0.039952,-0.000372,-0.651375,-0.009731,0.656198,1.114449,0.645583,2.575631,-9.443825
1790545759.2856,-0.054905,-0.008449,-0.634828,-0.050419,-0.006026,-0.634828,0.461356,0.500788,1.133875,1.565455,0.716631,-8.667602
1790545759.2993,-0.064289,-0.011360,-0.622141,-0.060128,-0.009760,-0.622141,0.274378,0.510501,0.979679,0.683911,3.021791,-9.637881
1790545759.3129,-0.067355,-0.011766,-0.612257,-0.065187,-0.011164,-0.612257,0.059475,0.147473,0.881334,-0.657568,2.464091,-9.249770
1790545759.3268,-0.068153,-0.010353,-0.601812,-0.067263,-0.010596,-0.601812,-0.066796,-0.048004,0.779346,-0.005993,2.835891,-10.258860
1790545759.3409,-0.065208,-0.009055,-0.592914,-0.065825,-0.009517,-0.592914,-0.093507,-0.321186,0.521948,0.760567,2.203831,-10.957462
1790545759.3550,-0.060949,-0.006308,-0.585917,-0.062412,-0.007271,-0.585917,-0.195495,-0.394035,0.353182,0.760567,1.906391,-9.909560
1790545759.3690,-0.052954,-0.001908,-0.579594,-0.055791,-0.003517,-0.579594,-0.313267,-0.662360,0.205056,1.067191,2.017931,-10.569350
1790545759.3829,-0.046262,0.004522,-0.572221,-0.049121,0.002110,-0.572221,-0.516029,-0.628364,0.041147,2.676966,1.125611,-11.578441
1790545759.3969,-0.039323,0.013450,-0.568306,-0.042263,0.010048,-0.568306,-0.665368,-0.621079,-0.190754,2.485326,1.385871,-9.482637
1790545759.4109,-0.032924,0.023363,-0.567251,-0.035726,0.019368,-0.567251,-0.701792,-0.578584,-0.304883,2.293686,1.646131,-7.697322
1790545759.4247,-0.030425,0.027634,-0.569206,-0.032015,0.025154,-0.569206,-0.324194,-0.237410,-0.466364,2.830278,2.092291,-11.500819
1790545759.4386,-0.036802,0.022722,-0.575719,-0.035366,0.023451,-0.575719,0.301089,0.523857,-0.705550,1.987063,1.534591,-13.441378
1790545759.4526,-0.035991,0.019958,-0.598131,-0.035803,0.021006,-0.598131,0.263451,0.213036,-1.271340,-0.235960,2.873071,-9.637881
1790545759.4668,-0.029050,0.013175,-0.618516,-0.031076,0.015525,-0.618516,0.438287,-0.148778,-1.514169,-0.887536,1.162791,-9.754315
1790545759.4808,-0.026869,0.008122,-0.639122,-0.028131,0.010343,-0.639122,0.421289,0.001776,-1.363615,1.143847,2.129471,-7.076343
1790545759.4948,-0.020166,0.002477,-0.649853,-0.022556,0.004837,-0.649853,0.417647,-0.453528,-1.003015,2.370342,2.129471,-9.482637
1790545759.5092,0.002425,-0.007562,-0.665171,-0.005069,-0.003842,-0.665171,0.616766,-1.274288,-1.200920,-2.458983,0.642271,-10.802217
1790545759.5231,0.011275,-0.019845,-0.679519,0.006372,-0.015044,-0.679519,0.797673,-0.454742,-1.327191,0.070663,1.237151,-12.238231
1790545759.5367,0.019735,-0.025658,-0.702456,0.015726,-0.022474,-0.702456,0.467426,-0.455956,-1.332047,0.032335,2.910251,-9.210958
1790545759.5504,0.022049,-0.031064,-0.716929,0.020152,-0.028487,-0.716929,0.399435,-0.114782,-1.051581,1.067191,2.352551,-9.715504
1790545759.5644,0.011795,-0.032003,-0.729088,0.014302,-0.030948,-0.729088,0.019408,0.817679,-0.915597,0.492271,1.534591,-10.220049
1790545759.5783,0.007567,-0.029659,-0.738304,0.009588,-0.030046,-0.738304,-0.288984,0.489861,-0.755330,-2.152360,0.047391,-13.829490
1790545759.5922,0.006113,-0.024744,-0.746654,0.007156,-0.026334,-0.746654,-0.506315,0.328380,-0.575637,-3.148887,-0.844929,-11.888930
1790545759.6061,0.002124,-0.012650,-0.760131,0.003634,-0.016756,-0.760131,-0.959190,0.568780,-0.409299,-2.918919,0.233291,-7.231588
1790545759.6202,-0.008815,0.001637,-0.764975,-0.005080,-0.003881,-0.764975,-1.074534,0.854103,-0.295170,-0.312616,0.530731,-5.873196
1790545759.6342,-0.020090,0.014103,-0.773531,-0.015587,0.008708,-0.773531,-0.943407,0.986445,-0.372875,-1.155832,0.790991,-6.727042
1790545759.6480,-0.027086,0.028431,-0.780301,-0.023636,0.022514,-0.780301,-1.051465,0.675625,-0.217465,-1.462456,1.423051,-7.542077
1790545759.6619,-0.022717,0.025100,-0.777066,-0.022993,0.024324,-0.777066,0.106826,-0.322400,0.110353,-0.772552,-0.361589,-18.059910
1790545759.6759,-0.019780,0.020424,-0.765895,-0.020744,0.021594,-0.765895,0.321729,-0.421960,0.724709,1.105519,2.017931,-12.277042
1790545759.6899,-0.028072,0.015835,-0.753196,-0.025874,0.017563,-0.753196,0.305946,0.159614,1.137518,3.635166,1.311511,-9.560259
1790545759.7039,-0.022344,0.012354,-0.747454,-0.023403,0.013917,-0.747454,0.369081,-0.317544,0.818198,-4.298727,3.579491,-8.473546
1790545759.7179,-0.030664,0.011408,-0.740856,-0.028485,0.012161,-0.740856,0.087400,0.457079,0.571727,0.568927,1.869211,-8.512357
1790545759.7317,-0.045323,0.007587,-0.733633,-0.040272,0.008959,-0.733633,0.245238,0.828606,0.591154,2.983590,1.683311,-12.238231
1790545759.7458,-0.055880,-0.000644,-0.725687,-0.051198,0.002237,-0.725687,0.624051,0.535998,0.772061,1.450471,2.278191,-8.434735
1790545759.7599,-0.065788,-0.002274,-0.720756,-0.061411,-0.000921,-0.720756,0.254952,0.512930,0.874049,1.028863,4.062831,-8.473546
1790545759.7736,-0.070615,-0.002921,-0.715224,-0.067854,-0.002321,-0.715224,0.152964,0.215465,0.820626,0.377287,3.691031,-8.978091
1790545759.7876,-0.070692,-0.004448,-0.706349,-0.069841,-0.003810,-0.706349,0.138394,-0.146350,0.702855,0.913879,2.724351,-9.987182
1790545759.8016,-0.069346,-0.005050,-0.697327,-0.069494,-0.004678,-0.697327,0.055832,-0.245909,0.588725,1.143847,2.315371,-9.793126
1790545759.8156,-0.067072,-0.004830,-0.690154,-0.067799,-0.004785,-0.690154,0.012123,-0.292047,0.500093,1.067191,2.575631,-10.064805
1790545759.8295,-0.060170,-0.000785,-0.686839,-0.062459,-0.001985,-0.686839,-0.194281,-0.598011,0.419960,0.760567,3.914111,-10.414105
1790545759.8436,-0.055318,0.002599,-0.676742,-0.057460,0.001224,-0.676742,-0.250131,-0.483881,0.377465,1.603783,2.241011,-12.005364
1790545759.8576,-0.046938,0.005555,-0.660365,-0.050095,0.004255,-0.660365,-0.258630,-0.799558,0.258479,2.945262,1.423051,-11.656063
1790545759.8716,-0.040367,0.014478,-0.644433,-0.043285,0.011411,-0.644433,-0.671439,-0.735209,0.020507,4.171758,1.385871,-9.172147
1790545759.8857,-0.031462,0.028171,-0.642509,-0.035009,0.023143,-0.642509,-0.919124,-0.844481,-0.119119,3.021918,2.241011,-7.309210
1790545759.8997,-0.020790,0.040529,-0.641805,-0.025056,0.035313,-0.641805,-0.857203,-0.859051,-0.327952,1.833751,1.943571,-7.309210
1790545759.9137,-0.034467,0.032284,-0.637550,-0.031643,0.033192,-0.637550,0.467426,1.052009,-0.612061,1.987063,0.456371,-15.420749
1790545759.9277,-0.031350,0.025578,-0.657909,-0.031438,0.027862,-0.657909,0.495352,0.066125,-1.253128,-0.810880,3.393591,-15.149070
1790545759.9416,-0.026993,0.021211,-0.675561,-0.028326,0.023207,-0.675561,0.281663,-0.027364,-1.629512,0.492271,1.385871,-8.822846
1790545759.9556,-0.025565,0.017553,-0.693350,-0.026393,0.019249,-0.693350,0.291376,0.015131,-1.158425,1.450471,2.055111,-8.007811
1790545759.9695,-0.019103,0.012757,-0.710219,-0.021290,0.014705,-0.710219,0.308374,-0.165776,-1.158425,-1.040848,1.014071,-7.076343
1790545759.9834,-0.004202,0.001797,-0.735798,-0.009329,0.005669,-0.735798,0.784318,-0.721853,-1.245843,-2.305671,1.720491,-8.900469
1790545759.9970,0.009756,-0.009066,-0.754595,0.004030,-0.004645,-0.754595,0.762463,-0.777704,-1.400039,-0.657568,1.943571,-10.491728
1790545760.0111,0.016551,-0.014690,-0.777522,0.012795,-0.011676,-0.777522,0.432216,-0.370966,-1.328405,1.143847,2.798711,-8.900469
1790545760.0253,0.021734,-0.019069,-0.796746,0.019052,-0.016851,-0.796746,0.276806,-0.179131,-1.221560,-0.389272,1.720491,-8.551168
1790545760.0392,0.014632,-0.024806,-0.800787,0.015958,-0.022419,-0.800787,0.231883,0.661055,-1.141427,-0.005993,-0.361589,-12.471098
1790545760.0531,0.008662,-0.014452,-0.826639,0.010851,-0.016842,-0.826639,-0.758857,0.709621,-0.931381,-3.608823,2.947431,-14.411658
1790545760.0670,0.005399,-0.002516,-0.837653,0.007035,-0.006814,-0.837653,-1.027182,0.532356,-0.705550,-3.187215,-0.621849,-9.637881
1790545760.0809,0.005526,0.010822,-0.862760,0.005979,0.005531,-0.862760,-1.079391,0.435224,-0.570780,-3.762135,-0.138509,-5.368651
1790545760.0948,-0.007445,0.023249,-0.866272,-0.003418,0.017934,-0.866272,-1.021112,1.041081,-0.473649,-0.120976,0.158931,-6.067252
1790545760.1087,-0.016230,0.036427,-0.881011,-0.012387,0.030879,-0.881011,-0.911839,0.871101,-0.388659,-1.922392,2.166651,-7.309210
1790545760.1226,-0.011866,0.038258,-0.878724,-0.012023,0.036044,-0.878724,-0.223420,-0.260479,-0.035344,-2.152360,1.274331,-20.582637
1790545760.1366,-0.005401,0.032549,-0.865307,-0.007387,0.033598,-0.865307,0.324158,-0.574942,0.682214,-1.347472,0.493551,-13.130889
1790545760.1505,-0.013925,0.026658,-0.849512,-0.011963,0.028740,-0.849512,0.376366,0.406085,1.108378,-0.350944,0.865351,-9.560259
1790545760.1644,-0.005146,0.019533,-0.835466,-0.007191,0.022295,-0.835466,0.431002,-0.544588,0.978465,-3.378855,0.010211,-5.834385
1790545760.1783,-0.008769,0.015405,-0.827693,-0.008296,0.017472,-0.827693,0.361796,0.204537,0.631220,-0.925864,2.055111,-7.309210
1790545760.1922,-0.026293,0.012785,-0.820377,-0.020894,0.014191,-0.820377,0.201529,0.973089,0.642148,2.676966,1.720491,-8.473546
1790545760.2060,-0.039429,0.002892,-0.809845,-0.033868,0.006282,-0.809845,0.673831,0.736332,0.840053,1.412143,1.348691,-11.539630
1790545760.2196,-0.049446,-0.002031,-0.799882,-0.044773,0.000463,-0.799882,0.400649,0.539641,0.906831,0.952207,2.575631,-9.948371
1790545760.2333,-0.055450,-0.003339,-0.790882,-0.052247,-0.002199,-0.790882,0.165105,0.290741,0.875263,0.300631,3.058971,-9.482637
1790545760.2476,-0.055090,-0.005586,-0.781050,-0.054237,-0.004569,-0.781050,0.199101,-0.140279,0.806057,-0.159304,2.538451,-8.978091
1790545760.2629,-0.055756,-0.005207,-0.771087,-0.055300,-0.005016,-0.771087,-0.013374,-0.100212,0.636077,0.875551,2.203831,-9.870749
1790545760.2774,-0.050811,-0.002152,-0.762432,-0.052157,-0.003011,-0.762432,-0.144501,-0.511806,0.553515,1.373815,3.133331,-9.676693
1790545760.2916,-0.043756,-0.000445,-0.752303,-0.046277,-0.001215,-0.752303,-0.099578,-0.663574,0.547445,1.565455,3.058971,-13.169700
1790545760.3064,-0.037914,0.005237,-0.738423,-0.040423,0.003301,-0.738423,-0.450465,-0.600439,0.373822,2.638638,0.790991,-11.035084
1790545760.3205,-0.031402,0.013272,-0.728513,-0.034108,0.010281,-0.728513,-0.619231,-0.684215,0.162561,2.600310,0.865351,-8.163056
1790545760.3346,-0.024599,0.023910,-0.725175,-0.027452,0.019821,-0.725175,-0.752786,-0.765562,0.026578,2.906934,1.199971,-5.912007
1790545760.3492,-0.015278,0.033246,-0.725199,-0.018930,0.029219,-0.725199,-0.607089,-0.784988,-0.043843,1.948735,2.315371,-8.434735
1790545760.3634,-0.022532,0.030418,-0.725274,-0.021451,0.030059,-0.725274,0.146893,0.398800,-0.381374,4.631693,1.794851,-13.402567
1790545760.3777,-0.022210,0.027041,-0.742022,-0.021982,0.027946,-0.742022,0.230669,0.245818,-1.030940,-1.309144,2.724351,-12.936833
1790545760.3919,-0.016903,0.022504,-0.763315,-0.018427,0.024136,-0.763315,0.305946,-0.043148,-1.440106,-0.964192,2.241011,-10.918651
1790545760.4059,-0.017559,0.017440,-0.778838,-0.017820,0.019449,-0.778838,0.373938,-0.028578,-0.999372,2.332014,1.162791,-4.708860
1790545760.4202,-0.014849,0.010739,-0.781720,-0.015740,0.013352,-0.781720,0.370295,-0.004295,-0.863389,-0.504256,0.493551,-9.327392
1790545760.4342,-0.002869,-0.001210,-0.789372,-0.006730,0.003158,-0.789372,0.791602,-0.658718,-0.995730,-1.079176,1.385871,-13.286133
1790545760.4478,0.012578,-0.008762,-0.815174,0.006786,-0.005186,-0.815174,0.588841,-0.869978,-1.328405,-1.309144,3.133331,-10.763406
1790545760.4614,0.012608,-0.010885,-0.844320,0.010861,-0.009175,-0.844320,0.228241,0.046699,-1.278625,2.063719,3.207691,-8.473546
1790545760.4750,0.015744,-0.012082,-0.865317,0.014279,-0.011210,-0.865317,0.105612,-0.106283,-1.169352,0.530599,2.278191,-8.240679
1790545760.4890,0.020141,-0.015199,-0.888140,0.018382,-0.014003,-0.888140,0.230669,-0.094142,-1.017585,-1.385800,2.389731,-9.560259
1790545760.5028,0.016961,-0.018471,-0.908823,0.017388,-0.017130,-0.908823,0.280449,0.386659,-0.693409,-1.424128,3.542311,-12.432287
1790545760.5174,0.005135,-0.012000,-0.921712,0.008811,-0.013539,-0.921712,-0.460178,0.945164,-0.506431,-1.615768,2.910251,-15.847672
1790545760.5315,-0.004494,0.001118,-0.927678,-0.000502,-0.003279,-0.927678,-1.022326,0.941522,-0.405657,-3.723807,0.567911,-11.190329
1790545760.5453,-0.008006,0.011779,-0.923776,-0.005755,0.007261,-0.923776,-0.911839,0.630701,-0.304883,-3.608823,-0.361589,-5.756762
1790545760.5592,-0.016729,0.022724,-0.931152,-0.013437,0.018085,-0.931152,-0.823207,0.840748,-0.145831,-1.194160,0.567911,-3.893825
1790545760.5732,-0.014457,0.021011,-0.926561,-0.014151,0.020134,-0.926561,0.063117,-0.200986,-0.145831,1.067191,1.311511,-12.471098
1790545760.5871,-0.018296,0.020321,-0.917214,-0.017053,0.020265,-0.917214,0.224598,-0.039505,0.456384,4.785005,5.959010,-10.957462
1790545760.6009,-0.032383,0.017984,-0.899250,-0.027784,0.018668,-0.899250,0.223384,0.659841,1.099879,3.213558,3.319231,-11.578441
1790545760.6149,-0.043994,0.013805,-0.875656,-0.039131,0.015264,-0.875656,0.326586,0.408513,1.510259,2.446998,2.426911,-9.327392
1790545760.6288,-0.047872,0.005261,-0.854904,-0.045250,0.008262,-0.854904,0.517206,0.126832,1.364562,-1.500784,0.605091,-9.909560
1790545760.6428,-0.059820,-0.000833,-0.827495,-0.055449,0.001895,-0.827495,0.293804,0.595491,1.160586,1.105519,-0.101329,-8.589979
1790545760.6566,-0.076675,-0.009778,-0.808727,-0.070307,-0.006276,-0.808727,0.551202,1.031368,1.102307,0.798895,0.716631,-10.608161
1790545760.6705,-0.085060,-0.016689,-0.806208,-0.080634,-0.013565,-0.806208,0.548774,0.471649,1.133875,-0.159304,2.947431,-8.939280
1790545760.6842,-0.092194,-0.019430,-0.800353,-0.088726,-0.017671,-0.800353,0.205172,0.418226,1.051313,-0.312616,2.501271,-9.793126
1790545760.6979,-0.095645,-0.021855,-0.789801,-0.093569,-0.020600,-0.789801,0.140822,0.124404,1.069526,0.070663,2.055111,-10.220049
1790545760.7118,-0.097282,-0.023246,-0.780103,-0.096168,-0.022452,-0.780103,0.066760,-0.005509,0.860693,0.492271,1.757671,-9.210958
1790545760.7258,-0.092634,-0.023948,-0.771396,-0.093694,-0.023499,-0.771396,0.030335,-0.451099,0.744136,0.760567,2.389731,-11.656063
1790545760.7398,-0.088779,-0.020705,-0.757361,-0.090254,-0.021543,-0.757361,-0.271986,-0.491166,0.627578,2.945262,1.906391,-11.694875
1790545760.7540,-0.084383,-0.014703,-0.734159,-0.086144,-0.016755,-0.734159,-0.535455,-0.589512,0.563228,3.750150,0.344831,-9.831937
1790545760.7686,-0.079045,-0.006341,-0.717409,-0.081174,-0.009465,-0.717409,-0.667796,-0.683000,0.371394,3.558510,0.307651,-6.765853
1790545760.7830,-0.071100,0.003425,-0.705305,-0.074122,-0.000442,-0.705305,-0.763714,-0.672073,0.044790,1.833751,0.493551,-8.512357
1790545760.7971,-0.064267,0.015566,-0.700186,-0.067223,0.010764,-0.700186,-0.922766,-0.633221,-0.119119,3.558510,1.051251,-11.384385
1790545760.8114,-0.056432,0.030078,-0.700977,-0.059669,0.024284,-0.700977,-1.067249,-0.690285,-0.321881,4.171758,1.162791,-11.112707
1790545760.8256,-0.060176,0.030802,-0.692889,-0.060024,0.028847,-0.692889,-0.182140,0.323523,-0.621774,2.178703,-0.250049,-13.829490
1790545760.8397,-0.063118,0.024428,-0.704096,-0.062190,0.025753,-0.704096,0.428574,0.567566,-1.137785,-1.577440,1.014071,-9.715504
1790545760.8540,-0.044928,0.012587,-0.742178,-0.050106,0.016537,-0.742178,0.934871,-0.833554,-1.351474,-3.493839,3.133331,-10.181238
1790545760.8681,-0.045516,0.008344,-0.788709,-0.046893,0.010802,-0.788709,0.486853,-0.049218,-0.740760,2.906934,2.910251,-6.106063
1790545760.8821,-0.041196,0.000456,-0.794428,-0.042905,0.003560,-0.794428,0.552416,-0.238624,-0.698265,0.875551,1.385871,-9.133336
1790545760.8963,-0.026895,-0.003361,-0.823746,-0.031698,-0.001285,-0.823746,0.377580,-0.764348,-1.069793,-1.385800,3.691031,-10.957462
1790545760.9099,-0.021278,-0.010191,-0.842550,-0.024404,-0.007519,-0.842550,0.507493,-0.193701,-1.276197,-0.197632,1.943571,-10.258860
1790545760.9235,-0.018227,-0.013364,-0.869034,-0.020080,-0.011611,-0.869034,0.310802,-0.032220,-1.130500,-0.159304,2.166651,-7.231588
1790545760.9375,-0.010701,-0.018553,-0.883388,-0.013515,-0.016470,-0.883388,0.356940,-0.311473,-0.920453,-1.347472,1.274331,-8.279490
1790545760.9514,-0.003088,-0.026738,-0.894771,-0.006216,-0.023658,-0.894771,0.562130,-0.367324,-0.814823,-1.117504,1.199971,-8.822846
1790545760.9653,-0.007310,-0.026814,-0.914733,-0.006982,-0.025867,-0.914733,0.057046,0.426725,-0.797825,-0.312616,3.839751,-14.411658
1790545760.9793,-0.015976,-0.012724,-0.922581,-0.013277,-0.016667,-0.922581,-1.064821,0.866245,-0.529500,-4.413711,1.571771,-16.196973
1790545760.9932,-0.020508,0.001457,-0.917276,-0.018339,-0.003980,-0.917276,-1.148597,0.611275,-0.465150,-2.842263,-0.287229,-7.774944
1790545761.0072,-0.024652,0.014014,-0.913779,-0.022758,0.008616,-0.913779,-1.006542,0.726619,-0.364376,-3.340527,-0.064149,-4.631238
1790545761.0216,-0.027308,0.023660,-0.914975,-0.025943,0.019146,-0.914975,-0.786782,0.572422,-0.281815,-2.497311,-0.138509,-3.777392
1790545761.0355,-0.017671,0.009708,-0.916309,-0.020152,0.012539,-0.916309,0.949441,-0.503307,-0.184683,-3.072231,0.976891,-10.414105
1790545761.0495,-0.027178,0.001649,-0.906028,-0.025070,0.004916,-0.906028,0.671402,0.353877,0.717424,4.593365,4.285911,-12.393476
1790545761.0633,-0.040605,-0.008186,-0.890184,-0.035945,-0.004255,-0.890184,0.619194,0.840748,1.087738,-0.772552,0.270471,-12.277042
1790545761.0774,-0.047146,-0.013850,-0.869694,-0.043785,-0.010972,-0.869694,0.398220,0.136545,1.465336,1.910407,2.092291,-11.267951
1790545761.0915,-0.046418,-0.023596,-0.852062,-0.045628,-0.019808,-0.852062,0.548774,-0.032220,1.002748,-2.382327,-0.510309,-8.085434
1790545761.1054,-0.066574,-0.023866,-0.841912,-0.060290,-0.022649,-0.841912,0.037620,1.145498,1.034316,2.332014,1.646131,-7.425644
1790545761.1193,-0.079755,-0.032594,-0.829369,-0.073915,-0.029610,-0.829369,0.562130,0.861388,0.951754,-0.159304,0.679451,-7.425644
1790545761.1333,-0.088916,-0.036760,-0.820308,-0.084416,-0.034615,-0.820308,0.343584,0.497146,1.011247,0.952207,2.947431,-9.715504
1790545761.1469,-0.097315,-0.038945,-0.809692,-0.093446,-0.037646,-0.809692,0.157820,0.521428,1.056170,-0.044320,2.724351,-11.694875
1790545761.1604,-0.100408,-0.041521,-0.797418,-0.098320,-0.040359,-0.797418,0.190602,0.084337,1.133875,0.607255,2.798711,-10.685784
1790545761.1742,-0.095083,-0.042537,-0.784032,-0.096054,-0.041883,-0.784032,-0.004875,-0.464455,0.938398,-0.235960,1.348691,-11.772497
1790545761.1882,-0.088389,-0.040828,-0.771750,-0.090689,-0.041145,-0.771750,-0.188210,-0.615008,0.713782,1.373815,1.237151,-11.733686
1790545761.2022,-0.083198,-0.037240,-0.756886,-0.085445,-0.038411,-0.756886,-0.373974,-0.599225,0.614222,3.021918,0.047391,-10.530539
1790545761.2162,-0.081261,-0.030396,-0.742729,-0.082516,-0.032800,-0.742729,-0.631372,-0.445029,0.487952,3.750150,-0.473129,-7.891378
1790545761.2302,-0.076597,-0.022920,-0.733791,-0.078373,-0.025884,-0.733791,-0.635015,-0.494808,0.258479,1.948735,0.084571,-7.930189
1790545761.2439,-0.068504,-0.011312,-0.732331,-0.071465,-0.015683,-0.732331,-0.874201,-0.695142,-0.029273,1.948735,1.088431,-9.210958
1790545761.2580,-0.058588,0.005911,-0.737229,-0.062451,-0.000567,-0.737229,-1.242086,-0.866336,-0.291528,4.171758,1.497411,-10.802217
1790545761.2725,-0.044473,0.025133,-0.742613,-0.049866,0.017423,-0.742613,-1.352572,-1.134661,-0.411728,3.673494,1.348691,-8.861658
1790545761.2865,-0.045459,0.030467,-0.751710,-0.046781,0.026554,-0.751710,-0.389758,0.163257,-0.715263,1.028863,1.683311,-9.482637
1790545761.3005,-0.055934,0.022221,-0.768224,-0.053188,0.023521,-0.768224,0.602196,1.087219,-1.152354,-1.845736,2.798711,-15.459560
1790545761.3146,-0.042543,0.007947,-0.790760,-0.045737,0.012619,-0.790760,1.090281,-0.508164,-1.403682,-3.647151,3.058971,-11.190329
1790545761.3285,-0.036264,0.010346,-0.825694,-0.039106,0.011028,-0.825694,0.044905,-0.249552,-1.170567,0.185647,4.583351,-8.085434
1790545761.3425,-0.033266,0.006781,-0.832822,-0.035018,0.008055,-0.832822,0.222170,-0.012794,-0.722548,-1.347472,1.534591,-11.966553
1790545761.3566,-0.018506,0.001048,-0.845869,-0.023459,0.003150,-0.845869,0.421289,-0.698784,-0.992088,-4.222071,2.575631,-12.315854
1790545761.3702,-0.006693,-0.005217,-0.864430,-0.011723,-0.002707,-0.864430,0.513564,-0.574942,-1.108645,-1.769080,2.464091,-8.395923
1790545761.3838,-0.005655,-0.007326,-0.886034,-0.007475,-0.005940,-0.886034,0.309588,0.064911,-1.061294,0.300631,3.393591,-6.843476
1790545761.3977,-0.003512,-0.006485,-0.907520,-0.004701,-0.006322,-0.907520,0.047333,0.083123,-0.987231,-1.155832,3.096151,-7.580888
1790545761.4117,-0.001216,-0.009331,-0.921154,-0.002261,-0.008428,-0.921154,0.196673,-0.003081,-0.877958,-0.504256,1.869211,-9.405014
1790545761.4256,0.003136,-0.009997,-0.936690,0.001517,-0.009526,-0.936690,0.162677,-0.147564,-0.726191,-1.079176,3.839751,-9.288581
1790545761.4395,-0.013774,-0.005991,-0.947992,-0.009187,-0.007052,-0.947992,-0.267129,1.311835,-0.550140,0.108991,3.058971,-12.665154
1790545761.4534,-0.017705,0.004264,-0.960085,-0.015149,0.000869,-0.960085,-0.693293,0.534784,-0.340093,-4.298727,3.467951,-12.665154
1790545761.4674,-0.020629,0.014731,-0.959176,-0.018985,0.010572,-0.959176,-0.832920,0.535998,-0.225964,-4.835318,0.344831,-9.094525
1790545761.4814,-0.025621,0.026053,-0.962998,-0.023630,0.021409,-0.962998,-0.823207,0.447366,0.039933,-0.925864,1.051251,-5.873196
1790545761.4954,-0.020545,0.025843,-0.963075,-0.021470,0.024513,-0.963075,-0.025515,-0.196129,0.084856,-2.535639,0.976891,-7.464455
1790545761.5096,-0.022534,0.016971,-0.923868,-0.022215,0.019233,-0.923868,0.729681,-0.264121,0.820626,3.558510,3.133331,-8.201867
1790545761.5239,-0.042036,0.005748,-0.893557,-0.036090,0.009794,-0.893557,0.775819,0.945164,1.227364,4.708349,2.166651,-12.509909
1790545761.5379,-0.049124,-0.003690,-0.879133,-0.045214,0.000355,-0.879133,0.665332,0.334451,1.407057,-1.155832,2.203831,-11.190329
1790545761.5519,-0.050671,-0.012991,-0.868871,-0.049034,-0.008987,-0.868871,0.560915,0.070982,1.118091,-2.497311,0.233291,-11.035084
1790545761.5659,-0.063324,-0.014566,-0.850419,-0.059037,-0.012892,-0.850419,0.074044,0.647699,1.081667,1.450471,1.088431,-7.813756
1790545761.5798,-0.078291,-0.021391,-0.834666,-0.072515,-0.018841,-0.834666,0.455285,0.854103,1.069526,1.412143,1.497411,-9.366203
1790545761.5937,-0.087367,-0.028031,-0.822406,-0.082912,-0.025274,-0.822406,0.492923,0.495932,1.076810,0.492271,2.129471,-8.124245
1790545761.6073,-0.096917,-0.032354,-0.813213,-0.092716,-0.030230,-0.813213,0.343584,0.588206,0.973608,0.338959,2.649991,-9.560259
1790545761.6209,-0.101243,-0.035613,-0.804218,-0.098685,-0.033998,-0.804218,0.236739,0.226392,0.945683,0.070663,2.575631,-10.724595
1790545761.6348,-0.101711,-0.037892,-0.796727,-0.100803,-0.036724,-0.796727,0.186960,-0.043148,0.733208,0.338959,2.873071,-10.763406
1790545761.6487,-0.101451,-0.037751,-0.784844,-0.101257,-0.037442,-0.784844,0.047333,-0.169418,0.633649,1.872079,3.356411,-10.414105
1790545761.6625,-0.094513,-0.036009,-0.769169,-0.096536,-0.036439,-0.769169,-0.188210,-0.674501,0.526804,2.561982,1.311511,-12.121798
1790545761.6764,-0.087940,-0.029866,-0.752944,-0.090519,-0.031838,-0.752944,-0.492960,-0.662360,0.358038,3.060246,1.199971,-11.035084
1790545761.6904,-0.081806,-0.021144,-0.737341,-0.084420,-0.024352,-0.737341,-0.716362,-0.624722,0.086071,3.290214,0.233291,-10.064805
1790545761.7044,-0.072658,-0.008521,-0.728973,-0.076187,-0.013270,-0.728973,-0.933693,-0.803201,-0.168899,2.523654,0.902531,-7.697322
1790545761.7182,-0.063039,0.003545,-0.721766,-0.066983,-0.001500,-0.721766,-0.925194,-0.857837,-0.303669,3.098574,0.642271,-7.969000
1790545761.7322,-0.054074,0.015875,-0.718941,-0.057947,0.010662,-0.718941,-0.915481,-0.800772,-0.330380,3.328542,1.199971,-8.667602
1790545761.7459,-0.058234,0.017647,-0.714907,-0.058148,0.015551,-0.714907,-0.280485,0.289527,-0.621774,3.826806,-1.142369,-15.032637
1790545761.7602,-0.058407,0.013002,-0.730080,-0.058329,0.013767,-0.730080,0.330228,0.262816,-1.170567,-0.120976,1.460231,-10.181238
1790545761.7746,-0.049474,0.007108,-0.759692,-0.052130,0.009106,-0.759692,0.501422,-0.295689,-1.596730,-0.274288,1.980751,-7.076343
1790545761.7886,-0.045077,0.008361,-0.793432,-0.047193,0.008585,-0.793432,0.095899,-0.347897,-0.862174,2.332014,2.947431,-5.873196
1790545761.8028,-0.044328,0.001288,-0.797509,-0.045187,0.003477,-0.797509,0.462570,0.055198,-0.619346,0.147319,0.865351,-8.046623
1790545761.8167,-0.030430,-0.002742,-0.820236,-0.034857,-0.000877,-0.820236,0.332657,-0.720639,-0.988445,-2.114032,2.464091,-10.841028
1790545761.8303,-0.024214,-0.006283,-0.835657,-0.027407,-0.004661,-0.835657,0.229455,-0.209485,-1.134142,-1.040848,1.311511,-10.452916
1790545761.8438,-0.027772,-0.008196,-0.843696,-0.027663,-0.007135,-0.843696,0.052190,0.449794,-0.919239,-0.427600,0.344831,-9.094525
1790545761.8577,-0.025410,-0.004839,-0.853845,-0.026086,-0.005528,-0.853845,-0.403113,0.123190,-0.820894,-2.765607,-1.068009,-10.414105
1790545761.8716,-0.025688,-0.002306,-0.863880,-0.025807,-0.003273,-0.863880,-0.257416,0.249461,-0.601134,-2.075704,0.530731,-9.909560
1790545761.8855,-0.025104,-0.000133,-0.875113,-0.025315,-0.001075,-0.875113,-0.143287,0.138974,-0.377732,-2.075704,2.092291,-10.491728
1790545761.8994,-0.026573,0.008961,-0.884912,-0.026195,0.005950,-0.884912,-0.624087,0.248247,-0.289099,-1.270816,2.055111,-8.473546
1790545761.9133,-0.029989,0.015203,-0.894368,-0.028851,0.012427,-0.894368,-0.382473,0.361162,-0.122762,-1.807408,3.691031,-12.044175
1790545761.9273,-0.037056,0.018976,-0.902563,-0.034594,0.017011,-0.902563,-0.246489,0.631915,-0.138546,-1.692424,2.835891,-12.005364
1790545761.9412,-0.031651,0.020878,-0.907800,-0.032534,0.019718,-0.907800,-0.160285,-0.230125,0.022935,-3.685479,2.017931,-12.898021
1790545761.9551,-0.031136,0.015195,-0.898923,-0.031556,0.016552,-0.898923,0.420075,-0.190059,0.445457,1.143847,2.278191,-10.841028
1790545761.9690,-0.037633,0.013180,-0.880488,-0.035810,0.014192,-0.880488,0.182103,0.130475,1.030673,2.868606,2.984611,-11.229140
1790545761.9831,-0.049687,0.004825,-0.852009,-0.045524,0.007635,-0.852009,0.460142,0.457079,1.398558,2.523654,-0.175689,-9.327392
1790545761.9971,-0.053706,-0.001765,-0.826258,-0.051251,0.001055,-0.826258,0.377580,-0.014008,1.636530,0.338959,0.642271,-8.473546
1790545762.0111,-0.048829,-0.007115,-0.806553,-0.049556,-0.004664,-0.806553,0.246453,-0.442600,1.409485,-2.420655,-0.101329,-9.870749
1790545762.0257,-0.060248,-0.003357,-0.788150,-0.057041,-0.003749,-0.788150,-0.265915,0.432796,1.362134,2.332014,1.906391,-8.939280
1790545762.0397,-0.072312,-0.006106,-0.769283,-0.067731,-0.005399,-0.769283,0.140822,0.555424,1.354849,1.872079,1.571771,-10.375294
1790545762.0535,-0.076961,-0.006933,-0.757042,-0.074192,-0.006473,-0.757042,0.105612,0.056412,1.329352,1.258831,2.947431,-8.473546
1790545762.0671,-0.081038,-0.004167,-0.748113,-0.078984,-0.004858,-0.748113,-0.139645,0.060055,1.171514,1.297159,3.802571,-10.103616
1790545762.0806,-0.080688,-0.000510,-0.739821,-0.080177,-0.001815,-0.739821,-0.223420,-0.215556,1.024602,0.722239,3.505131,-10.181238
1790545762.0945,-0.078403,0.004859,-0.732085,-0.078935,0.002857,-0.732085,-0.339978,-0.353968,0.784202,1.220503,3.170511,-9.443825
1790545762.1085,-0.077252,0.008726,-0.723390,-0.077757,0.006966,-0.723390,-0.265915,-0.254408,0.555944,1.642111,2.538451,-10.025993
1790545762.1225,-0.073270,0.013956,-0.718961,-0.074616,0.011859,-0.718961,-0.325408,-0.421960,0.401747,1.373815,2.984611,-9.560259
1790545762.1364,-0.067801,0.022500,-0.719368,-0.069845,0.019307,-0.719368,-0.513600,-0.504522,0.282762,1.105519,3.505131,-8.628791
1790545762.1504,-0.061512,0.028955,-0.715931,-0.064012,0.026061,-0.715931,-0.451679,-0.515449,0.111568,0.913879,2.538451,-10.608161
1790545762.1643,-0.066743,0.024434,-0.710827,-0.065924,0.024922,-0.710827,0.267093,0.358733,-0.240534,2.217030,1.423051,-14.605714
1790545762.1782,-0.062884,0.018820,-0.734591,-0.063796,0.020651,-0.734591,0.513564,0.027273,-0.639986,-2.995575,3.653851,-10.724595
1790545762.1922,-0.058118,0.014443,-0.738638,-0.059821,0.016305,-0.738638,0.137180,0.101335,-0.871888,-4.298727,-1.662888,-8.822846
1790545762.2060,-0.053018,0.012419,-0.746165,-0.055059,0.013585,-0.746165,-0.047370,-0.014008,-1.092861,-2.343999,-1.923148,-10.064805
1790545762.2200,-0.047793,0.017469,-0.759845,-0.049973,0.016304,-0.759845,-0.460178,-0.049218,-1.134142,-1.845736,-0.101329,-10.996273
1790545762.2338,-0.045337,0.023395,-0.779036,-0.046727,0.021268,-0.779036,-0.477176,0.183897,-1.419466,-1.270816,0.902531,-10.685784
1790545762.2477,-0.044799,0.026568,-0.800498,-0.045378,0.024978,-0.800498,-0.273200,0.364804,-1.512955,-1.385800,0.865351,-9.754315
1790545762.2619,-0.044553,0.036328,-0.821982,-0.044800,0.032923,-0.821982,-0.672653,0.346592,-1.443748,-0.657568,1.534591,-7.503266
1790545762.2767,-0.054865,0.050222,-0.844941,-0.051846,0.045032,-0.844941,-0.903340,0.970661,-1.396397,1.220503,2.464091,-10.297672
1790545762.2907,-0.068770,0.069455,-0.867339,-0.063693,0.062128,-0.867339,-1.273653,1.276625,-1.330833,1.412143,3.207691,-9.133336
1790545762.3044,-0.074410,0.085535,-0.886969,-0.071195,0.078513,-0.886969,-1.142526,0.845604,-1.192421,-1.424128,2.352551,-10.491728
1790545762.3184,-0.082110,0.097717,-0.903341,-0.078836,0.091956,-0.903341,-0.790425,0.828606,-0.972661,0.645583,3.133331,-9.637881
1790545762.3330,-0.062392,0.087337,-0.902892,-0.067325,0.088722,-0.902892,0.587627,-1.253647,-0.366804,-0.772552,0.605091,-13.945924
1790545762.3484,-0.059594,0.068587,-0.892350,-0.061913,0.074628,-0.892350,1.265118,-0.548231,0.535303,4.286742,3.430771,-8.745224
1790545762.3633,-0.063836,0.060390,-0.890266,-0.063259,0.064661,-0.890266,0.859594,-0.027364,0.581441,2.638638,5.847470,-4.670049
1790545762.3776,-0.055178,0.055187,-0.883440,-0.057602,0.058030,-0.883440,0.488067,-0.786203,0.581441,0.798895,5.289771,-10.181238
1790545762.3926,-0.048619,0.052156,-0.873878,-0.051314,0.053918,-0.873878,0.405505,-0.685429,0.553515,2.063719,5.959010,-8.201867
1790545762.4066,-0.044990,0.043625,-0.855892,-0.046887,0.046713,-0.855892,0.717540,-0.607724,0.922614,2.102047,3.839751,-8.240679
1790545762.4206,-0.048488,0.033821,-0.833780,-0.048008,0.037689,-0.833780,0.851095,-0.200986,1.303855,2.600310,4.100011,-7.425644
1790545762.4346,-0.044329,0.022690,-0.819789,-0.045433,0.027190,-0.819789,0.923944,-0.633221,1.467764,0.530599,3.542311,-7.386832
1790545762.4485,-0.056618,0.021018,-0.809337,-0.053263,0.022869,-0.809337,0.223384,0.601562,1.545469,0.223975,4.917971,-11.462007
1790545762.4625,-0.060991,0.024469,-0.796137,-0.058673,0.023989,-0.796137,-0.301125,0.112263,1.675383,-2.497311,2.612811,-14.217602
1790545762.4765,-0.055639,0.024764,-0.774302,-0.056549,0.024531,-0.774302,-0.108077,-0.657503,1.686310,-1.155832,1.646131,-12.005364
1790545762.4906,-0.054127,0.025932,-0.754940,-0.054854,0.025512,-0.754940,-0.210065,-0.281119,1.436197,-1.462456,0.382011,-8.163056
1790545762.5046,-0.055403,0.028747,-0.731870,-0.055238,0.027776,-0.731870,-0.315695,-0.160919,1.126590,0.492271,0.605091,-9.482637
1790545762.5185,-0.048409,0.030273,-0.719677,-0.050458,0.029524,-0.719677,-0.224634,-0.564015,0.666430,-1.117504,0.382011,-8.822846
1790545762.5324,-0.040168,0.034321,-0.715252,-0.043255,0.032882,-0.715252,-0.331479,-0.611366,0.348325,-1.232488,1.832031,-11.578441
1790545762.5461,-0.033181,0.041960,-0.709698,-0.036203,0.039236,-0.709698,-0.573093,-0.572514,0.214770,0.108991,2.055111,-10.491728
1790545762.5601,-0.025619,0.048205,-0.700075,-0.028794,0.045514,-0.700075,-0.473534,-0.662360,0.297331,0.568927,1.832031,-9.948371
1790545762.5740,-0.020613,0.053537,-0.696215,-0.023067,0.051130,-0.696215,-0.347263,-0.434101,0.236624,0.070663,2.203831,-7.619700
1790545762.5880,-0.023247,0.050019,-0.693544,-0.023193,0.050352,-0.693544,0.169962,0.210608,-0.108192,0.032335,1.088431,-11.345574
1790545762.6019,-0.029007,0.040149,-0.707898,-0.027262,0.043210,-0.707898,0.709041,0.676839,-0.514930,-2.382327,2.315371,-10.336483
1790545762.6158,-0.034166,0.034762,-0.726813,-0.032095,0.037296,-0.726813,0.520849,0.652556,-0.729833,-1.884064,4.397451,-9.599070
1790545762.6298,-0.043874,0.031049,-0.750160,-0.040340,0.032923,-0.750160,0.398220,1.028940,-1.119573,-1.117504,3.765391,-8.667602
1790545762.6438,-0.041571,0.023789,-0.777069,-0.041202,0.026529,-0.777069,0.620408,0.315024,-1.347831,-2.573967,2.612811,-7.270399
1790545762.6577,-0.033538,0.023381,-0.790286,-0.035837,0.024325,-0.790286,0.025479,-0.372180,-1.239773,0.837223,2.687171,-14.605714
1790545762.6716,-0.035679,0.026774,-0.804216,-0.035726,0.026040,-0.804216,-0.296269,0.373303,-1.380613,1.488799,1.534591,-13.868301
1790545762.6858,-0.046967,0.031614,-0.814420,-0.043595,0.029941,-0.814420,-0.456536,0.992516,-1.300480,1.948735,-0.138509,-12.044175
1790545762.7001,-0.044179,0.039191,-0.835370,-0.044004,0.036416,-0.835370,-0.654441,0.278600,-1.234916,-2.727279,-0.361589,-7.658511
1790545762.7143,-0.052188,0.045394,-0.850603,-0.049733,0.042700,-0.850603,-0.517243,0.795825,-1.022441,0.262303,0.382011,-7.115154
1790545762.7283,-0.067303,0.056793,-0.863312,-0.062032,0.052565,-0.863312,-0.829277,1.241415,-0.959306,1.833751,1.534591,-10.064805
1790545762.7423,-0.080685,0.070600,-0.877174,-0.075089,0.065189,-0.877174,-0.966475,1.155211,-0.824536,1.297159,2.687171,-13.169700
1790545762.7560,-0.085684,0.074250,-0.884521,-0.082505,0.071532,-0.884521,-0.347263,0.521428,-0.518572,0.415615,0.828171,-12.587532
1790545762.7699,-0.082758,0.070625,-0.883537,-0.082682,0.070897,-0.883537,0.210028,-0.205843,0.016864,0.223975,1.423051,-8.318301
1790545762.7843,-0.084088,0.063866,-0.872742,-0.083666,0.065976,-0.872742,0.450429,-0.141493,0.498879,2.102047,2.166651,-8.357112
1790545762.7983,-0.084273,0.058319,-0.859137,-0.084091,0.060616,-0.859137,0.366653,-0.265336,0.761134,2.025391,2.464091,-9.405014
1790545762.8123,-0.078071,0.054575,-0.843022,-0.079877,0.056387,-0.843022,0.251309,-0.754635,0.887404,2.178703,3.282051,-11.073895
1790545762.8263,-0.075969,0.050494,-0.826337,-0.077141,0.052262,-0.826337,0.356940,-0.517877,0.951754,3.136902,4.546171,-10.142427
1790545762.8404,-0.072832,0.045459,-0.816153,-0.074125,0.047500,-0.816153,0.517206,-0.474168,0.959039,0.913879,5.512851,-8.589979
1790545762.8544,-0.068535,0.037078,-0.801806,-0.070212,0.040205,-0.801806,0.696899,-0.591940,1.085309,0.990535,4.285911,-8.706413
1790545762.8685,-0.064255,0.030857,-0.787076,-0.066042,0.033661,-0.787076,0.587627,-0.594368,1.209152,0.683911,4.434631,-7.619700
1790545762.8827,-0.060959,0.024349,-0.768147,-0.062484,0.027143,-0.768147,0.598554,-0.562800,1.362134,0.952207,4.397451,-7.658511
1790545762.8968,-0.052747,0.015478,-0.756338,-0.055668,0.018977,-0.756338,0.784318,-0.810485,1.405843,-0.619240,4.323091,-7.658511
1790545762.9108,-0.040921,0.006632,-0.742204,-0.045345,0.010336,-0.742204,0.806172,-1.058170,1.433768,-0.657568,3.579491,-6.222497
1790545762.9248,-0.050743,0.006005,-0.723951,-0.049123,0.007304,-0.723951,0.037620,0.442509,1.568538,-0.082648,2.166651,-10.414105
1790545762.9391,-0.051872,0.004717,-0.709956,-0.051047,0.005493,-0.709956,-0.012160,-0.027364,1.640172,-4.452038,0.865351,-14.528091
1790545762.9530,-0.041587,0.004513,-0.693747,-0.044425,0.004807,-0.693747,-0.123861,-0.804415,1.342708,-3.493839,-0.175689,-11.112707
1790545762.9669,-0.035753,0.009022,-0.676179,-0.038355,0.007758,-0.676179,-0.489317,-0.525162,1.058598,-1.347472,-0.621849,-8.434735
1790545762.9806,-0.036131,0.009290,-0.655192,-0.036798,0.008830,-0.655192,-0.165142,-0.180346,0.854622,0.798895,-0.473129,-10.918651
1790545762.9943,-0.033117,0.009000,-0.643948,-0.034221,0.008949,-0.643948,-0.044941,-0.347897,0.611794,0.147319,0.790991,-9.599070
1790545763.0085,-0.031552,0.011903,-0.636160,-0.032353,0.011017,-0.636160,-0.218564,-0.211913,0.354396,0.530599,1.646131,-9.870749
1790545763.0225,-0.025888,0.016902,-0.626179,-0.027828,0.015136,-0.626179,-0.314481,-0.542160,0.394463,0.837223,2.575631,-9.676693
1790545763.0367,-0.022387,0.021777,-0.612773,-0.024019,0.019785,-0.612773,-0.303554,-0.432887,0.389606,1.565455,2.575631,-9.560259
1790545763.0506,-0.029903,0.016356,-0.600083,-0.028138,0.017384,-0.600083,0.346012,0.375731,0.228125,2.638638,1.608951,-12.898021
1790545763.0646,-0.039068,0.008835,-0.609207,-0.035789,0.011400,-0.609207,0.634978,0.742402,-0.123976,-0.734224,3.393591,-9.482637
1790545763.0785,-0.041267,0.005661,-0.627545,-0.039624,0.007383,-0.627545,0.359368,0.431582,-0.521001,-2.382327,3.356411,-8.124245
1790545763.0925,-0.043462,-0.001811,-0.646407,-0.042310,0.000947,-0.646407,0.633764,0.395158,-1.027298,-0.810880,3.728211,-11.306763
1790545763.1065,-0.027238,0.000899,-0.671369,-0.031760,0.000914,-0.671369,-0.131146,-0.798344,-1.424322,-2.190688,2.835891,-10.181238
1790545763.1205,-0.031458,0.005692,-0.682748,-0.031549,0.004258,-0.682748,-0.303554,0.463150,-1.404896,1.757095,2.910251,-11.190329
1790545763.1343,-0.042725,0.008146,-0.701944,-0.039372,0.006980,-0.701944,-0.256202,1.079934,-1.457104,0.453943,0.456371,-11.190329
1790545763.1483,-0.036727,0.015594,-0.730003,-0.037520,0.013010,-0.730003,-0.620445,0.067339,-1.476530,-4.452038,0.121751,-12.005364
1790545763.1622,-0.038672,0.021459,-0.750250,-0.038326,0.018924,-0.750250,-0.588877,0.488647,-1.366043,-1.040848,-0.919289,-9.016902
1790545763.1760,-0.051024,0.033152,-0.766936,-0.047215,0.028883,-0.766936,-0.801352,1.123643,-1.191207,0.722239,2.389731,-9.210958
1790545763.1899,-0.066926,0.054192,-0.779295,-0.061013,0.046600,-0.779295,-1.427849,1.328833,-1.100146,1.833751,3.207691,-10.025993
1790545763.2039,-0.078565,0.065060,-0.788759,-0.073299,0.059522,-0.788759,-0.818350,0.979160,-0.760187,1.948735,1.460231,-13.480189
1790545763.2176,-0.082260,0.065128,-0.786343,-0.079572,0.063446,-0.786343,-0.070438,0.234891,-0.234463,1.987063,1.051251,-9.482637
1790545763.2313,-0.089213,0.064929,-0.772357,-0.086321,0.064484,-0.772357,0.002410,0.262816,0.288832,2.600310,1.683311,-6.804665
1790545763.2452,-0.097122,0.069863,-0.766338,-0.093882,0.068249,-0.766338,-0.290198,0.418226,0.271834,1.910407,3.058971,-7.813756
1790545763.2591,-0.092946,0.067679,-0.759376,-0.093227,0.067850,-0.759376,0.023050,-0.360039,0.349539,0.032335,1.014071,-14.722147
1790545763.2732,-0.080247,0.056848,-0.745858,-0.084141,0.060149,-0.745858,0.740608,-1.117663,0.626364,1.335487,3.170511,-11.539630
1790545763.2877,-0.083088,0.055085,-0.723984,-0.083404,0.056604,-0.723984,0.308374,-0.284762,0.905616,4.401726,5.103871,-5.912007
1790545763.3018,-0.078573,0.049711,-0.714136,-0.080022,0.051779,-0.714136,0.466212,-0.570085,0.935970,0.952207,4.657711,-9.599070
1790545763.3158,-0.075637,0.040518,-0.696053,-0.076952,0.043896,-0.696053,0.690829,-0.543374,1.022174,2.332014,4.025651,-10.646972
1790545763.3297,-0.070955,0.033998,-0.687659,-0.072755,0.036967,-0.687659,0.647120,-0.635649,1.115663,1.028863,4.397451,-6.455364
1790545763.3436,-0.065468,0.024889,-0.674095,-0.067654,0.028512,-0.674095,0.761249,-0.696356,1.319639,0.530599,3.282051,-6.610609
1790545763.3576,-0.055566,0.012136,-0.661254,-0.059193,0.017049,-0.661254,1.013790,-0.974395,1.432554,-0.044320,2.910251,-6.261308
1790545763.3715,-0.042991,-0.001549,-0.643344,-0.047851,0.004030,-0.643344,1.220195,-1.223294,1.479906,0.415615,3.393591,-4.786483
1790545763.3855,-0.053367,-0.005983,-0.619673,-0.051712,-0.002979,-0.619673,0.267093,0.459507,1.658385,0.415615,1.943571,-14.605714
1790545763.3993,-0.052718,0.000870,-0.608414,-0.052416,-0.000284,-0.608414,-0.539097,-0.200986,1.696023,-3.838791,3.096151,-19.185434
1790545763.4133,-0.043146,0.008228,-0.599318,-0.045927,0.005674,-0.599318,-0.613160,-0.684215,1.600106,-4.145415,0.605091,-7.852567
1790545763.4272,-0.044792,0.011092,-0.564269,-0.045133,0.009467,-0.564269,-0.432253,-0.136637,1.231007,0.338959,-1.662888,-10.608161
1790545763.4407,-0.044315,0.009934,-0.543764,-0.044560,0.009794,-0.543764,-0.126289,-0.148778,0.927471,-0.887536,-1.253909,-9.249770
1790545763.4542,-0.039087,0.010102,-0.536249,-0.040729,0.010010,-0.536249,-0.144501,-0.381893,0.551087,-1.730752,-0.175689,-9.793126
1790545763.4683,-0.040139,0.009582,-0.531178,-0.040316,0.009710,-0.531178,-0.026729,0.035772,0.201414,0.108991,0.828171,-9.909560
1790545763.4822,-0.035644,0.014328,-0.524825,-0.037046,0.012943,-0.524825,-0.316909,-0.417103,0.302188,0.607255,2.649991,-11.073895
1790545763.4962,-0.035156,0.016414,-0.519672,-0.035723,0.015373,-0.519672,-0.125075,-0.118424,0.262121,0.645583,2.724351,-11.384385
1790545763.5101,-0.041442,0.008817,-0.516023,-0.039726,0.010784,-0.516023,0.463784,0.437653,-0.020774,0.683911,0.642271,-13.324944
1790545763.5240,-0.042649,0.000537,-0.534570,-0.041772,0.003611,-0.534570,0.745465,0.355091,-0.445724,-2.535639,3.579491,-7.852567
1790545763.5384,-0.049292,-0.006155,-0.544912,-0.047036,-0.003225,-0.544912,0.609481,0.567566,-0.598706,0.262303,3.765391,-8.900469
1790545763.5524,-0.039551,-0.008086,-0.563248,-0.041797,-0.006628,-0.563248,0.163891,-0.419532,-0.749259,-3.340527,2.612811,-13.208511
1790545763.5664,-0.038155,-0.001523,-0.582275,-0.039247,-0.003055,-0.582275,-0.405542,0.138974,-1.172995,-0.695896,3.505131,-12.898021
1790545763.5803,-0.045500,0.005178,-0.600833,-0.043624,0.002708,-0.600833,-0.531812,0.767899,-1.267698,0.070663,0.642271,-8.745224
1790545763.5942,-0.047624,0.012864,-0.625563,-0.046424,0.009817,-0.625563,-0.601019,0.542069,-1.248272,-2.114032,0.642271,-9.133336
1790545763.6081,-0.044199,0.018497,-0.649312,-0.044866,0.015893,-0.649312,-0.474748,0.174184,-1.322334,-2.267343,0.382011,-8.628791
1790545763.6220,-0.047318,0.021415,-0.664450,-0.046583,0.019759,-0.664450,-0.267129,0.426725,-1.230059,0.760567,0.605091,-8.395923
1790545763.6359,-0.056123,0.031121,-0.674558,-0.053261,0.027712,-0.674558,-0.638657,0.778827,-1.142641,1.680439,2.352551,-8.784035
1790545763.6498,-0.066401,0.046655,-0.688166,-0.062459,0.040973,-0.688166,-1.096389,0.930594,-1.074649,1.412143,2.092291,-10.375294
1790545763.6636,-0.074873,0.057506,-0.703321,-0.071149,0.052546,-0.703321,-0.859631,0.866245,-0.935023,0.147319,0.456371,-11.811308
1790545763.6772,-0.077437,0.059567,-0.710601,-0.075551,0.057461,-0.710601,-0.282913,0.351449,-0.544069,0.032335,-0.250049,-11.423196
1790545763.6911,-0.077140,0.056952,-0.708896,-0.076663,0.057105,-0.708896,0.088614,-0.054075,-0.023202,0.952207,0.605091,-9.055714
1790545763.7047,-0.079706,0.054496,-0.700006,-0.078793,0.055279,-0.700006,0.173604,0.005418,0.349539,2.408670,2.687171,-10.763406
1790545763.7185,-0.072357,0.045407,-0.684091,-0.074288,0.048369,-0.684091,0.619194,-0.804415,0.701641,2.561982,2.835891,-12.277042
1790545763.7325,-0.067711,0.036587,-0.661689,-0.069684,0.040122,-0.661689,0.644691,-0.715782,1.039172,3.213558,3.542311,-11.035084
1790545763.7464,-0.062298,0.029126,-0.639154,-0.064514,0.032424,-0.639154,0.643477,-0.757063,1.303855,1.297159,3.505131,-6.921098
