t,imu_roll,imu_pitch,imu_yaw,lpf_roll,lpf_pitch,lpf_yaw,gyro_x,gyro_y,gyro_z,acc_x,acc_y,acc_z
1790538279.5337,-0.003530,0.021452,-0.002767,-0.002471,0.015016,-0.002767,-0.008963,0.000772,-0.001034,0.223975,1.199971,-9.948371
1790538279.5521,-0.007480,0.022296,-0.002802,-0.005977,0.020112,-0.002802,-0.019891,0.000772,0.001394,0.300631,1.199971,-9.831937
1790538279.5660,-0.002397,0.022882,-0.002831,-0.003471,0.022051,-0.002831,-0.015034,-0.002870,0.000180,0.108991,1.237151,-10.064805
1790538279.5800,-0.002563,0.022442,-0.002839,-0.002835,0.022325,-0.002839,0.017748,-0.015012,-0.002248,0.223975,1.199971,-9.909560
1790538279.5940,-0.001889,0.019897,-0.002901,-0.002173,0.020625,-0.002901,0.055386,-0.007727,-0.003462,0.185647,1.125611,-10.064805
1790538279.6079,-0.003122,0.021714,-0.002997,-0.002837,0.021387,-0.002997,-0.016248,0.025055,-0.003462,0.262303,1.274331,-9.870749
1790538279.6222,-0.002832,0.021762,-0.002870,-0.002833,0.021649,-0.002870,-0.044174,0.018984,0.011108,0.185647,1.199971,-10.220049
1790538279.6367,-0.001692,0.026784,-0.002016,-0.002034,0.025244,-0.002016,-0.023533,0.008057,0.048746,0.108991,1.571771,-9.831937
1790538279.6509,-0.003488,0.033920,0.000989,-0.003052,0.031317,0.000989,-0.053887,0.001986,0.122809,0.338959,1.794851,-9.637881
1790538279.6649,-0.002954,0.039269,0.004952,-0.002983,0.036883,0.004952,-0.008963,-0.098787,0.253936,0.262303,1.943571,-10.336483
1790538279.6789,-0.007007,0.046635,0.014824,-0.005800,0.043709,0.014824,-0.027176,-0.012583,0.417845,0.568927,2.055111,-9.327392
1790538279.6928,-0.009466,0.047627,0.025428,-0.008366,0.046452,0.025428,0.055386,-0.024725,0.596324,0.377287,1.385871,-8.163056
1790538279.7067,-0.016467,0.046321,0.039898,-0.014037,0.046360,0.039898,0.270289,0.174395,0.699526,0.722239,1.757671,-9.754315
1790538279.7206,-0.015570,0.038362,0.048854,-0.015110,0.040762,0.048854,0.267861,-0.022297,0.751734,0.070663,0.828171,-9.521448
1790538279.7345,-0.008144,0.029788,0.046157,-0.010234,0.033080,0.046157,0.215653,-0.101216,0.592682,-0.810880,0.605091,-11.151518
1790538279.7485,-0.004292,0.019711,0.044863,-0.006075,0.023722,0.044863,0.181657,0.026269,0.484623,-0.542584,0.084571,-10.220049
1790538279.7625,-0.007561,0.009815,0.047375,-0.007115,0.013987,0.047375,0.323712,0.096689,0.491908,0.530599,0.307651,-12.044175
1790538279.7764,-0.014222,0.004408,0.052954,-0.012090,0.007281,0.052954,0.435413,0.182894,0.491908,0.875551,1.125611,-9.560259
1790538279.7900,-0.016548,0.003581,0.059881,-0.015211,0.004691,0.059881,0.350423,0.260599,0.394776,0.032335,1.571771,-8.822846
1790538279.8037,-0.017584,0.008673,0.066988,-0.016872,0.007478,0.066988,0.085740,0.256956,0.315857,-0.159304,1.906391,-8.201867
1790538279.8175,-0.015234,0.010954,0.068121,-0.015725,0.009911,0.068121,-0.012606,0.050552,0.269720,-0.350944,1.571771,-10.103616
1790538279.8315,-0.018027,0.012407,0.079057,-0.017337,0.011658,0.079057,0.031103,0.003200,0.223582,0.913879,1.608951,-10.491728
1790538279.8455,-0.017311,0.016301,0.088369,-0.017319,0.014908,0.088369,-0.059957,-0.176493,0.150734,0.722239,1.943571,-10.491728
1790538279.8594,-0.013511,0.024686,0.107780,-0.014653,0.021752,0.107780,-0.352566,-0.662149,0.086384,1.718767,2.352551,-11.306763
1790538279.8735,-0.007562,0.034790,0.117668,-0.009689,0.030879,0.117668,-0.607535,-0.641509,-0.089666,1.182175,2.017931,-11.694875
1790538279.8879,-0.018996,0.033667,0.145782,-0.016204,0.032831,0.145782,-0.083026,0.072407,-0.370133,3.980118,0.939711,-12.432287
1790538279.9018,-0.012040,0.038480,0.093035,-0.013289,0.036785,0.093035,0.163445,-0.148567,-0.795083,-0.427600,2.724351,-8.706413
1790538279.9158,-0.007438,0.041544,0.053755,-0.009194,0.040116,0.053755,0.093025,0.032340,-1.093762,-0.350944,1.869211,-7.580888
1790538279.9298,0.009412,0.037320,-0.005330,0.003831,0.038159,-0.005330,0.259362,-0.446032,-1.162968,-1.730752,0.902531,-8.085434
1790538279.9437,0.004088,0.031694,0.015472,0.004010,0.033634,0.015472,0.252077,0.100332,-0.937137,1.603783,0.642271,-9.482637
1790538279.9576,0.013326,0.026438,-0.010684,0.010532,0.028596,-0.010684,0.324926,-0.316119,-0.888572,-0.964192,1.088431,-10.918651
1790538279.9717,0.014326,0.018882,-0.026173,0.013188,0.021796,-0.026173,0.414772,0.073621,-1.017271,-0.044320,0.716631,-11.306763
1790538279.9856,0.014592,0.013164,-0.048810,0.014171,0.015754,-0.048810,0.490049,0.218104,-1.285596,-0.350944,1.497411,-10.336483
1790538279.9998,0.018085,0.011639,-0.073927,0.016911,0.012874,-0.073927,0.287287,0.068764,-1.250386,-0.695896,1.683311,-8.706413
1790538280.0134,0.017365,0.005485,-0.080247,0.017229,0.007701,-0.080247,0.264219,0.015342,-1.081620,0.722239,0.196111,-10.452916
1790538280.0272,0.020125,-0.006427,-0.080332,0.019256,-0.002188,-0.080332,0.592037,-0.318547,-0.860646,0.837223,-0.324409,-9.094525
1790538280.0411,0.023762,-0.011189,-0.082673,0.022410,-0.008488,-0.082673,0.454839,-0.352543,-0.741661,0.722239,1.497411,-10.297672
1790538280.0552,0.024150,-0.010877,-0.081357,0.023628,-0.010160,-0.081357,0.380776,-0.175278,-0.497618,1.067191,3.542311,-11.656063
1790538280.0691,0.014674,0.000556,-0.104324,0.017360,-0.002659,-0.104324,-0.693740,0.896809,-0.586250,-1.079176,2.389731,-14.528091
1790538280.0830,0.013279,0.011337,-0.134112,0.014504,0.007138,-0.134112,-0.953566,0.490071,-0.383489,-2.458983,0.233291,-14.411658
1790538280.0970,0.015289,0.018562,-0.162635,0.015054,0.015135,-0.162635,-0.972992,0.513140,-0.361634,-2.497311,-1.030829,-7.270399
1790538280.1109,0.008154,0.026292,-0.177843,0.010224,0.022945,-0.177843,-0.896501,0.652766,-0.084810,-0.235960,-0.250049,-4.165504
1790538280.1251,0.001464,0.039951,-0.176499,0.004092,0.034849,-0.176499,-0.908643,0.666122,-0.039886,-0.389272,0.716631,-4.281937
1790538280.1401,0.014975,0.024886,-0.187809,0.011710,0.027875,-0.187809,0.691597,-0.733784,0.062102,-2.229015,-1.328269,-20.505015
1790538280.1542,0.002629,0.021618,-0.159552,0.005353,0.023495,-0.159552,0.219295,0.350445,0.705597,3.520182,1.348691,-12.121798
1790538280.1684,-0.004563,0.017152,-0.141992,-0.001588,0.019055,-0.141992,0.266647,0.123401,0.955710,1.757095,0.865351,-9.094525
1790538280.1825,0.009220,0.003730,-0.120161,0.005978,0.008328,-0.120161,0.712237,-0.640295,0.718952,-1.999048,-0.324409,-7.813756
1790538280.1967,0.005780,-0.005359,-0.112251,0.005840,-0.001253,-0.112251,0.575039,0.380799,0.495550,-1.040848,0.530731,-10.064805
1790538280.2105,-0.006945,-0.012532,-0.105660,-0.003110,-0.009148,-0.105660,0.474265,0.958730,0.565971,-0.350944,0.753811,-11.539630
1790538280.2246,-0.015814,-0.023615,-0.091567,-0.012003,-0.019275,-0.091567,0.830009,0.507069,0.762662,0.875551,1.348691,-11.500819
1790538280.2382,-0.026306,-0.029337,-0.060583,-0.022015,-0.026319,-0.060583,0.685526,0.668550,0.709239,0.683911,2.092291,-8.240679
1790538280.2522,-0.031858,-0.038192,-0.049495,-0.028905,-0.034630,-0.049495,0.652744,0.578704,0.620607,-0.887536,0.828171,-8.861658
1790538280.2671,-0.032379,-0.044804,-0.033392,-0.031337,-0.041752,-0.033392,0.539829,0.175609,0.507692,-0.657568,1.237151,-8.978091
1790538280.2818,-0.029284,-0.051514,-0.032406,-0.029899,-0.048585,-0.032406,0.380776,-0.107286,0.533189,-0.695896,0.233291,-14.877392
1790538280.2961,-0.020523,-0.046605,-0.024573,-0.023336,-0.047199,-0.024573,-0.387776,-0.804204,0.472482,2.255358,0.493551,-13.984735
1790538280.3106,-0.017614,-0.042630,-0.034225,-0.019331,-0.044001,-0.034225,-0.545614,-0.605085,0.405704,4.018446,-1.700068,-11.850119
1790538280.3252,-0.015101,-0.032057,-0.025773,-0.016370,-0.035640,-0.025773,-0.894073,-0.758067,0.386277,3.750150,-0.473129,-7.348021
1790538280.3391,-0.010270,-0.020211,-0.020668,-0.012100,-0.024840,-0.020668,-1.119903,-0.877053,0.377778,2.332014,-0.696209,-5.407462
1790538280.3534,-0.006940,-0.005200,-0.017962,-0.008488,-0.011092,-0.017962,-1.198823,-0.555305,0.380207,2.293686,-0.138509,-9.133336
1790538280.3673,-0.001490,0.010576,-0.013900,-0.003590,0.004075,-0.013900,-1.320237,-0.724071,0.233296,2.676966,-0.361589,-10.297672
1790538280.3814,0.000926,0.027720,-0.016018,-0.000428,0.020627,-0.016018,-1.377302,-0.684004,0.183516,3.520182,-0.064149,-8.279490
1790538280.3957,-0.015250,0.027375,-0.016956,-0.010804,0.025350,-0.016956,-0.120664,0.915021,-0.191654,3.941790,0.047391,-16.391028
1790538280.4098,-0.015315,0.023688,-0.001679,-0.013962,0.024186,-0.001679,0.358922,0.496142,-0.831507,-3.263871,2.241011,-11.694875
1790538280.4237,-0.006564,0.024452,-0.036794,-0.008783,0.024373,-0.036794,0.476693,-0.244485,-0.595963,-1.309144,2.835891,-4.631238
1790538280.4377,-0.004729,0.015226,-0.027963,-0.005945,0.017970,-0.027963,0.544685,-0.000442,-0.241434,-0.542584,0.196111,-9.482637
1790538280.4518,0.009872,-0.004253,-0.019977,0.005127,0.002414,-0.019977,1.335092,-0.720428,-0.598392,-3.033903,0.753811,-14.799770
1790538280.4658,0.024979,-0.012637,-0.035597,0.019023,-0.008122,-0.035597,0.878574,-0.881909,-0.780513,-1.117504,3.021791,-9.055714
1790538280.4794,0.028007,-0.018188,-0.055788,0.025312,-0.015168,-0.055788,0.590823,-0.441176,-0.721020,1.488799,1.571771,-6.494175
1790538280.4930,0.040720,-0.026460,-0.067601,0.036098,-0.023072,-0.067601,0.707380,-0.690075,-0.730733,-1.462456,1.274331,-7.774944
1790538280.5071,0.050806,-0.037587,-0.079452,0.046394,-0.033233,-0.079452,0.822724,-0.713143,-0.795083,0.070663,0.865351,-8.163056
1790538280.5211,0.045820,-0.049088,-0.091881,0.045992,-0.044331,-0.091881,0.992704,0.269098,-0.595963,1.297159,3.505131,-16.002917
1790538280.5350,0.022909,-0.038756,-0.111545,0.029834,-0.040429,-0.111545,-0.557756,1.772206,-0.684596,-1.385800,4.100011,-17.283686
1790538280.5489,0.024008,-0.021793,-0.120228,0.025756,-0.027384,-0.120228,-1.152685,0.548350,-0.666384,-6.176798,1.460231,-9.948371
1790538280.5628,0.014766,-0.007982,-0.129406,0.018063,-0.013803,-0.129406,-1.387015,1.019437,-0.547398,-1.309144,-1.328269,-4.437182
1790538280.5768,0.007994,0.010016,-0.131955,0.011015,0.002870,-0.131955,-1.571564,0.984227,-0.513402,-1.884064,-0.807749,-4.320748
1790538280.5908,-0.008328,0.024303,-0.155228,-0.002525,0.017873,-0.155228,-1.278956,1.237983,-0.356777,0.032335,-0.882109,-7.386832
1790538280.6047,-0.012335,0.038166,-0.134419,-0.009392,0.032078,-0.134419,-1.016701,0.731686,-0.404129,-3.110559,0.716631,-9.016902
1790538280.6188,-0.001547,0.029341,-0.152163,-0.003900,0.030162,-0.152163,0.362564,-0.612370,0.028106,-3.110559,-2.406488,-21.125994
1790538280.6331,-0.002442,0.034412,-0.115857,-0.002880,0.033137,-0.115857,-0.113380,-0.067220,0.421488,0.760567,2.649991,-7.037532
1790538280.6477,0.004446,0.030996,-0.097374,0.002248,0.031638,-0.097374,0.256934,-0.619654,0.919286,0.377287,1.608951,-9.443825
1790538280.6618,0.014471,0.018446,-0.103480,0.010804,0.022404,-0.103480,0.717094,-0.762923,0.748092,-0.389272,-0.287229,-7.969000
1790538280.6759,0.006283,0.007567,-0.104358,0.007640,0.012018,-0.104358,0.736520,0.281239,0.817298,1.833751,0.679451,-8.240679
1790538280.6899,-0.003728,-0.004374,-0.099591,-0.000318,0.000543,-0.099591,0.777801,0.664908,0.760233,-0.005993,0.382011,-11.462007
1790538280.7035,-0.016880,-0.015670,-0.089297,-0.011911,-0.010806,-0.089297,0.806940,0.850672,0.931427,0.683911,0.865351,-9.909560
1790538280.7170,-0.029319,-0.018405,-0.040216,-0.024097,-0.016125,-0.040216,0.462124,0.924734,0.935070,-0.159304,2.835891,-7.813756
1790538280.7310,-0.034998,-0.023772,-0.015269,-0.031728,-0.021478,-0.015269,0.441483,0.503427,0.901074,-0.964192,1.423051,-8.163056
1790538280.7449,-0.029023,-0.025070,0.016312,-0.029834,-0.023992,0.016312,0.233865,-0.472743,0.863435,0.262303,2.612811,-10.181238
1790538280.7589,-0.022287,-0.024710,0.012934,-0.024551,-0.024495,0.012934,-0.169230,-0.616012,0.734736,1.718767,-0.435949,-14.178791
1790538280.7728,-0.015998,-0.019741,0.001383,-0.018564,-0.021167,0.001383,-0.541972,-0.755638,0.853722,3.711822,-0.956469,-12.859210
1790538280.7868,-0.009766,-0.011908,-0.012173,-0.012406,-0.014686,-0.012173,-0.793299,-0.878267,0.802728,4.095102,-1.328269,-9.366203
1790538280.8007,-0.002609,0.002242,-0.005671,-0.005548,-0.002837,-0.005671,-1.117475,-0.951115,0.751734,2.791950,0.010211,-6.338930
1790538280.8146,0.007699,0.017170,0.005675,0.003725,0.011168,0.005675,-1.215821,-1.230368,0.706811,2.791950,-0.175689,-5.834385
1790538280.8285,0.023123,0.031748,0.008944,0.017304,0.025574,0.008944,-1.014273,-1.319000,0.511334,1.105519,1.237151,-7.464455
1790538280.8423,0.020813,0.043318,0.009433,0.019760,0.037995,0.009433,-0.799370,-0.106072,0.445770,2.791950,2.166651,-12.005364
1790538280.8565,0.006177,0.034008,0.011836,0.010252,0.035204,0.011836,0.564112,1.023080,-0.061741,1.028863,0.605091,-21.281238
1790538280.8704,0.017477,0.028085,0.047598,0.015309,0.030221,0.047598,0.505833,-0.240842,-0.944422,-5.716862,2.278191,-10.220049
1790538280.8844,0.000973,0.020459,0.002975,0.005274,0.023388,0.002975,0.655172,0.816676,-0.572895,3.788478,1.608951,-6.494175
1790538280.8995,0.007681,0.016292,0.007520,0.006958,0.018421,0.007520,0.426914,-0.182563,-0.243862,-0.964192,1.014071,-3.272846
1790538280.9135,0.013567,0.000167,0.006636,0.011585,0.005643,0.006636,1.092263,-0.294264,-0.398058,-1.040848,0.307651,-11.462007
1790538280.9275,0.029733,-0.012983,-0.000077,0.024288,-0.007395,-0.000077,1.133544,-0.975398,-0.631174,-1.577440,3.319231,-10.103616
1790538280.9411,0.035648,-0.014912,-0.007751,0.032240,-0.012657,-0.007751,0.469409,-0.419321,-0.637244,0.185647,3.542311,-7.076343
1790538280.9547,0.038520,-0.022653,-0.011912,0.036636,-0.019654,-0.011912,0.490049,-0.268767,-0.634816,0.990535,0.010211,-9.909560
1790538280.9687,0.044488,-0.028519,-0.019393,0.042133,-0.025859,-0.019393,0.424485,-0.463030,-0.677311,0.683911,0.902531,-9.754315
1790538280.9825,0.032224,-0.033524,-0.027724,0.035197,-0.031224,-0.027724,0.385633,0.840959,-0.621460,1.757095,2.129471,-19.573546
1790538280.9965,0.022920,-0.021920,-0.041845,0.026603,-0.024711,-0.041845,-0.827295,0.896809,-0.536471,-3.225543,1.162791,-13.829490
1790538281.0105,0.024458,-0.010018,-0.051147,0.025102,-0.014426,-0.051147,-1.073766,0.249671,-0.552254,-3.685479,-1.774428,-9.055714
1790538281.0244,0.014365,0.003363,-0.060417,0.017586,-0.001974,-0.060417,-1.257101,1.014581,-0.490333,-1.385800,-1.291089,-4.631238
1790538281.0385,0.002379,0.023514,-0.061952,0.006941,0.015868,-0.061952,-1.413726,1.088644,-0.457551,-0.925864,0.605091,-4.553616
1790538281.0526,-0.011825,0.035719,-0.078712,-0.006196,0.029764,-0.078712,-1.084693,1.227056,-0.389559,-1.500784,-1.328269,-8.939280
1790538281.0665,-0.002725,0.028996,-0.083020,-0.003766,0.029226,-0.083020,0.289716,-0.465458,-0.181941,-3.992103,-2.406488,-21.281238
1790538281.0804,-0.006662,0.025427,-0.082106,-0.005793,0.026567,-0.082106,0.301857,0.114902,0.315857,1.910407,1.980751,-10.336483
1790538281.0944,-0.008247,0.027391,-0.068552,-0.007511,0.027144,-0.068552,-0.006535,-0.198347,0.729880,2.332014,2.389731,-7.231588
1790538281.1083,-0.001479,0.012807,-0.060406,-0.003289,0.017108,-0.060406,0.905286,-0.548020,0.813655,-0.274288,-0.361589,-8.318301
1790538281.1221,-0.004005,-0.002749,-0.061792,-0.003790,0.003208,-0.061792,1.123831,-0.119428,0.557472,2.600310,0.902531,-7.813756
1790538281.1365,-0.018043,-0.013189,-0.059129,-0.013767,-0.008270,-0.059129,0.732877,0.814247,0.582969,2.140375,1.274331,-11.539630
1790538281.1508,-0.030859,-0.026257,-0.049109,-0.025731,-0.020861,-0.049109,0.940496,0.797249,0.773589,1.028863,1.571771,-10.452916
1790538281.1645,-0.043742,-0.033461,-0.024912,-0.038339,-0.029681,-0.024912,0.748661,0.798464,0.937498,1.258831,3.058971,-7.153965
1790538281.1782,-0.053062,-0.038409,-0.008070,-0.048645,-0.035790,-0.008070,0.505833,0.634554,0.887718,0.492271,2.612811,-8.124245
1790538281.1921,-0.048629,-0.049387,0.005574,-0.048634,-0.045308,0.005574,0.590823,-0.223844,0.924142,-1.424128,-1.439808,-11.888930
1790538281.2060,-0.043273,-0.054509,0.015980,-0.044881,-0.051748,0.015980,0.226580,-0.436319,0.859793,1.028863,-0.882109,-14.023546
1790538281.2200,-0.037430,-0.051466,0.026464,-0.039665,-0.051551,0.026464,-0.289430,-0.578374,0.858579,2.523654,0.233291,-11.733686
1790538281.2340,-0.028582,-0.046187,0.037879,-0.031907,-0.047796,0.037879,-0.574754,-0.881909,0.830653,3.941790,-1.885968,-11.966553
1790538281.2480,-0.022579,-0.035560,0.048499,-0.025378,-0.039231,0.048499,-0.932926,-0.728927,0.794229,3.443526,-1.142369,-8.822846
1790538281.2620,-0.020629,-0.018671,0.054537,-0.022053,-0.024839,0.054537,-1.285027,-0.601442,0.722595,4.401726,0.047391,-6.610609
1790538281.2760,-0.010211,-0.002296,0.070574,-0.013764,-0.009059,0.070574,-1.315380,-0.913477,0.599966,1.450471,-0.473129,-8.240679
1790538281.2899,-0.001217,0.014274,0.066074,-0.004981,0.007274,0.066074,-1.218249,-0.968113,0.453055,3.596838,0.790991,-9.327392
1790538281.3038,0.003862,0.030384,0.068920,0.001209,0.023451,0.068920,-1.206108,-0.667006,0.378993,3.865134,0.716631,-10.724595
1790538281.3178,-0.014482,0.029336,0.074231,-0.009775,0.027571,0.074231,0.005606,1.285335,-0.059313,1.833751,0.753811,-19.884036
1790538281.3317,-0.011194,0.022088,0.081427,-0.010768,0.023733,0.081427,0.541043,0.072407,-0.910426,-3.953775,2.203831,-17.788231
1790538281.3457,-0.016762,0.022589,-0.000172,-0.014964,0.022932,-0.000172,0.412344,0.186536,-0.541327,2.791950,4.323091,-5.291028
1790538281.3596,-0.014280,0.015341,0.007330,-0.014485,0.017618,0.007330,0.502190,-0.045365,-0.239006,-0.580912,0.493551,-5.562707
1790538281.3735,-0.003034,0.000499,0.027936,-0.006469,0.005635,0.027936,1.023057,-0.555305,-0.506117,-2.842263,0.493551,-11.500819
1790538281.3874,0.013005,-0.010148,0.000716,0.007163,-0.005413,0.000716,0.993918,-1.106525,-0.728305,0.223975,2.910251,-7.464455
1790538281.4019,0.019426,-0.015852,-0.022439,0.015747,-0.012720,-0.022439,0.590823,-0.464244,-0.846077,0.952207,2.575631,-7.076343
1790538281.4158,0.026657,-0.021362,-0.038415,0.023384,-0.018770,-0.038415,0.456053,-0.510382,-0.855790,0.568927,1.348691,-8.589979
1790538281.4300,0.033116,-0.030145,-0.051581,0.030196,-0.026733,-0.051581,0.635746,-0.439961,-0.871574,0.453943,0.939711,-9.055714
1790538281.4438,0.021184,-0.034160,-0.073665,0.023888,-0.031932,-0.073665,0.431770,0.884668,-0.774442,0.607255,3.616671,-13.907112
1790538281.4577,0.007759,-0.020990,-0.093886,0.012597,-0.024273,-0.093886,-0.852792,1.095928,-0.685810,-1.232488,2.612811,-13.286133
1790538281.4716,0.007829,-0.007823,-0.043541,0.009259,-0.012758,-0.043541,-1.153899,0.295809,-0.615390,-3.915447,-2.034688,-10.763406
1790538281.4856,-0.000292,0.008882,-0.019946,0.002574,0.002390,-0.019946,-1.387015,0.957516,-0.570466,-2.995575,-1.216729,-6.494175
1790538281.4995,-0.011965,0.030448,-0.040459,-0.007603,0.022031,-0.040459,-1.406441,1.234341,-0.459980,-1.960720,1.274331,-3.932637
1790538281.5133,-0.021773,0.045881,-0.050017,-0.017522,0.038726,-0.050017,-1.128402,1.134781,-0.555897,-2.573967,0.493551,-5.523895
1790538281.5273,-0.024998,0.055284,-0.055834,-0.022755,0.050317,-0.055834,-0.433913,0.453647,-0.536471,-1.040848,3.058971,-6.222497
1790538281.5412,-0.013447,0.044637,-0.056309,-0.016239,0.046341,-0.056309,0.834865,-0.707073,0.057245,-2.918919,4.583351,-17.788231
1790538281.5556,-0.025340,0.043601,-0.031994,-0.022610,0.044423,-0.031994,0.137948,0.533781,0.780874,3.558510,3.058971,-10.724595
1790538281.5698,-0.019244,0.033544,-0.018219,-0.020254,0.036808,-0.018219,0.581110,-0.560161,1.086837,0.070663,0.270471,-13.169700
1790538281.5838,-0.007524,0.023192,-0.008413,-0.011343,0.027276,-0.008413,0.774158,-0.885552,0.710453,-0.465928,2.129471,-10.297672
1790538281.5977,-0.025009,0.013953,0.015933,-0.020909,0.017950,0.015933,0.640603,0.896809,0.896217,2.676966,0.716631,-6.106063
1790538281.6116,-0.038306,-0.002458,0.032818,-0.033087,0.003664,0.032818,1.078908,0.771752,1.004276,1.948735,0.233291,-11.306763
1790538281.6252,-0.049743,-0.017259,0.044478,-0.044746,-0.010982,0.044478,1.188181,0.680692,1.188825,1.105519,2.315371,-7.037532
1790538281.6391,-0.060260,-0.021852,0.042074,-0.055606,-0.018591,0.042074,0.554399,0.706189,1.209466,0.223975,4.211551,-7.348021
1790538281.6538,-0.060223,-0.027607,0.041877,-0.058838,-0.024902,0.041877,0.417200,0.060265,1.040700,-1.577440,3.058971,-12.975644
1790538281.6678,-0.056971,-0.026840,0.063166,-0.057531,-0.026259,0.063166,-0.130378,-0.369541,0.952068,2.408670,1.014071,-14.139979
1790538281.6818,-0.052115,-0.022683,0.082025,-0.053740,-0.023756,0.082025,-0.398703,-0.466673,0.870720,2.063719,0.382011,-14.411658
1790538281.6958,-0.047070,-0.019122,0.122309,-0.049071,-0.020512,0.122309,-0.521331,-0.635438,0.908359,3.711822,-2.332128,-10.103616
1790538281.7098,-0.031179,-0.011090,0.145361,-0.036547,-0.013917,0.145361,-0.736235,-1.316572,0.772375,1.680439,-0.584669,-8.046623
1790538281.7238,-0.025440,0.000086,0.158708,-0.028772,-0.004115,0.158708,-0.992418,-0.852770,0.801514,3.060246,-0.733389,-4.592427
1790538281.7376,-0.014217,0.012725,0.180241,-0.018584,0.007673,0.180241,-1.044627,-1.008180,0.694670,1.373815,-0.212869,-6.688231
1790538281.7516,-0.007841,0.025052,0.178552,-0.011064,0.019839,0.178552,-0.812725,-0.607513,0.552615,1.527127,2.538451,-10.103616
1790538281.7655,-0.021301,0.018111,0.189803,-0.018230,0.018630,0.189803,0.335853,0.993940,-0.050814,0.300631,-1.811608,-15.459560
1790538281.7793,-0.011868,0.013799,0.169117,-0.013777,0.015248,0.169117,0.378348,-0.476386,-0.741661,-1.654096,1.869211,-11.190329
1790538281.7932,-0.016088,0.006874,0.153176,-0.015394,0.009386,0.153176,0.579896,0.203534,-0.610533,2.446998,1.608951,-8.357112
1790538281.8070,-0.016612,-0.002833,0.147934,-0.016247,0.000833,0.147934,0.726807,-0.041723,-0.429626,1.297159,0.679451,-5.989630
1790538281.8209,-0.000119,-0.018096,0.136736,-0.004957,-0.012417,0.136736,1.094692,-1.019107,-0.620246,-1.539112,0.493551,-10.064805
1790538281.8348,0.009877,-0.037445,0.107850,0.005427,-0.029936,0.107850,1.522070,-0.595372,-0.881287,-0.734224,2.166651,-9.443825
1790538281.8484,0.028768,-0.055020,0.070849,0.021766,-0.047495,0.070849,1.460149,-1.214584,-1.069479,-1.385800,2.129471,-7.658511
1790538281.8621,0.043575,-0.064478,0.050045,0.037032,-0.059383,0.050045,0.924712,-1.123523,-0.829079,0.492271,2.203831,-5.368651
1790538281.8757,0.044909,-0.073417,0.040172,0.042546,-0.069207,0.040172,0.680669,-0.113357,-0.727091,0.377287,1.237151,-14.178791
1790538281.8895,0.026237,-0.075732,0.037530,0.031130,-0.073774,0.037530,0.134305,1.327829,-0.594749,0.798895,-0.101329,-17.012007
1790538281.9041,0.025759,-0.070793,0.018696,0.027370,-0.071687,0.018696,-0.419343,0.299451,-0.702808,-5.371910,-1.328269,-12.975644
1790538281.9181,0.017484,-0.063806,0.018041,0.020450,-0.066170,0.018041,-0.696168,0.811819,-0.683382,-3.915447,-3.373168,-11.966553
1790538281.9322,0.012516,-0.049344,0.009729,0.014896,-0.054392,0.009729,-1.184253,0.834888,-0.997844,-5.755190,-1.811608,-6.532986
1790538281.9462,-0.003841,-0.035165,0.005652,0.001781,-0.040933,0.005652,-1.361518,1.291405,-0.724663,-0.504256,-2.518028,-4.592427
1790538281.9603,-0.008264,-0.018364,-0.004710,-0.005251,-0.025135,-0.004710,-1.294740,0.647910,-0.654242,-2.343999,-0.696209,-5.213406
1790538281.9743,-0.018835,0.001365,-0.014309,-0.014760,-0.006585,-0.014309,-1.508429,0.838530,-0.356777,-0.235960,-0.473129,-8.240679
1790538281.9882,-0.029955,0.020854,-0.024590,-0.025396,0.012622,-0.024590,-1.573993,0.915021,-0.303355,-0.772552,-1.848788,-10.802217
1790538282.0021,-0.038166,0.044686,-0.026817,-0.034335,0.035067,-0.026817,-1.877528,0.796035,-0.224436,-2.382327,-1.625708,-11.733686
1790538282.0161,-0.027944,0.051595,-0.038882,-0.029862,0.046636,-0.038882,-0.748376,-0.707073,-0.132161,0.338959,-4.786008,-20.194525
1790538282.0301,-0.007208,0.037457,-0.039032,-0.014004,0.040211,-0.039032,0.950209,-1.717239,0.524690,3.596838,1.348691,-14.955014
1790538282.0440,-0.014783,0.033697,-0.027370,-0.014549,0.035651,-0.027370,0.391703,0.287310,0.664316,3.481854,3.914111,-10.802217
1790538282.0578,-0.011726,0.022508,-0.025963,-0.012573,0.026451,-0.025963,0.803298,-0.225058,0.054817,0.147319,0.716631,-5.912007
1790538282.0718,-0.022382,0.003561,-0.025951,-0.019439,0.010428,-0.025951,1.354518,0.429364,0.205370,4.401726,0.790991,-7.464455
1790538282.0853,-0.037129,-0.011592,-0.025700,-0.031822,-0.004986,-0.025700,1.219748,0.941732,0.324356,2.370342,2.389731,-9.482637
1790538282.0989,-0.051940,-0.020258,-0.005071,-0.045904,-0.015677,-0.005071,0.755946,1.205201,0.485837,-1.424128,2.687171,-8.939280
1790538282.1128,-0.055867,-0.029573,0.013383,-0.052879,-0.025404,0.013383,0.696453,0.383227,0.663102,-1.692424,2.017931,-11.073895
1790538282.1267,-0.046602,-0.029102,0.030266,-0.048485,-0.027993,0.030266,0.061457,-0.682790,0.739593,0.147319,3.467951,-11.345574
1790538282.1409,-0.038513,-0.023266,0.040424,-0.041505,-0.024684,0.040424,-0.493406,-0.624511,0.733522,0.683911,0.270471,-12.082986
1790538282.1555,-0.032169,-0.018605,0.046807,-0.034970,-0.020428,0.046807,-0.501905,-0.612370,0.728666,2.791950,-1.737248,-11.539630
1790538282.1695,-0.027314,-0.012848,0.051963,-0.029611,-0.015122,0.051963,-0.626962,-0.702216,0.603609,4.823333,-2.071868,-8.085434
1790538282.1835,-0.015874,0.001250,0.055053,-0.019995,-0.003662,0.055053,-1.135687,-1.119881,0.449413,3.826806,-0.659029,-8.357112
1790538282.1975,-0.009954,0.021390,0.063212,-0.012966,0.013874,0.063212,-1.580063,-0.827273,0.417845,4.248414,-0.733389,-6.183686
1790538282.2115,-0.001971,0.040575,0.060057,-0.005270,0.032564,0.060057,-1.382158,-0.800562,0.388706,2.446998,1.162791,-8.434735
1790538282.2257,-0.018028,0.035641,0.065596,-0.014200,0.034718,0.065596,0.265433,1.132353,-0.055670,1.220503,0.047391,-17.244875
1790538282.2396,-0.019136,0.026008,0.063962,-0.017656,0.028621,0.063962,0.764445,0.351659,-0.886143,-2.650623,2.538451,-13.286133
1790538282.2534,-0.015126,0.020181,0.015282,-0.015885,0.022713,0.015282,0.695239,-0.510382,-0.918925,3.481854,2.947431,-5.058161
1790538282.2674,-0.020728,0.015373,0.000925,-0.019275,0.017575,0.000925,0.419629,0.324948,-0.449052,1.335487,1.088431,-5.407462
1790538282.2815,-0.011700,0.003929,0.010462,-0.013972,0.008023,0.010462,0.851863,-0.382897,-0.571681,-3.072231,1.571771,-10.646972
1790538282.2954,0.001506,-0.009898,-0.002287,-0.003137,-0.004522,-0.002287,1.115332,-0.760495,-0.841220,-1.577440,2.389731,-9.599070
1790538282.3089,0.005792,-0.011167,-0.020832,0.003114,-0.009174,-0.020832,0.470623,-0.282123,-0.944422,0.568927,4.397451,-5.717951
1790538282.3225,0.011299,-0.010818,-0.038650,0.008843,-0.010325,-0.038650,0.134305,-0.410822,-0.867931,1.182175,2.798711,-8.589979
1790538282.3367,0.014366,-0.018584,-0.047461,0.012709,-0.016106,-0.047461,0.517974,-0.144925,-0.944422,0.147319,0.270471,-10.220049
1790538282.3519,0.025066,-0.026174,-0.066478,0.021359,-0.023153,-0.066478,0.547114,-0.579588,-0.932281,-1.002520,1.571771,-10.297672
1790538282.3667,0.010783,-0.027661,-0.082333,0.013956,-0.026308,-0.082333,0.125806,1.035221,-0.821794,-0.120976,1.683311,-15.304315
1790538282.3809,0.005363,-0.013359,-0.081251,0.007941,-0.017244,-0.081251,-1.002132,0.677049,-0.617818,-4.988630,1.014071,-12.238231
1790538282.3957,0.002435,0.002193,-0.078813,0.004087,-0.003638,-0.078813,-1.158756,0.419651,-0.638458,-2.612295,-0.919289,-10.220049
1790538282.4098,-0.006657,0.013954,-0.077290,-0.003434,0.008676,-0.077290,-0.948709,0.884668,-0.532828,-1.462456,-0.510309,-5.601518
1790538282.4233,-0.019628,0.026461,-0.087004,-0.014770,0.021125,-0.087004,-0.840651,1.085001,-0.461194,-0.389272,1.571771,-6.882287
1790538282.4373,-0.026873,0.038724,-0.090154,-0.023242,0.033445,-0.090154,-0.934140,0.661265,-0.286357,-1.615768,0.270471,-14.217602
1790538282.4513,-0.014101,0.033962,-0.081673,-0.016843,0.033807,-0.081673,0.167087,-0.872196,0.132522,-1.079176,-1.923148,-15.498371
1790538282.4655,-0.018488,0.031402,-0.068838,-0.017995,0.032124,-0.068838,0.162231,0.093047,0.937498,1.948735,1.571771,-10.258860
1790538282.4794,-0.020066,0.023624,-0.053603,-0.019445,0.026174,-0.053603,0.573825,-0.143711,1.128118,1.565455,1.460231,-6.959909
1790538282.4933,-0.009000,0.008185,-0.031031,-0.012134,0.013582,-0.031031,0.958708,-0.605085,0.714096,-2.573967,-0.621849,-5.795574
1790538282.5072,-0.021760,-0.005620,-0.025494,-0.018872,0.000140,-0.025494,0.959922,0.680692,0.635177,2.332014,0.530731,-7.153965
1790538282.5210,-0.037281,-0.019784,-0.017630,-0.031758,-0.013807,-0.017630,1.040055,1.029151,0.752948,1.527127,2.017931,-13.557812
1790538282.5349,-0.053186,-0.030404,-0.008228,-0.046758,-0.025425,-0.008228,0.885859,1.061932,0.969066,0.837223,2.947431,-8.163056
1790538282.5484,-0.066140,-0.035873,0.000673,-0.060325,-0.032739,0.000673,0.526473,0.929591,0.921714,0.300631,2.687171,-7.309210
1790538282.5619,-0.072339,-0.045565,0.010001,-0.068735,-0.041717,0.010001,0.754732,0.486429,0.945997,-0.274288,2.092291,-8.978091
1790538282.5758,-0.069077,-0.053672,0.021655,-0.068974,-0.050086,0.021655,0.488835,-0.260268,0.847651,0.798895,0.233291,-12.781588
1790538282.5897,-0.062516,-0.054723,0.033029,-0.064453,-0.053332,0.033029,-0.021105,-0.521309,0.712882,1.527127,-0.138509,-14.023546
1790538282.6036,-0.057823,-0.057502,0.054401,-0.059812,-0.056251,0.054401,0.009249,-0.538307,0.807585,3.635166,-1.737248,-10.375294
1790538282.6175,-0.043228,-0.053595,0.073680,-0.048203,-0.054392,0.073680,-0.455768,-1.248580,0.823369,3.251886,-1.402628,-9.521448
1790538282.6315,-0.031649,-0.045888,0.089726,-0.036615,-0.048439,0.089726,-0.688883,-1.071315,0.831868,3.750150,-0.919289,-9.637881
1790538282.6457,-0.028193,-0.033855,0.103430,-0.030720,-0.038230,0.103430,-0.982705,-0.504311,0.771161,3.251886,-0.770569,-7.774944
1790538282.6604,-0.020193,-0.015846,0.115718,-0.023351,-0.022561,0.115718,-1.336021,-0.719214,0.504049,2.255358,-0.584669,-8.163056
1790538282.6747,-0.011547,0.006704,0.120978,-0.015088,-0.002076,0.120978,-1.690550,-0.838200,0.291574,2.830278,-0.473129,-7.542077
1790538282.6887,-0.001925,0.032419,0.128434,-0.005874,0.022071,0.128434,-1.956447,-0.901335,0.204156,2.676966,-0.547489,-8.007811
1790538282.7028,-0.020582,0.039213,0.131737,-0.016170,0.034070,0.131737,-0.614820,1.157850,0.059673,5.053301,-1.253909,-15.304315
1790538282.7167,-0.029251,0.026746,0.141314,-0.025327,0.028943,0.141314,0.806940,0.806963,-0.648172,-1.232488,-0.584669,-13.945924
1790538282.7307,-0.020015,0.024098,0.045281,-0.021608,0.025552,0.045281,0.624819,-0.669434,-0.600820,0.952207,4.843611,-5.717951
1790538282.7445,-0.028327,0.014753,0.050662,-0.026311,0.017992,0.050662,0.673384,0.406296,-0.146731,3.213558,0.865351,-7.774944
1790538282.7585,-0.011064,0.000133,0.067031,-0.015638,0.005491,0.067031,1.040055,-0.938974,-0.544969,-4.298727,0.902531,-11.190329
1790538282.7721,0.000665,-0.016024,0.058324,-0.004226,-0.009569,0.058324,1.201536,-0.929261,-0.515830,1.527127,0.716631,-7.774944
1790538282.7857,0.015963,-0.027998,0.036096,0.009906,-0.022470,0.036096,0.996346,-1.113810,-0.642101,0.415615,1.757671,-7.813756
1790538282.7996,0.033677,-0.036515,0.015479,0.026546,-0.032302,0.015479,0.698881,-1.292289,-0.722234,0.722239,1.534591,-7.813756
1790538282.8136,0.045097,-0.045780,-0.011020,0.039531,-0.041736,-0.011020,0.830009,-0.868554,-0.702808,0.952207,2.501271,-7.503266
1790538282.8275,0.016364,-0.042505,-0.013395,0.023314,-0.042274,-0.013395,-0.268790,1.998036,-0.713735,2.868606,0.530731,-16.701518
1790538282.8414,0.012567,-0.026720,-0.009369,0.015792,-0.031386,-0.009369,-1.206108,0.473073,-0.791440,-3.838791,-0.398769,-16.429840
1790538282.8555,0.008032,-0.007489,0.009657,0.010360,-0.014658,0.009657,-1.473219,0.636983,-0.768372,-3.762135,-0.770569,-8.745224
1790538282.8696,-0.002829,0.011778,0.029308,0.001128,0.003847,0.029308,-1.570350,1.069217,-0.633602,-1.769080,-1.105189,-4.864105
1790538282.8835,-0.014957,0.025880,0.023279,-0.010132,0.019270,0.023279,-1.089550,1.237983,-0.553468,-2.497311,-0.250049,-5.135783
1790538282.8975,-0.015324,0.033019,0.004955,-0.013767,0.028894,0.004955,-0.409630,0.340732,-0.740446,-2.535639,1.906391,-7.386832
1790538282.9122,-0.004449,0.018261,0.010120,-0.007244,0.021451,0.010120,0.861576,-0.603871,-0.220794,-2.765607,-2.183408,-16.274595
1790538282.9263,-0.012674,0.019390,0.010946,-0.011045,0.020008,0.010946,0.020176,0.589631,0.495550,-0.810880,3.505131,-11.423196
1790538282.9403,-0.010008,0.015093,0.029778,-0.010319,0.016567,0.029778,0.224152,-0.301549,1.166971,-0.159304,0.493551,-12.432287
1790538282.9544,-0.003081,0.006264,0.045870,-0.005252,0.009355,0.045870,0.613891,-0.624511,1.143902,0.185647,0.790991,-5.717951
1790538282.9682,-0.001007,0.003387,0.058252,-0.002281,0.005177,0.058252,0.252077,-0.246913,1.049199,-0.005993,1.348691,-6.494175
1790538282.9822,-0.017876,-0.002712,0.065899,-0.013197,-0.000345,0.065899,0.402631,0.919878,1.173042,2.638638,0.679451,-7.969000
1790538282.9961,-0.025137,-0.016466,0.083123,-0.021555,-0.011630,0.083123,0.965993,0.454861,1.310240,-0.312616,1.311511,-10.569350
1790538283.0097,-0.041204,-0.021676,0.091443,-0.035310,-0.018662,0.091443,0.465766,0.995155,1.423155,1.527127,2.649991,-8.124245
1790538283.0233,-0.049061,-0.021739,0.098826,-0.044935,-0.020816,0.098826,0.105166,0.618771,1.179112,-1.232488,3.021791,-8.240679
1790538283.0373,-0.046466,-0.024726,0.117672,-0.046007,-0.023553,0.117672,0.043245,-0.161923,1.080767,-1.347472,-1.030829,-12.509909
1790538283.0512,-0.041204,-0.024872,0.130490,-0.042645,-0.024476,0.130490,-0.068456,-0.454531,0.840367,1.067191,0.456371,-13.092077
1790538283.0650,-0.036361,-0.019267,0.145091,-0.038246,-0.020829,0.145091,-0.511618,-0.518881,0.943569,2.676966,0.010211,-13.014455
1790538283.0790,-0.030779,-0.014292,0.159676,-0.033019,-0.016254,0.159676,-0.490978,-0.623297,0.852508,2.945262,-0.621849,-9.676693
1790538283.0929,-0.019978,-0.004784,0.171063,-0.023891,-0.008225,0.171063,-0.788443,-0.987539,0.669173,2.600310,-0.287229,-8.939280
1790538283.1069,-0.006967,0.005938,0.184154,-0.012044,0.001689,0.184154,-0.925641,-1.108954,0.451841,1.603783,-0.844929,-6.843476
1790538283.1208,-0.003269,0.020833,0.183370,-0.005902,0.015090,0.183370,-1.149043,-0.528594,0.307358,2.753622,-0.064149,-6.727042
1790538283.1347,0.002013,0.034829,0.186567,-0.000361,0.028907,0.186567,-1.048269,-0.452103,0.094883,1.105519,0.716631,-10.142427
1790538283.1488,-0.005254,0.028996,0.190026,-0.003786,0.028969,0.190026,0.295786,0.543494,-0.450266,1.488799,-1.253909,-17.167252
1790538283.1633,-0.004185,0.020248,0.172129,-0.004065,0.022864,0.172129,0.706166,0.199891,-1.116830,-1.730752,2.017931,-8.046623
1790538283.1775,-0.008015,0.021392,0.114236,-0.006830,0.021834,0.114236,0.249649,0.139184,-0.685810,1.603783,2.501271,-3.311658
1790538283.1915,-0.000856,0.010704,0.119610,-0.002648,0.014043,0.119610,0.691597,-0.402323,-0.483048,-0.772552,-0.138509,-11.345574
1790538283.2055,0.010102,-0.006969,0.114359,0.006277,-0.000665,0.114359,1.267100,-0.620869,-0.779299,-1.692424,0.902531,-12.199420
1790538283.2194,0.024813,-0.017129,0.085068,0.019253,-0.012190,0.085068,1.019415,-0.866125,-1.169039,-1.347472,4.434631,-7.153965
1790538283.2330,0.034051,-0.023659,0.062695,0.029611,-0.020218,0.062695,0.656386,-0.618440,-1.043982,0.108991,2.538451,-6.610609
1790538283.2466,0.041516,-0.035561,0.052803,0.037944,-0.030958,0.052803,0.834865,-0.472743,-0.876430,-0.427600,0.270471,-9.094525
1790538283.2606,0.058873,-0.052802,0.043441,0.052595,-0.046249,0.043441,1.194251,-1.153877,-0.804796,-1.079176,0.158931,-9.172147
1790538283.2745,0.051767,-0.065786,0.034137,0.052015,-0.059925,0.034137,0.901643,0.562920,-0.651814,-1.270816,0.382011,-16.779140
1790538283.2885,0.017697,-0.057337,0.020376,0.027992,-0.058114,0.020376,-0.585681,2.473980,-0.730733,-0.235960,1.423051,-15.692427
1790538283.3024,0.018052,-0.046627,0.032747,0.021034,-0.050073,0.032747,-0.866148,0.306736,-0.815723,-7.020013,-1.551348,-12.936833
1790538283.3163,0.008423,-0.034399,0.030284,0.012207,-0.039101,0.030284,-1.040984,0.888310,-0.850933,-2.075704,-1.923148,-9.016902
1790538283.3302,-0.012697,-0.014366,0.021314,-0.005226,-0.021787,0.021314,-1.485360,1.483240,-0.704022,0.952207,-0.101329,-5.329839
1790538283.3441,-0.015161,0.003246,0.033650,-0.012181,-0.004264,0.033650,-1.464720,0.674621,-0.555897,-4.911974,-2.034688,-4.825294
1790538283.3579,-0.025960,0.019892,0.026880,-0.021826,0.012645,0.026880,-1.316594,0.949017,-0.382274,-1.769080,-1.142369,-11.656063
1790538283.3718,-0.032194,0.029116,0.023147,-0.029083,0.024175,0.023147,-0.707095,0.613914,-0.351921,-1.845736,0.307651,-13.247322
1790538283.3857,-0.017348,0.025971,0.025370,-0.020868,0.025432,0.025370,0.063885,-0.918333,0.147091,-3.800463,-1.848788,-14.256413
1790538283.3997,-0.016841,0.019929,0.028502,-0.018049,0.021580,0.028502,0.380776,-0.238414,0.778445,2.255358,0.939711,-10.802217
1790538283.4143,-0.010735,0.005471,0.039031,-0.012929,0.010304,0.039031,0.985419,-0.526165,0.726237,0.683911,1.348691,-9.987182
1790538283.4284,-0.014404,-0.015057,0.040898,-0.013962,-0.007449,0.040898,1.301096,0.168324,0.653389,0.530599,-0.956469,-6.610609
1790538283.4426,-0.029552,-0.028253,0.049958,-0.024875,-0.022011,0.049958,0.946566,1.046149,0.550187,0.185647,1.274331,-9.754315
1790538283.4565,-0.041848,-0.043115,0.060491,-0.036756,-0.036784,0.060491,1.070409,0.877383,0.591467,0.147319,1.348691,-12.277042
1790538283.4700,-0.057743,-0.051568,0.072372,-0.051447,-0.047133,0.072372,0.713451,1.114140,0.744449,1.105519,2.501271,-9.327392
1790538283.4837,-0.064017,-0.058554,0.090851,-0.060246,-0.055128,0.090851,0.537401,0.534995,0.847651,-0.772552,1.534591,-8.395923
1790538283.4975,-0.061375,-0.064278,0.104584,-0.061036,-0.061533,0.104584,0.340710,-0.203204,0.914429,0.492271,0.419191,-10.763406
1790538283.5115,-0.059845,-0.070101,0.110561,-0.060202,-0.067531,0.110561,0.222938,-0.152210,0.930213,1.258831,-2.183408,-13.130889
1790538283.5254,-0.054162,-0.078163,0.112689,-0.055974,-0.074974,0.112689,0.366207,-0.543163,1.028559,3.405198,-2.703928,-13.402567
1790538283.5393,-0.051495,-0.079227,0.110530,-0.052838,-0.077951,0.110530,-0.096382,-0.469101,1.039486,5.666549,-1.737248,-10.646972
1790538283.5532,-0.039078,-0.070760,0.118294,-0.043206,-0.072917,0.118294,-0.733806,-1.129594,1.197324,5.129957,-0.696209,-12.393476
1790538283.5670,-0.026683,-0.054110,0.126071,-0.031640,-0.059752,0.126071,-1.308095,-1.185445,0.983635,3.788478,-0.324409,-7.852567
1790538283.5810,-0.019331,-0.035796,0.142452,-0.023024,-0.042983,0.142452,-1.473219,-0.852770,0.857365,4.631693,-1.439808,-8.124245
1790538283.5950,-0.011071,-0.013039,0.144869,-0.014657,-0.022022,0.144869,-1.685694,-0.834558,0.630320,2.332014,0.084571,-6.416553
1790538283.6090,0.004479,0.011753,0.153078,-0.001262,0.001621,0.153078,-1.864173,-1.264364,0.429987,1.450471,-0.175689,-7.736133
1790538283.6228,0.015670,0.036403,0.163987,0.010591,0.025968,0.163987,-1.916381,-1.091956,0.360781,2.868606,-0.621849,-7.037532
1790538283.6368,-0.009882,0.032827,0.174230,-0.003740,0.030769,0.174230,0.129449,1.821985,0.014750,1.450471,-1.476988,-21.281238
1790538283.6510,-0.039986,0.023021,0.157236,-0.029112,0.025346,0.157236,0.902857,2.242078,-0.396844,-0.580912,5.252591,-11.656063
1790538283.6654,-0.032778,0.026213,0.180969,-0.031678,0.025953,0.180969,-0.051458,-0.233557,-0.090880,-4.413711,4.806431,-10.025993
1790538283.6794,-0.030939,0.010338,0.208345,-0.031161,0.015022,0.208345,1.122617,0.202320,-0.115163,-4.375383,0.716631,-8.551168
1790538283.6931,-0.007567,-0.013519,0.209976,-0.014645,-0.004957,0.209976,1.818320,-1.310501,-0.649386,-6.023486,1.943571,-9.948371
1790538283.7068,0.008522,-0.031178,0.197349,0.001572,-0.023312,0.197349,1.514785,-1.050675,-0.593535,-0.657568,2.129471,-4.747672
1790538283.7208,0.018718,-0.040507,0.171491,0.013574,-0.035348,0.171491,0.946566,-0.759281,-0.606891,0.722239,3.505131,-5.989630
1790538283.7347,0.024641,-0.052768,0.161756,0.021321,-0.047542,0.161756,0.984205,-0.418107,-0.576537,0.223975,1.906391,-9.094525
1790538283.7485,0.013389,-0.056358,0.151949,0.015768,-0.053713,0.151949,0.298215,0.928377,-0.736804,-2.612295,2.092291,-19.534735
1790538283.7625,-0.003534,-0.039962,0.144305,0.002257,-0.044087,0.144305,-1.118689,1.353326,-0.557111,-2.612295,1.980751,-15.265504
1790538283.7767,-0.002866,-0.025529,0.130651,-0.001329,-0.031096,0.130651,-1.133259,0.297023,-0.684596,-5.716862,-1.848788,-10.414105
1790538283.7905,-0.003070,-0.011814,0.116835,-0.002548,-0.017598,0.116835,-1.167255,0.445148,-0.677311,-3.762135,-1.514168,-4.941727
1790538283.8044,-0.025049,0.011636,0.097896,-0.018298,0.002866,0.097896,-1.658983,1.358183,-0.398058,2.523654,0.679451,-4.592427
1790538283.8181,-0.031135,0.034170,0.109944,-0.027284,0.024779,0.109944,-1.644413,0.857957,-0.467264,-3.953775,0.307651,-6.494175
1790538283.8321,-0.021763,0.035987,0.094911,-0.023419,0.032625,0.094911,-0.320998,-0.574731,-0.189226,-1.999048,-3.930868,-21.281238
1790538283.8461,-0.013248,0.025361,0.098281,-0.016300,0.027540,0.098281,0.724378,-0.733784,0.477338,1.987063,1.646131,-15.847672
1790538283.8600,-0.017978,0.026181,0.104922,-0.017474,0.026588,0.104922,-0.034460,0.091833,0.807585,2.983590,2.203831,-10.181238
1790538283.8740,-0.006522,0.020186,0.130310,-0.009808,0.022107,0.130310,0.340710,-0.629368,0.597538,-3.110559,-0.101329,-6.959909
1790538283.8879,-0.008983,0.010832,0.125762,-0.009230,0.014215,0.125762,0.697667,-0.083004,0.432415,2.332014,1.051251,-5.912007
1790538283.9017,-0.023985,0.002991,0.126864,-0.019559,0.006358,0.126864,0.629675,0.855528,0.470053,2.830278,1.832031,-7.697322
1790538283.9162,-0.033213,-0.004532,0.142759,-0.029116,-0.001265,0.142759,0.607821,0.644268,0.513762,-0.350944,2.464091,-8.628791
1790538283.9301,-0.043299,-0.011271,0.158437,-0.039044,-0.008269,0.158437,0.555613,0.746255,0.592682,-0.504256,2.241011,-8.784035
1790538283.9438,-0.050728,-0.014719,0.173771,-0.047223,-0.012784,0.173771,0.316427,0.578704,0.618179,-0.657568,2.426911,-9.870749
1790538283.9578,-0.053986,-0.020666,0.185317,-0.051957,-0.018302,0.185317,0.419629,0.246029,0.613322,-0.274288,1.274331,-9.172147
1790538283.9716,-0.043742,-0.022206,0.198157,-0.046207,-0.021034,0.198157,0.091810,-0.759281,0.688599,0.070663,1.646131,-13.053266
1790538283.9855,-0.035191,-0.020835,0.206274,-0.038496,-0.020895,0.206274,-0.132806,-0.801776,0.697098,3.366870,1.162791,-12.238231
1790538283.9995,-0.022563,-0.018099,0.201842,-0.027343,-0.018938,0.201842,-0.368349,-1.118667,0.637605,3.635166,-1.774428,-11.578441
1790538284.0134,-0.018881,-0.012318,0.194081,-0.021420,-0.014304,0.194081,-0.591752,-0.544378,0.429987,4.133430,-1.737248,-8.745224
1790538284.0274,-0.012057,-0.000639,0.191881,-0.014866,-0.004739,0.191881,-0.969350,-0.703430,0.264863,2.332014,-0.807749,-6.455364
1790538284.0416,-0.006618,0.014056,0.189706,-0.009093,0.008417,0.189706,-1.106548,-0.618440,0.171374,3.175230,0.010211,-7.891378
1790538284.0555,0.001765,0.029461,0.188094,-0.001492,0.023148,0.188094,-1.189110,-0.777493,0.028106,2.523654,-0.026969,-8.589979
1790538284.0694,-0.006150,0.035318,0.189734,-0.004753,0.031667,0.189734,-0.585681,0.498570,-0.168585,3.175230,-2.592388,-16.895574
1790538284.0834,-0.012670,0.028547,0.195227,-0.010295,0.029483,0.195227,0.485192,0.781466,-0.880073,-4.183743,1.199971,-14.722147
1790538284.0974,0.001234,0.014932,0.204581,-0.002225,0.019297,0.204581,0.972063,-0.573517,-1.080406,-4.490366,0.567911,-8.900469
1790538284.1112,-0.004406,0.011420,0.174681,-0.003752,0.013783,0.174681,0.294572,0.203534,-0.354349,2.791950,1.051251,-6.261308
1790538284.1250,0.004884,0.000277,0.181447,0.002293,0.004329,0.181447,0.817867,-0.480028,-0.391988,-3.110559,1.385871,-13.092077
1790538284.1388,0.025125,-0.016057,0.184549,0.018276,-0.009941,0.184549,1.201536,-1.181802,-0.842434,-4.222071,1.199971,-11.462007
1790538284.1525,0.035846,-0.026627,0.166592,0.030575,-0.021622,0.166592,0.959922,-0.796919,-0.878859,0.722239,2.649991,-6.338930
1790538284.1667,0.047869,-0.035056,0.152127,0.042681,-0.031026,0.152127,0.745019,-0.824844,-0.884929,0.223975,2.352551,-6.338930
1790538284.1808,0.057659,-0.048286,0.138237,0.053165,-0.043108,0.138237,0.936853,-0.697360,-0.883715,0.338959,0.679451,-6.804665
1790538284.1949,0.043946,-0.067224,0.121507,0.046712,-0.059989,0.121507,1.274385,0.857957,-0.714949,3.405198,-0.807749,-15.149070
1790538284.2089,0.025413,-0.055127,0.116256,0.031803,-0.056585,0.116256,-0.841865,1.463813,-0.580180,-4.183743,2.017931,-20.660259
1790538284.2228,0.030516,-0.040792,0.115163,0.030902,-0.045530,0.115163,-1.089550,0.033554,-0.571681,-7.479949,-0.510309,-9.599070
1790538284.2368,0.027808,-0.027658,0.102865,0.028736,-0.033020,0.102865,-1.124760,0.450005,-0.546184,-2.727279,-1.774428,-6.494175
1790538284.2508,0.011551,-0.006750,0.079583,0.016707,-0.014631,0.079583,-1.656554,1.069217,-0.355563,0.492271,-0.435949,-2.380189
1790538284.2648,0.001054,0.013006,0.067467,0.005750,0.004715,0.067467,-1.626201,0.836102,-0.497618,-0.120976,-0.956469,-3.777392
1790538284.2787,-0.017984,0.030088,0.057272,-0.010864,0.022476,0.057272,-1.219463,1.422533,-0.468479,0.415615,0.865351,-7.619700
1790538284.2926,-0.007023,0.022250,0.078985,-0.008175,0.022318,0.078985,0.439055,-0.480028,-0.319139,-6.100142,-1.885968,-13.868301
1790538284.3064,-0.006862,0.011719,0.093562,-0.007256,0.014899,0.093562,0.904071,-0.041723,0.392348,0.070663,3.319231,-8.978091
1790538284.3204,-0.008400,0.018096,0.110907,-0.008057,0.017137,0.110907,-0.373206,0.082120,0.640033,-0.312616,2.241011,-7.852567
1790538284.3343,0.001797,0.012096,0.111595,-0.001159,0.013608,0.111595,0.340710,-0.860055,0.641247,0.952207,-0.064149,-10.569350
1790538284.3481,0.001418,0.000073,0.105647,0.000645,0.004134,0.105647,0.870075,-0.216559,0.672815,2.102047,0.865351,-6.998721
1790538284.3620,-0.012081,-0.011852,0.109217,-0.008263,-0.007056,0.109217,0.883431,0.808177,0.739593,1.910407,1.608951,-10.025993
1790538284.3759,-0.023344,-0.022054,0.125163,-0.018820,-0.017555,0.125163,0.774158,0.791179,0.791801,-0.274288,1.906391,-10.142427
1790538284.3894,-0.038398,-0.026134,0.141189,-0.032525,-0.023560,0.141189,0.385633,1.074074,0.835510,0.300631,2.501271,-9.288581
1790538284.4031,-0.044650,-0.029310,0.158967,-0.041013,-0.027585,0.158967,0.226580,0.496142,0.853722,-1.002520,1.460231,-10.491728
1790538284.4186,-0.042628,-0.034767,0.176731,-0.042143,-0.032613,0.176731,0.340710,-0.083004,0.748092,-1.040848,1.125611,-8.978091
1790538284.4342,-0.034006,-0.037263,0.185118,-0.036448,-0.035868,0.185118,0.057814,-0.597800,0.772375,0.568927,-0.510309,-13.286133
1790538284.4488,-0.025605,-0.033249,0.190803,-0.028857,-0.034034,0.190803,-0.381705,-0.741069,1.026130,2.561982,-0.324409,-12.044175
1790538284.4632,-0.019569,-0.025927,0.189143,-0.022356,-0.028359,0.189143,-0.652459,-0.650008,0.972708,3.213558,-1.068009,-10.181238
1790538284.4789,-0.010923,-0.009672,0.184958,-0.014353,-0.015278,0.184958,-1.169683,-0.880695,0.824583,4.670021,-1.030829,-8.357112
1790538284.4928,-0.000282,0.009621,0.184701,-0.004503,0.002151,0.184701,-1.458649,-1.044604,0.535617,2.868606,0.047391,-7.153965
1790538284.5066,0.009595,0.028535,0.184578,0.005365,0.020620,0.184578,-1.419797,-0.940188,0.372922,2.025391,0.382011,-6.843476
1790538284.5207,0.018644,0.044900,0.184686,0.014660,0.037616,0.184686,-1.189110,-0.839414,0.302502,2.063719,0.716631,-8.085434
1790538284.5346,0.001437,0.039248,0.185217,0.005404,0.038759,0.185217,0.310356,1.210058,-0.009533,1.642111,-0.398769,-20.349770
1790538284.5486,0.005268,0.023648,0.190182,0.005309,0.028181,0.190182,1.168754,0.004415,-0.914069,-4.222071,3.356411,-17.128441
1790538284.5627,0.017788,0.015970,0.211979,0.014044,0.019634,0.211979,0.515546,-0.481242,-1.035483,-4.643678,0.382011,-9.249770
1790538284.5767,0.009663,0.014196,0.209313,0.010977,0.015827,0.209313,0.311570,0.653981,-0.262074,-0.350944,2.649991,-5.989630
1790538284.5907,0.014651,0.003193,0.211841,0.013549,0.006983,0.211841,0.703738,-0.165565,-0.394416,-3.493839,-0.659029,-14.372847
1790538284.6048,0.026265,-0.009522,0.214985,0.022450,-0.004571,0.214985,0.981777,-0.614798,-0.559539,-2.382327,1.980751,-8.589979
1790538284.6184,0.031281,-0.013583,0.204260,0.028632,-0.010879,0.204260,0.462124,-0.382897,-0.572895,0.683911,2.835891,-7.542077
1790538284.6321,0.031229,-0.018805,0.187568,0.030450,-0.016427,0.187568,0.440269,-0.083004,-0.622675,1.450471,1.311511,-6.804665
1790538284.6461,0.035359,-0.023376,0.177576,0.033886,-0.021291,0.177576,0.321283,-0.254198,-0.697951,0.032335,0.753811,-9.055714
1790538284.6602,0.037545,-0.026493,0.169424,0.036448,-0.024932,0.169424,0.317641,-0.136426,-0.540113,0.185647,3.021791,-11.888930
1790538284.6745,0.018947,-0.015422,0.157007,0.024197,-0.018275,0.157007,-0.765374,1.305975,-0.651814,1.182175,1.720491,-16.429840
1790538284.6886,0.016962,-0.000127,0.151168,0.019133,-0.005571,0.151168,-1.190324,0.419651,-0.538899,-4.068759,-0.844929,-10.142427
1790538284.7026,0.009601,0.012343,0.140532,0.012461,0.006969,0.140532,-1.061625,0.732900,-0.466050,-1.270816,-0.956469,-4.825294
1790538284.7165,0.002356,0.024647,0.143053,0.005388,0.019343,0.143053,-0.880717,0.714688,-0.264503,-0.772552,0.382011,-3.156413
1790538284.7304,-0.000741,0.030714,0.146269,0.001097,0.027303,0.146269,-0.387776,0.356516,-0.213509,-2.229015,2.910251,-14.605714
1790538284.7443,0.009176,0.021173,0.150782,0.006752,0.023012,0.150782,0.644245,-0.732570,0.315857,-0.580912,1.088431,-17.594175
1790538284.7581,0.001147,0.018401,0.159556,0.002829,0.019784,0.159556,0.220509,0.367443,1.015203,2.140375,2.092291,-12.044175
1790538284.7721,0.000895,0.008166,0.172709,0.001475,0.011651,0.172709,0.701310,-0.221416,1.341807,1.565455,0.902531,-9.676693
1790538284.7859,0.010659,-0.010234,0.179452,0.007903,-0.003668,0.179452,1.115332,-0.634224,0.945997,-2.267343,-2.034688,-7.736133
1790538284.7999,0.002277,-0.018541,0.190659,0.003965,-0.014079,0.190659,0.685526,0.505855,0.632748,0.837223,2.389731,-9.560259
1790538284.8139,-0.011425,-0.030449,0.199982,-0.006808,-0.025538,0.199982,0.811797,0.946589,0.762662,-0.044320,0.419191,-14.528091
1790538284.8283,-0.023787,-0.044048,0.216926,-0.018693,-0.038495,0.216926,1.010916,0.772967,0.970280,0.798895,1.869211,-8.357112
1790538284.8421,-0.034110,-0.047840,0.237356,-0.029485,-0.045037,0.237356,0.407487,0.695261,0.952068,0.530599,3.319231,-9.366203
1790538284.8562,-0.032566,-0.050686,0.256317,-0.031642,-0.048991,0.256317,0.284859,-0.097573,0.862221,-0.389272,2.575631,-9.831937
1790538284.8702,-0.029017,-0.054863,0.267313,-0.029804,-0.053102,0.267313,0.244792,-0.259054,0.801514,-0.044320,0.270471,-11.733686
1790538284.8841,-0.023084,-0.056706,0.274540,-0.025100,-0.055624,0.274540,0.078455,-0.507953,0.698312,1.603783,0.084571,-13.247322
1790538284.8979,-0.017218,-0.052685,0.274329,-0.019583,-0.053567,0.274329,-0.362279,-0.628153,0.708025,3.596838,-0.287229,-10.841028
1790538284.9119,-0.010572,-0.048860,0.268236,-0.013275,-0.050272,0.268236,-0.444840,-0.686432,0.636391,3.328542,-2.071868,-9.831937
1790538284.9264,-0.004407,-0.043639,0.263009,-0.007068,-0.045629,0.263009,-0.509190,-0.679147,0.485837,3.098574,-1.402628,-6.959909
1790538284.9404,-0.006744,-0.035564,0.260164,-0.006841,-0.038584,0.260164,-0.714380,-0.107286,0.340140,3.366870,-1.253909,-6.843476
1790538284.9545,-0.004824,-0.023783,0.260881,-0.005429,-0.028223,0.260881,-0.958423,-0.312476,0.277005,2.293686,-0.993649,-7.852567
1790538284.9684,0.002845,-0.008785,0.258896,0.000363,-0.014616,0.258896,-1.142972,-0.697360,0.134950,2.025391,-0.138509,-8.589979
1790538284.9824,0.013119,0.011447,0.255841,0.009292,0.003628,0.255841,-1.527855,-0.936545,0.014750,2.446998,-0.175689,-7.270399
1790538284.9964,0.015273,0.026675,0.250423,0.013479,0.019761,0.250423,-1.128402,-0.307620,-0.047171,2.293686,0.419191,-8.551168
1790538285.0105,0.003504,0.017068,0.252620,0.006496,0.017876,0.252620,0.655172,1.001225,-0.529186,-2.267343,1.125611,-17.089630
1790538285.0243,0.005657,-0.000801,0.265321,0.005909,0.004802,0.265321,1.262243,0.136756,-0.791440,-2.803935,0.382011,-8.745224
1790538285.0384,0.007187,-0.001987,0.256066,0.006804,0.000050,0.256066,0.354065,-0.034438,-0.245076,-0.695896,4.694891,-7.619700
1790538285.0525,0.006513,-0.015485,0.259167,0.006601,-0.010824,0.259167,1.014558,0.190178,-0.213509,-2.267343,2.017931,-11.772497
1790538285.0664,0.026619,-0.032684,0.265486,0.020613,-0.026126,0.265486,1.303524,-1.141736,-0.592321,-4.222071,1.757671,-8.900469
1790538285.0800,0.038686,-0.044120,0.256214,0.033264,-0.038722,0.256214,0.951423,-0.855198,-0.621460,-0.120976,2.055111,-8.201867
1790538285.0937,0.049264,-0.053204,0.241298,0.044464,-0.048859,0.241298,0.768088,-0.857626,-0.677311,1.067191,1.646131,-6.843476
1790538285.1076,0.060188,-0.062219,0.228386,0.055471,-0.058211,0.228386,0.731663,-0.840628,-0.646957,0.683911,1.534591,-7.076343
1790538285.1215,0.040546,-0.063441,0.217340,0.045023,-0.061872,0.217340,0.118522,1.420104,-0.636030,0.147319,2.575631,-21.281238
1790538285.1355,0.026987,-0.049224,0.210916,0.032398,-0.053019,0.210916,-0.992418,1.137209,-0.532828,-4.605350,1.794851,-17.788231
1790538285.1501,0.034497,-0.030878,0.208651,0.033867,-0.037520,0.208651,-1.390657,-0.210489,-0.541327,-6.138470,-2.109048,-11.035084
1790538285.1643,0.028532,-0.016633,0.195649,0.030133,-0.022899,0.195649,-1.221891,0.437863,-0.560753,0.223975,-1.811608,-6.416553
1790538285.1785,0.003540,0.007876,0.182994,0.011518,-0.001357,0.182994,-1.417368,1.597369,-0.371347,0.990535,1.683311,-2.069699
1790538285.1929,-0.006693,0.024832,0.181075,-0.001229,0.016976,0.181075,-1.270457,1.093500,-0.617818,-3.532167,-0.547489,-6.300119
1790538285.2071,0.002862,0.022992,0.176321,0.001635,0.021187,0.176321,0.076027,-0.544378,-0.438125,-2.305671,0.382011,-20.388581
1790538285.2212,0.003983,0.018735,0.173605,0.003279,0.019470,0.173605,0.371063,-0.266339,0.065744,4.593365,3.393591,-13.907112
1790538285.2351,-0.003169,0.020184,0.175588,-0.001235,0.019970,0.175588,-0.115808,0.258170,0.495550,3.098574,0.939711,-8.395923
1790538285.2492,0.007550,0.011301,0.186405,0.004915,0.013902,0.186405,0.541043,-0.904978,0.705597,1.297159,-0.250049,-12.587532
1790538285.2630,0.009601,0.002048,0.193811,0.008195,0.005604,0.193811,0.643031,-0.257840,0.587825,0.990535,0.790991,-11.772497
1790538285.2769,-0.002048,-0.006150,0.198861,0.001025,-0.002624,0.198861,0.667314,0.673407,0.708025,1.948735,2.464091,-10.220049
1790538285.2909,-0.014252,-0.017393,0.209233,-0.009669,-0.012962,0.209233,0.803298,0.819104,0.824583,0.147319,1.274331,-11.578441
1790538285.3045,-0.021292,-0.027743,0.218840,-0.017805,-0.023309,0.218840,0.828795,0.437863,0.886504,0.645583,2.315371,-9.987182
1790538285.3181,-0.031982,-0.030410,0.228066,-0.027729,-0.028280,0.228066,0.373491,0.641839,0.918072,1.412143,3.319231,-7.231588
1790538285.3323,-0.024078,-0.031372,0.240889,-0.025173,-0.030444,0.240889,0.082097,-0.484885,0.921714,-1.539112,1.385871,-8.124245
1790538285.3463,-0.022005,-0.031590,0.254194,-0.022956,-0.031246,0.254194,0.005606,-0.220202,0.971494,0.530599,1.237151,-10.452916
1790538285.3601,-0.015442,-0.031911,0.267880,-0.017696,-0.031712,0.267880,-0.058743,-0.543163,0.863435,0.760567,-0.175689,-14.489280
1790538285.3739,-0.010660,-0.028876,0.285513,-0.012771,-0.029726,0.285513,-0.359850,-0.541949,0.844009,2.638638,-1.216729,-10.181238
1790538285.3877,-0.006312,-0.022753,0.302148,-0.008250,-0.024845,0.302148,-0.580824,-0.549234,0.801514,2.983590,-1.105189,-9.210958
1790538285.4016,0.001355,-0.016608,0.321932,-0.001526,-0.019079,0.321932,-0.675527,-0.699788,0.677672,0.875551,-1.439808,-4.980539
1790538285.4154,0.005069,-0.010612,0.326409,0.003090,-0.013152,0.326409,-0.575968,-0.555305,0.505263,2.945262,-1.030829,-6.610609
1790538285.4293,0.013478,-0.002278,0.327602,0.010362,-0.005540,0.327602,-0.630604,-0.673077,0.059673,0.837223,0.382011,-8.124245
1790538285.4441,0.006815,-0.004666,0.323140,0.007879,-0.004929,0.323140,0.112451,0.446362,-0.398058,1.488799,0.047391,-16.235784
1790538285.4581,0.010199,-0.014851,0.307909,0.009503,-0.011874,0.307909,0.777801,-0.057507,-1.124115,-1.845736,2.166651,-13.907112
1790538285.4721,0.018066,-0.017489,0.269499,0.015497,-0.015804,0.269499,0.592037,-0.154638,-1.135043,-1.347472,1.757671,-1.293476
1790538285.4862,0.014589,-0.020631,0.263739,0.014861,-0.019183,0.263739,0.261790,0.063908,-0.530400,2.293686,0.828171,-5.562707
1790538285.5000,0.029664,-0.032060,0.259649,0.025223,-0.028197,0.259649,0.785086,-0.924404,-0.666384,-2.382327,0.047391,-11.462007
1790538285.5138,0.045133,-0.044276,0.241869,0.039160,-0.039452,0.241869,1.044912,-0.898907,-1.006343,-2.612295,3.021791,-8.085434
1790538285.5273,0.056816,-0.056645,0.223279,0.051519,-0.051487,0.223279,1.094692,-0.804204,-1.099832,-0.504256,3.393591,-8.473546
1790538285.5410,0.060200,-0.064352,0.219332,0.057595,-0.060493,0.219332,0.747447,-0.407180,-0.775656,1.603783,2.315371,-5.407462
1790538285.5546,0.062274,-0.074565,0.209111,0.060871,-0.070343,0.209111,0.758374,-0.115785,-0.576537,-0.964192,0.976891,-12.898021
1790538285.5684,0.048964,-0.077377,0.203482,0.052536,-0.075267,0.203482,0.159802,0.983013,-0.440553,-0.849208,-0.361589,-17.050819
1790538285.5824,0.044618,-0.070515,0.194314,0.046994,-0.071941,0.194314,-0.561398,0.520425,-0.459980,-5.410238,-1.105189,-14.372847
1790538285.5964,0.043924,-0.061508,0.191994,0.044845,-0.064638,0.191994,-0.789657,0.412366,-0.502475,-5.180270,-1.625708,-6.921098
1790538285.6105,0.032354,-0.047721,0.180261,0.036101,-0.052796,0.180261,-1.077408,0.975728,-0.651814,-1.040848,-0.473129,-4.398371
1790538285.6246,0.019160,-0.037434,0.197913,0.024242,-0.042043,0.197913,-1.175754,0.763253,-0.421127,0.645583,-1.328269,-1.215853
1790538285.6385,0.012749,-0.018377,0.194143,0.016197,-0.025477,0.194143,-1.353019,0.526496,-0.279072,-0.504256,0.790991,-7.425644
1790538285.6526,-0.004654,-0.005376,0.189785,0.001601,-0.011406,0.189785,-1.072552,1.290191,-0.184369,-0.427600,-2.443668,-15.032637
1790538285.6667,-0.008051,0.009217,0.189591,-0.005155,0.003030,0.189591,-1.078623,0.468217,-0.253575,-4.298727,0.158931,-13.324944
1790538285.6810,0.014555,0.006849,0.187736,0.008642,0.005703,0.187736,-0.004107,-1.714811,0.301288,1.488799,-1.588528,-8.978091
1790538285.6950,0.009275,0.000584,0.181804,0.009085,0.002120,0.181804,0.431770,0.022627,0.693455,5.168285,0.679451,-9.676693
1790538285.7090,0.013967,-0.006547,0.184674,0.012502,-0.003947,0.184674,0.641817,-0.552877,0.655817,2.370342,2.873071,-8.589979
1790538285.7229,0.005586,-0.021733,0.186786,0.007661,-0.016397,0.186786,1.178468,0.378370,0.559900,2.791950,2.055111,-8.551168
1790538285.7369,-0.007670,-0.034368,0.190175,-0.003071,-0.028977,0.190175,0.955065,0.817890,0.573255,1.795423,1.720491,-10.064805
1790538285.7509,-0.025616,-0.044587,0.193261,-0.018853,-0.039904,0.193261,0.928354,1.144494,0.632748,1.488799,2.798711,-6.183686
1790538285.7644,-0.036357,-0.051352,0.197357,-0.031106,-0.047917,0.197357,0.645459,0.804534,0.692241,-0.120976,2.761531,-8.046623
1790538285.7780,-0.043318,-0.060106,0.203696,-0.039654,-0.056450,0.203696,0.695239,0.560492,0.714096,-0.619240,1.794851,-9.599070
1790538285.7919,-0.039037,-0.067934,0.213091,-0.039222,-0.064488,0.213091,0.617534,-0.379254,0.772375,1.872079,2.798711,-13.868301
1790538285.8058,-0.032649,-0.067947,0.224618,-0.034621,-0.066910,0.224618,-0.040531,-0.509167,0.760233,1.220503,0.419191,-13.014455
1790538285.8197,-0.028380,-0.068425,0.252489,-0.030252,-0.067971,0.252489,-0.117022,-0.486099,0.799086,3.980118,-1.960328,-12.781588
1790538285.8336,-0.021724,-0.063554,0.275318,-0.024283,-0.064879,0.275318,-0.402345,-0.749568,0.722595,4.171758,0.047391,-8.357112
1790538285.8476,-0.016104,-0.052541,0.294914,-0.018558,-0.056242,0.294914,-0.900144,-0.605085,0.565971,3.520182,-0.993649,-10.142427
1790538285.8616,-0.014875,-0.036204,0.312085,-0.015980,-0.042216,0.312085,-1.297168,-0.368327,0.416631,3.826806,-0.993649,-7.425644
1790538285.8755,-0.010425,-0.020383,0.331140,-0.012091,-0.026933,0.331140,-1.303239,-0.471529,0.280647,2.140375,-1.476988,-8.240679
1790538285.8894,-0.001466,-0.004367,0.339844,-0.004654,-0.011137,0.339844,-1.259530,-0.777493,0.074243,2.025391,-0.659029,-8.667602
1790538285.9032,0.007670,0.016198,0.336421,0.003973,0.007998,0.336421,-1.549710,-0.830915,-0.105450,2.102047,0.121751,-6.921098
1790538285.9171,0.003887,0.026625,0.338465,0.003913,0.021037,0.338465,-0.873433,0.131900,-0.234149,5.053301,-1.365448,-16.274595
1790538285.9314,-0.008241,0.016298,0.331591,-0.004595,0.017720,0.331591,0.714665,1.091072,-0.809652,-3.033903,1.125611,-14.450469
1790538285.9454,-0.006205,-0.001322,0.315314,-0.005722,0.004390,0.315314,1.316880,0.005629,-0.956564,-0.772552,1.906391,-12.936833
1790538285.9595,-0.009829,-0.003131,0.302505,-0.008597,-0.000875,0.302505,0.131877,0.156182,-0.371347,2.332014,0.642271,-8.861658
1790538285.9733,-0.006255,-0.013972,0.291693,-0.006958,-0.010043,0.291693,0.851863,-0.085432,-0.361634,-2.382327,1.906391,-11.035084
1790538285.9872,0.011077,-0.026833,0.269866,0.005667,-0.021796,0.269866,1.025486,-0.923190,-0.697951,-3.877119,1.720491,-7.697322
1790538286.0008,0.022563,-0.034136,0.237763,0.017494,-0.030434,0.237763,0.728021,-0.883123,-0.638458,1.028863,2.798711,-7.736133
1790538286.0145,0.030620,-0.043235,0.221089,0.026682,-0.039394,0.221089,0.735306,-0.619654,-0.653028,0.760567,1.274331,-7.580888
1790538286.0284,0.039801,-0.052790,0.209806,0.035866,-0.048772,0.209806,0.692811,-0.645151,-0.687024,0.108991,0.567911,-7.580888
1790538286.0425,0.030480,-0.059294,0.204096,0.032096,-0.056137,0.204096,0.442697,0.543494,-0.694309,3.980118,0.493551,-16.080539
1790538286.0563,0.013288,-0.051192,0.186367,0.018930,-0.052676,0.186367,-0.517689,1.333900,-0.602034,-2.075704,3.244871,-21.281238
1790538286.0702,0.010712,-0.030012,0.188551,0.013178,-0.036811,0.188551,-1.485360,0.575061,-0.524329,-6.100142,1.199971,-8.357112
1790538286.0841,0.005490,-0.008081,0.202866,0.007796,-0.016700,0.202866,-1.726974,0.762039,-0.597178,-2.190688,-0.696209,-3.311658
1790538286.0981,-0.009630,0.011809,0.201548,-0.004402,0.003257,0.201548,-1.498716,1.072860,-0.411414,0.607255,-0.101329,-4.786483
1790538286.1119,-0.015511,0.022288,0.197038,-0.012179,0.016578,0.197038,-0.769016,0.547136,-0.430840,-1.079176,0.976891,-13.286133
1790538286.1259,0.000284,0.015440,0.196157,-0.003455,0.015781,0.196157,0.476693,-1.104097,-0.276644,0.262303,1.162791,-13.169700
1790538286.1397,-0.003779,0.017637,0.184371,-0.003682,0.017080,0.184371,0.050530,0.144041,0.630320,1.450471,4.248731,-8.279490
1790538286.1538,0.001255,0.015253,0.196342,-0.000226,0.015801,0.196342,0.167087,-0.408394,0.938712,-0.887536,1.497411,-10.530539
1790538286.1680,0.008741,0.001683,0.215978,0.006051,0.005918,0.215978,0.887073,-0.597800,1.096551,-0.695896,0.233291,-9.909560
1790538286.1825,0.005812,-0.005620,0.218690,0.005884,-0.002159,0.218690,0.609035,0.150112,0.732308,-0.120976,2.389731,-8.395923
1790538286.1965,-0.009115,-0.012184,0.229372,-0.004616,-0.009176,0.229372,0.443912,0.987870,0.806371,0.492271,0.976891,-13.363756
1790538286.2106,-0.018159,-0.022161,0.237927,-0.014096,-0.018266,0.237927,0.743805,0.571419,0.960567,0.262303,1.832031,-9.793126
1790538286.2242,-0.030574,-0.025884,0.242431,-0.025631,-0.023598,0.242431,0.406273,0.821532,1.039486,0.607255,2.649991,-7.231588
1790538286.2379,-0.036702,-0.030519,0.252333,-0.033380,-0.028443,0.252333,0.309142,0.470645,0.970280,-0.849208,0.939711,-9.599070
1790538286.2519,-0.038744,-0.035717,0.262243,-0.037135,-0.033535,0.262243,0.334639,0.169538,0.885290,-0.695896,0.753811,-9.094525
1790538286.2658,-0.037717,-0.040586,0.270131,-0.037543,-0.038471,0.270131,0.334639,-0.063577,0.751734,-0.465928,1.423051,-13.519000
1790538286.2798,-0.028769,-0.040154,0.285583,-0.031401,-0.039649,0.285583,-0.061172,-0.770208,0.870720,2.370342,1.162791,-13.169700
1790538286.2936,-0.020556,-0.033969,0.306112,-0.023810,-0.035673,0.306112,-0.533473,-0.768994,0.811227,2.830278,-0.138509,-11.656063
1790538286.3076,-0.014050,-0.027628,0.338878,-0.016978,-0.030041,0.338878,-0.619677,-0.758067,0.705597,3.405198,-1.179549,-7.192776
1790538286.3215,-0.002623,-0.015872,0.349068,-0.006929,-0.020123,0.349068,-0.862505,-0.991182,0.533189,1.565455,0.530731,-6.610609
1790538286.3354,0.003301,-0.001906,0.359216,0.000232,-0.007371,0.359216,-1.048269,-0.682790,0.302502,3.290214,0.270471,-7.813756
1790538286.3493,0.010706,0.010695,0.365021,0.007564,0.005275,0.365021,-0.946281,-0.669434,0.040247,2.868606,0.642271,-12.742777
1790538286.3632,0.003204,0.009676,0.363401,0.004512,0.008356,0.363401,0.023818,0.553207,-0.504903,1.450471,0.382011,-16.119350
1790538286.3771,0.002263,0.003461,0.341781,0.002937,0.004930,0.341781,0.515546,0.225388,-1.099832,-0.734224,2.538451,-14.217602
1790538286.3910,0.012854,0.001202,0.222802,0.009879,0.002320,0.222802,0.686740,-0.216559,-1.212748,-2.229015,2.612811,-0.090329
1790538286.4052,0.012277,-0.006295,0.246475,0.011558,-0.003710,0.246475,0.632104,-0.131569,-0.642101,1.603783,1.237151,-3.738581
1790538286.4194,0.022488,-0.019294,0.232993,0.019209,-0.014619,0.232993,0.933211,-0.466673,-0.785370,-2.650623,0.753811,-7.813756
1790538286.4338,0.036565,-0.035503,0.206414,0.031358,-0.029238,0.206414,1.227033,-0.767780,-1.290453,-2.573967,2.910251,-11.190329
1790538286.4475,0.047165,-0.047118,0.187336,0.042423,-0.041754,0.187336,0.950209,-0.718000,-1.343875,0.070663,2.501271,-8.978091
1790538286.4612,0.053538,-0.052023,0.209509,0.050204,-0.048942,0.209509,0.587180,-0.626939,-1.031840,1.450471,2.649991,-4.437182
1790538286.4748,0.064526,-0.069951,0.210013,0.060229,-0.063648,0.210013,1.205179,-0.823630,-0.785370,0.185647,-0.919289,-10.064805
1790538286.4887,0.052035,-0.079849,0.212006,0.054493,-0.074989,0.212006,0.658815,0.800892,-0.748945,2.102047,-0.064149,-14.489280
1790538286.5039,0.040538,-0.072523,0.188477,0.044724,-0.073263,0.188477,-0.477622,0.866456,-0.840006,-2.382327,0.939711,-13.674245
1790538286.5187,0.038571,-0.061191,0.168766,0.040417,-0.064813,0.168766,-0.906214,0.395368,-0.928638,-4.643678,-2.071868,-9.870749
1790538286.5332,0.032813,-0.046869,0.153156,0.035094,-0.052252,0.153156,-1.166041,0.753540,-0.974776,-3.877119,-1.700068,-5.756762
1790538286.5479,0.016893,-0.031170,0.150564,0.022354,-0.037495,0.150564,-1.265600,1.159064,-0.716164,-0.312616,-1.625708,-6.028441
1790538286.5635,0.012433,-0.010421,0.137421,0.015409,-0.018543,0.137421,-1.457435,0.587203,-0.617818,-3.148887,-1.216729,-5.989630
1790538286.5775,0.005762,0.008409,0.127177,0.008656,0.000324,0.127177,-1.487788,0.652766,-0.622675,-2.152360,-1.811608,-12.199420
1790538286.5914,-0.008025,0.026445,0.116379,-0.003021,0.018608,0.116379,-1.401584,1.165134,-0.558325,-1.577440,-0.770569,-11.656063
1790538286.6057,0.011188,0.022387,0.110235,0.006925,0.021254,0.110235,0.192584,-1.074958,-0.566824,-5.563550,-0.882109,-14.916203
1790538286.6196,0.008623,0.017179,0.126029,0.008114,0.018402,0.126029,0.411130,-0.083004,0.484623,3.290214,1.646131,-8.628791
1790538286.6336,0.009961,0.012725,0.136833,0.009407,0.014428,0.136833,0.391703,-0.218988,0.584183,1.067191,2.538451,-10.336483
1790538286.6476,0.009279,-0.000487,0.143644,0.009318,0.003987,0.143644,1.035199,0.000772,0.409346,0.147319,2.129471,-8.046623
1790538286.6615,-0.002670,-0.012938,0.159480,0.000926,-0.007860,0.159480,0.922284,0.584775,0.480981,3.711822,1.237151,-8.473546
1790538286.6757,-0.019104,-0.023419,0.166606,-0.013095,-0.018752,0.166606,0.802084,1.077716,0.567185,1.297159,2.426911,-11.850119
1790538286.6899,-0.030804,-0.032061,0.172987,-0.025491,-0.028068,0.172987,0.714665,0.787536,0.712882,0.262303,2.538451,-8.395923
1790538286.7035,-0.040792,-0.036852,0.185757,-0.036202,-0.034217,0.185757,0.441483,0.588417,0.785730,2.102047,2.724351,-9.521448
1790538286.7175,-0.047959,-0.048326,0.191634,-0.044432,-0.044093,0.191634,0.899215,0.493714,0.751734,0.300631,2.241011,-8.667602
1790538286.7314,-0.039196,-0.055588,0.197205,-0.040767,-0.052139,0.197205,0.507047,-0.572303,0.907144,-1.462456,1.571771,-13.984735
1790538286.7454,-0.033519,-0.052180,0.219360,-0.035693,-0.052168,0.219360,-0.317355,-0.573517,0.844009,3.175230,0.047391,-11.966553
1790538286.7593,-0.028469,-0.049161,0.251870,-0.030636,-0.050063,0.251870,-0.420558,-0.624511,1.022488,4.325070,-2.257768,-10.375294
1790538286.7731,-0.020010,-0.040684,0.275184,-0.023198,-0.043498,0.275184,-0.741091,-0.830915,0.949639,2.408670,-0.621849,-7.619700
1790538286.7870,-0.014721,-0.025967,0.293738,-0.017264,-0.031226,0.293738,-1.185467,-0.688861,0.746878,4.938317,-1.030829,-9.754315
1790538286.8010,-0.007067,-0.006864,0.304729,-0.010126,-0.014173,0.304729,-1.444079,-0.811489,0.433629,4.555037,-0.175689,-10.646972
1790538286.8148,0.000671,0.016568,0.304584,-0.002568,0.007346,0.304584,-1.695407,-0.819988,0.143449,2.715294,0.716631,-5.989630
1790538286.8286,0.009960,0.035007,0.300675,0.006201,0.026708,0.300675,-1.287455,-0.734998,-0.073882,0.913879,1.646131,-7.697322
1790538286.8424,-0.005114,0.021349,0.304011,-0.001720,0.022957,0.304011,0.881003,1.125068,-0.444196,1.297159,-1.030829,-18.098721
1790538286.8566,0.001108,0.009492,0.260130,0.000260,0.013531,0.260130,0.962350,-0.073290,-1.175109,-4.145415,2.687171,-10.297672
1790538286.8704,-0.001700,0.009888,0.224299,-0.001112,0.010981,0.224299,0.246006,0.003200,-0.983275,3.903462,3.505131,-5.213406
1790538286.8842,-0.007106,0.008311,0.224410,-0.005308,0.009112,0.224410,0.184085,0.219318,-0.536471,3.136902,1.608951,-7.115154
1790538286.8980,0.004770,-0.004285,0.206573,0.001746,-0.000266,0.206573,0.910142,-0.609941,-0.850933,-3.263871,0.642271,-12.315854
1790538286.9115,0.015772,-0.017000,0.181167,0.011564,-0.011980,0.181167,1.057053,-0.669434,-0.904356,-0.925864,2.129471,-8.978091
1790538286.9251,0.028769,-0.020107,0.141312,0.023608,-0.017669,0.141312,0.517974,-0.758067,-0.939566,-1.117504,3.207691,-5.291028
1790538286.9397,0.036039,-0.025938,0.128389,0.032310,-0.023457,0.128389,0.431770,-0.475172,-1.039125,0.415615,0.902531,-5.950818
1790538286.9538,0.047237,-0.033947,0.112276,0.042759,-0.030800,0.112276,0.555613,-0.718000,-1.118045,-0.197632,0.753811,-8.512357
1790538286.9680,0.033075,-0.036594,0.102664,0.035980,-0.034856,0.102664,0.142804,1.015795,-1.153255,1.680439,0.865351,-21.281238
1790538286.9819,0.024889,-0.019987,0.077902,0.028216,-0.024447,0.077902,-1.207322,0.833674,-0.971133,-4.720334,1.051251,-16.196973
1790538286.9959,0.022015,-0.002195,0.077931,0.023875,-0.008871,0.077931,-1.459863,0.467003,-0.836364,-3.148887,-2.071868,-9.055714
1790538287.0098,0.017538,0.013740,0.065767,0.019439,0.006957,0.065767,-1.252245,0.689191,-0.808438,-2.343999,-0.398769,-4.553616
1790538287.0237,0.000521,0.024043,0.075002,0.006196,0.018917,0.075002,-0.596608,1.093500,-0.575323,2.408670,2.501271,-6.183686
1790538287.0375,0.012059,0.018766,0.061854,0.010300,0.018811,0.061854,0.337067,-0.608727,-0.381060,-4.298727,0.456371,-14.528091
1790538287.0514,0.015248,0.017920,0.060928,0.013764,0.018188,0.060928,0.085740,-0.186206,0.443342,-1.884064,1.980751,-12.393476
1790538287.0653,0.002088,0.013621,0.087531,0.005591,0.014991,0.087531,0.267861,0.702546,1.055270,2.791950,0.828171,-12.703965
1790538287.0792,0.009244,0.002736,0.104122,0.008148,0.006413,0.104122,0.738948,-0.613584,1.200967,-0.389272,0.530731,-9.133336
1790538287.0931,0.017094,-0.005215,0.104079,0.014410,-0.001727,0.104079,0.571397,-0.415679,0.748092,-3.455511,0.865351,-8.978091
1790538287.1070,0.000041,-0.010628,0.130267,0.004352,-0.007958,0.130267,0.369849,0.979371,0.853722,2.945262,0.790991,-10.064805
1790538287.1211,-0.009586,-0.023406,0.144988,-0.005405,-0.018771,0.144988,0.868861,0.598130,0.993349,0.568927,0.567911,-13.402567
1790538287.1350,-0.018850,-0.039444,0.161982,-0.014817,-0.033242,0.161982,1.182110,0.541065,1.282314,0.952207,1.757671,-9.405014
1790538287.1486,-0.034645,-0.047059,0.171303,-0.028696,-0.042914,0.171303,0.656386,1.108070,1.171827,0.377287,2.464091,-8.357112
1790538287.1623,-0.035402,-0.051721,0.169066,-0.033390,-0.049079,0.169066,0.454839,0.208390,1.062555,-2.152360,2.575631,-7.542077
1790538287.1764,-0.031691,-0.056172,0.185869,-0.032201,-0.054044,0.185869,0.266647,-0.337973,0.982421,1.373815,0.679451,-13.790679
1790538287.1910,-0.027839,-0.053209,0.202878,-0.029148,-0.053459,0.202878,-0.266362,-0.354971,0.659459,2.255358,-0.064149,-15.498371
1790538287.2051,-0.024518,-0.049776,0.237168,-0.025907,-0.050881,0.237168,-0.399917,-0.444818,0.632748,4.248414,-2.034688,-12.626343
1790538287.2190,-0.020883,-0.042722,0.267727,-0.022390,-0.045169,0.267727,-0.628176,-0.521309,0.547758,4.018446,-0.919289,-9.249770
1790538287.2331,-0.013127,-0.025522,0.286850,-0.015906,-0.031417,0.286850,-1.249817,-0.785992,0.612108,2.485326,0.493551,-6.727042
1790538287.2473,-0.010249,-0.005580,0.307005,-0.011946,-0.013331,0.307005,-1.478075,-0.555305,0.551401,3.520182,-0.026969,-5.640329
1790538287.2613,-0.001543,0.011084,0.329608,-0.004664,0.003759,0.329608,-1.334807,-0.793277,0.437271,1.872079,-0.844929,-8.357112
1790538287.2753,0.006527,0.025431,0.348259,0.003170,0.018929,0.348259,-1.179396,-0.788420,0.353496,2.561982,-0.956469,-8.861658
1790538287.2893,0.012698,0.042393,0.359498,0.009839,0.035354,0.359498,-1.286241,-0.614798,0.264863,2.600310,0.307651,-11.229140
1790538287.3032,-0.003860,0.037925,0.366219,0.000250,0.037154,0.366219,0.208368,1.190631,-0.168585,1.642111,-0.807749,-20.116903
1790538287.3171,-0.008791,0.027187,0.353925,-0.006079,0.030177,0.353925,0.783871,0.503427,-0.895857,-0.235960,1.534591,-14.644525
1790538287.3312,-0.002366,0.026844,0.245038,-0.003480,0.027844,0.245038,0.497334,-0.424178,-0.514616,0.837223,4.471811,-4.437182
1790538287.3451,-0.003101,0.014433,0.249643,-0.003215,0.018456,0.249643,0.831223,0.082120,-0.196511,0.070663,0.121751,-8.085434
1790538287.3589,0.015511,-0.006912,0.239383,0.009893,0.000698,0.239383,1.536639,-1.145378,-0.520687,-3.493839,0.865351,-13.790679
1790538287.3725,0.028820,-0.018319,0.213413,0.023142,-0.012614,0.213413,1.067981,-0.963257,-0.592321,0.453943,3.430771,-7.464455
1790538287.3861,0.032899,-0.027680,0.204864,0.029972,-0.023160,0.204864,0.770516,-0.369541,-0.753802,1.642111,1.906391,-8.551168
1790538287.4003,0.045942,-0.038079,0.195839,0.041151,-0.033603,0.195839,0.701310,-0.862483,-0.776871,-0.197632,0.233291,-5.834385
1790538287.4143,0.055187,-0.049429,0.170789,0.050976,-0.044681,0.170789,0.982991,-0.612370,-0.605677,-0.504256,3.728211,-10.491728
1790538287.4283,0.028630,-0.052923,0.169159,0.035334,-0.050451,0.169159,0.158588,1.902119,-0.780513,0.722239,-1.030829,-18.253966
1790538287.4427,0.016755,-0.035107,0.137962,0.022329,-0.039710,0.137962,-1.124760,1.047363,-0.734376,-3.608823,2.873071,-11.733686
1790538287.4568,0.015468,-0.016639,0.128499,0.017527,-0.023561,0.128499,-1.393085,0.304308,-0.772014,-2.152360,-0.547489,-8.046623
1790538287.4708,0.001097,0.003587,0.121288,0.006026,-0.004557,0.121288,-1.555780,1.271979,-0.755016,-1.884064,-0.659029,-6.843476
1790538287.4848,-0.015301,0.020116,0.117929,-0.008903,0.012714,0.117929,-1.286241,1.318116,-0.617818,-0.695896,-0.659029,-8.007811
1790538287.4986,-0.012577,0.026864,0.108445,-0.011475,0.022619,0.108445,-0.524974,0.102760,-0.538899,-5.103614,0.382011,-13.674245
1790538287.5125,-0.006378,0.016493,0.121920,-0.007907,0.018331,0.121920,0.562898,-0.403537,0.107025,-1.347472,-2.964188,-16.507462
1790538287.5264,-0.004326,0.020704,0.126878,-0.005400,0.019992,0.126878,-0.265147,-0.180135,0.623035,-0.350944,1.683311,-8.085434
1790538287.5402,0.003225,0.012994,0.146956,0.000638,0.015093,0.146956,0.458481,-0.686432,1.000633,0.338959,-0.138509,-8.240679
1790538287.5541,0.000978,0.000940,0.166012,0.000876,0.005186,0.166012,0.811797,-0.018654,0.898645,1.143847,0.270471,-7.348021
1790538287.5680,-0.004579,-0.010935,0.177539,-0.002942,-0.006099,0.177539,0.890716,0.277597,0.931427,0.875551,1.906391,-10.414105
1790538287.5818,-0.016456,-0.021776,0.189950,-0.012402,-0.017073,0.189950,0.839722,0.725615,1.058912,1.297159,2.315371,-10.685784
1790538287.5956,-0.031581,-0.030497,0.204155,-0.025827,-0.026470,0.204155,0.655172,0.966015,1.186397,1.143847,1.683311,-8.978091
1790538287.6093,-0.044909,-0.036014,0.218025,-0.039185,-0.033151,0.218025,0.425699,0.849458,1.163328,1.412143,1.832031,-9.094525
1790538287.6229,-0.050446,-0.043146,0.226798,-0.047067,-0.040147,0.226798,0.517974,0.386869,1.077124,0.032335,1.423051,-9.055714
1790538287.6369,-0.052164,-0.050669,0.235135,-0.050635,-0.047513,0.235135,0.547114,0.093047,0.939926,0.453943,1.720491,-10.142427
1790538287.6509,-0.045685,-0.053821,0.251232,-0.047170,-0.051928,0.251232,0.161016,-0.546806,0.955710,1.642111,0.642271,-12.936833
1790538287.6647,-0.041944,-0.053936,0.280907,-0.043512,-0.053334,0.280907,-0.147376,-0.447246,0.887718,3.328542,-1.291089,-11.850119
1790538287.6788,-0.032933,-0.051996,0.316583,-0.036107,-0.052398,0.316583,-0.324640,-0.857626,1.100193,3.098574,-1.402628,-9.366203
1790538287.6935,-0.026874,-0.045464,0.345375,-0.029644,-0.047544,0.345375,-0.565040,-0.620869,1.097765,2.255358,-0.398769,-6.998721
1790538287.7076,-0.023608,-0.032716,0.368698,-0.025419,-0.037164,0.368698,-1.022772,-0.477600,0.803942,3.328542,-0.510309,-8.589979
1790538287.7215,-0.010658,-0.017588,0.392870,-0.015087,-0.023461,0.392870,-1.252245,-1.118667,0.598752,3.443526,-1.848788,-12.587532
1790538287.7357,-0.001104,0.003088,0.398909,-0.005299,-0.004877,0.398909,-1.529069,-0.934117,0.211441,3.750150,-0.064149,-8.279490
1790538287.7495,0.000229,0.024465,0.392557,-0.001429,0.015662,0.392557,-1.533926,-0.344044,-0.010747,3.328542,0.902531,-7.076343
1790538287.7634,-0.013727,0.020511,0.393997,-0.010038,0.019057,0.393997,0.229008,0.845815,-0.198939,5.436581,0.307651,-14.877392
1790538287.7774,-0.005596,0.014903,0.358639,-0.006928,0.016149,0.358639,0.458481,-0.132783,-0.950493,-5.678534,1.125611,-8.900469
1790538287.7912,-0.007554,0.017818,0.296584,-0.007366,0.017317,0.296584,0.227794,0.116116,-0.502475,1.143847,4.174371,-4.281937
1790538287.8050,-0.012418,0.008170,0.305075,-0.010902,0.010914,0.305075,0.650316,0.275168,-0.175870,2.485326,0.493551,-13.169700
1790538287.8190,0.005846,-0.005614,0.287993,0.000821,-0.000655,0.287993,1.048554,-1.064030,-0.634816,-3.915447,2.203831,-13.092077
1790538287.8325,0.014742,-0.018326,0.270262,0.010566,-0.013025,0.270262,1.066766,-0.642723,-0.702808,0.760567,2.575631,-9.948371
1790538287.8461,0.021303,-0.022790,0.241240,0.018082,-0.019860,0.241240,0.610249,-0.419321,-0.763515,0.070663,3.021791,-5.291028
1790538287.8601,0.028560,-0.028426,0.224383,0.025416,-0.025857,0.224383,0.473051,-0.459388,-0.731947,-0.159304,1.608951,-8.861658
1790538287.8739,0.041665,-0.037524,0.209989,0.036790,-0.034024,0.209989,0.686740,-0.866125,-0.671240,-0.695896,0.976891,-8.434735
1790538287.8879,0.025832,-0.043941,0.199162,0.029119,-0.040965,0.199162,0.468194,1.165134,-0.619032,0.108991,1.794851,-21.281238
1790538287.9017,0.010040,-0.029389,0.183847,0.015764,-0.032862,0.183847,-1.033699,1.378823,-0.591107,-5.180270,1.460231,-15.964105
1790538287.9155,0.010525,-0.013631,0.194893,0.012097,-0.019400,0.194893,-1.276528,0.281239,-0.580180,-5.831846,-1.662888,-11.384385
1790538287.9295,-0.003320,0.002738,0.200788,0.001305,-0.003904,0.200788,-1.334807,1.199130,-0.510974,-1.117504,-0.807749,-4.243126
1790538287.9439,-0.012700,0.016204,0.196991,-0.008498,0.010171,0.196991,-0.996061,0.772967,-0.350707,-0.580912,-0.064149,-5.329839
1790538287.9580,-0.015025,0.026571,0.182138,-0.013067,0.021651,0.182138,-0.540758,0.426936,-0.405343,-1.615768,2.092291,-4.437182
1790538287.9721,0.002316,0.014986,0.188594,-0.002299,0.016986,0.188594,0.782657,-1.265578,0.149520,0.530599,1.051251,-16.158161
1790538287.9860,-0.003655,0.011873,0.198229,-0.003248,0.013407,0.198229,0.265433,0.346803,0.984850,-0.197632,2.724351,-13.014455
1790538288.0000,-0.003336,0.004467,0.220051,-0.003310,0.007149,0.220051,0.449982,-0.177707,1.265316,0.568927,0.233291,-11.539630
1790538288.0140,-0.002708,-0.010685,0.237777,-0.002889,-0.005335,0.237777,0.956280,-0.084218,0.950854,-0.619240,-0.733389,-8.939280
1790538288.0279,-0.021615,-0.022939,0.262591,-0.015997,-0.017658,0.262591,0.935639,1.088644,0.803942,2.945262,1.646131,-7.231588
1790538288.0418,-0.039200,-0.036441,0.275221,-0.032239,-0.030806,0.275221,1.003631,1.122639,0.876791,2.063719,1.980751,-10.452916
1790538288.0558,-0.049318,-0.045111,0.275934,-0.044194,-0.040820,0.275934,0.788728,0.729257,0.833082,-0.044320,3.058971,-7.076343
1790538288.0693,-0.058587,-0.050276,0.280631,-0.054269,-0.047439,0.280631,0.415986,0.680692,0.853722,0.185647,2.017931,-10.103616
1790538288.0829,-0.053619,-0.056518,0.287751,-0.053814,-0.053795,0.287751,0.420843,-0.335545,0.914429,-0.504256,1.199971,-13.519000
1790538288.0968,-0.049249,-0.057773,0.303593,-0.050619,-0.056579,0.303593,0.011677,-0.387753,0.858579,1.642111,0.196111,-12.975644
1790538288.1108,-0.044552,-0.057228,0.333134,-0.046372,-0.057033,0.333134,-0.204440,-0.493384,0.878005,3.175230,-1.588528,-12.626343
1790538288.1246,-0.036474,-0.057054,0.368582,-0.039443,-0.057048,0.368582,-0.193513,-0.807846,0.833082,3.865134,-1.700068,-10.530539
1790538288.1386,-0.031442,-0.051866,0.396014,-0.033843,-0.053421,0.396014,-0.523760,-0.565018,0.637605,3.175230,-1.253909,-9.172147
1790538288.1524,-0.029881,-0.042378,0.423093,-0.031069,-0.045691,0.423093,-0.861291,-0.370755,0.551401,3.750150,-1.514168,-8.240679
1790538288.1663,-0.029751,-0.030402,0.441657,-0.030147,-0.034989,0.441657,-1.011845,-0.249341,0.381421,3.711822,-1.216729,-8.589979
1790538288.1803,-0.023217,-0.015140,0.455459,-0.025296,-0.021095,0.455459,-1.196394,-0.582016,0.245437,1.795423,-0.584669,-8.822846
1790538288.1948,-0.015626,0.004851,0.466550,-0.018527,-0.002933,0.466550,-1.493859,-0.702216,0.131308,2.523654,-0.621849,-7.619700
1790538288.2089,-0.001940,0.023726,0.481181,-0.006916,0.015729,0.481181,-1.481718,-1.130808,0.216298,2.102047,-0.733389,-8.939280
1790538288.2231,-0.013293,0.028226,0.491978,-0.011380,0.024477,0.491978,-0.475194,0.729257,-0.014389,2.255358,-1.662888,-13.324944
1790538288.2371,-0.030516,0.017815,0.486220,-0.024775,0.019813,0.486220,0.683098,1.440745,-0.640887,-2.037376,-0.361589,-12.665154
1790538288.2510,-0.025075,0.004882,0.452813,-0.024985,0.009362,0.452813,1.111690,-0.166779,-0.495190,-3.187215,4.100011,-12.121798
1790538288.2650,-0.027450,-0.002663,0.442683,-0.026711,0.000945,0.442683,0.593251,0.069978,-0.218365,1.757095,1.088431,-6.804665
1790538288.2789,-0.011350,-0.021401,0.437666,-0.015958,-0.014697,0.437666,1.329021,-0.977826,-0.333709,-1.769080,0.270471,-7.852567
1790538288.2925,0.005543,-0.036503,0.410899,-0.000907,-0.029961,0.410899,1.292597,-1.118667,-0.577751,-0.964192,2.315371,-7.270399
1790538288.3061,0.017342,-0.045716,0.383877,0.011867,-0.040989,0.383877,0.881003,-0.915905,-0.591107,1.105519,2.724351,-7.425644
1790538288.3201,0.031054,-0.055987,0.362994,0.025298,-0.051488,0.362994,0.873718,-1.017893,-0.697951,0.837223,2.055111,-7.736133
1790538288.3339,0.019918,-0.070318,0.373246,0.021532,-0.064669,0.373246,0.815439,0.779037,-0.826650,1.412143,-4.674468,-15.265504
1790538288.3478,0.007291,-0.062408,0.354426,0.011563,-0.063087,0.354426,-0.503119,1.007296,-0.761087,-2.305671,2.538451,-20.388581
1790538288.3617,0.003834,-0.047965,0.342324,0.006153,-0.052501,0.342324,-1.110190,0.567777,-0.604462,-5.103614,-0.993649,-9.676693
1790538288.3756,0.004181,-0.030525,0.332061,0.004773,-0.037118,0.332061,-1.385801,0.349231,-0.739232,-3.915447,-1.328269,-6.144874
1790538288.3893,-0.006730,-0.010705,0.338543,-0.003279,-0.018629,0.338543,-1.665053,0.804534,-0.440553,0.338959,-1.439808,-4.864105
1790538288.4032,-0.020895,0.010896,0.327937,-0.015610,0.002039,0.327937,-1.503572,1.024294,-0.498832,0.683911,0.902531,-5.329839
1790538288.4171,-0.033703,0.024235,0.313517,-0.028275,0.017576,0.313517,-0.877075,1.117783,-0.521901,-1.730752,2.203831,-10.569350
1790538288.4309,-0.019012,0.015851,0.315000,-0.021791,0.016369,0.315000,0.493691,-0.861269,-0.218365,-5.870174,-1.848788,-21.281238
1790538288.4453,-0.015306,0.026844,0.298381,-0.017251,0.023701,0.298381,-0.498263,-0.118214,0.275791,-1.807408,3.914111,-5.485084
1790538288.4594,-0.013723,0.026480,0.310897,-0.014781,0.025646,0.310897,-0.050244,-0.233557,0.657031,1.067191,0.419191,-11.306763
1790538288.4733,-0.004023,0.016131,0.320036,-0.007250,0.018986,0.320036,0.618748,-0.565018,0.463983,-2.267343,-0.547489,-7.309210
1790538288.4872,-0.011754,0.008320,0.322779,-0.010403,0.011519,0.322779,0.674599,0.396583,0.449413,1.757095,2.464091,-7.580888
1790538288.5011,-0.019160,-0.000496,0.324107,-0.016533,0.003109,0.324107,0.708595,0.493714,0.360781,0.530599,2.612811,-10.879840
1790538288.5149,-0.028913,-0.008636,0.329089,-0.025199,-0.005112,0.329089,0.632104,0.618771,0.519833,1.450471,2.352551,-12.160609
1790538288.5285,-0.039799,-0.011187,0.331653,-0.035419,-0.009364,0.331653,0.289716,0.781466,0.661888,0.032335,3.021791,-9.754315
1790538288.5420,-0.039914,-0.014046,0.336167,-0.038565,-0.012642,0.336167,0.199869,0.068764,0.598752,-1.040848,1.051251,-8.589979
1790538288.5559,-0.039997,-0.017379,0.342121,-0.039568,-0.015958,0.342121,0.248435,0.004415,0.620607,-0.197632,1.385871,-8.900469
1790538288.5698,-0.042583,-0.020856,0.348388,-0.041679,-0.019386,0.348388,0.252077,0.161039,0.575684,0.262303,1.199971,-8.822846
1790538288.5845,-0.034592,-0.019533,0.353429,-0.036718,-0.019489,0.353429,0.084526,-0.537093,0.625463,-0.504256,4.992331,-10.142427
1790538288.5995,-0.023571,-0.015948,0.366983,-0.027515,-0.017010,0.366983,-0.317355,-0.812703,0.681314,1.067191,0.084571,-13.441378
1790538288.6142,-0.013232,-0.005185,0.386913,-0.017517,-0.008732,0.386913,-0.820010,-0.912263,0.584183,3.251886,-0.175689,-10.685784
1790538288.6284,-0.005832,0.006377,0.406547,-0.009337,0.001844,0.406547,-0.932926,-0.772636,0.393562,2.983590,-0.547489,-7.658511
1790538288.6434,0.003002,0.017968,0.417262,-0.000700,0.013131,0.417262,-0.807869,-0.777493,0.210227,2.370342,0.530731,-7.658511
1790538288.6577,-0.000964,0.014595,0.423457,-0.000885,0.014156,0.423457,0.107594,0.202320,-0.189226,2.906934,-1.662888,-15.653616
1790538288.6717,0.001651,0.012303,0.407760,0.000890,0.012859,0.407760,0.231437,-0.063577,-0.869145,-0.312616,2.352551,-12.005364
1790538288.6860,0.002907,0.006301,0.388819,0.002302,0.008268,0.388819,0.464552,0.059051,-1.189679,-0.159304,1.571771,-10.685784
1790538288.7005,0.001601,-0.000939,0.378365,0.001811,0.001823,0.378365,0.527687,0.060265,-0.836364,1.412143,0.828171,-6.455364
1790538288.7146,0.011129,-0.014426,0.369872,0.008334,-0.009551,0.369872,0.923498,-0.552877,-0.700380,-1.079176,0.121751,-10.996273
1790538288.7286,0.017224,-0.030939,0.350693,0.014557,-0.024523,0.350693,1.218534,-0.294264,-1.126544,-0.925864,1.348691,-10.414105
1790538288.7426,0.032731,-0.037999,0.315688,0.027279,-0.033956,0.315688,0.742591,-0.913477,-1.292881,-1.577440,3.579491,-7.076343
1790538288.7562,0.035587,-0.041123,0.307149,0.033094,-0.038973,0.307149,0.307928,-0.373184,-1.139899,2.600310,1.608951,-6.804665
1790538288.7697,0.043893,-0.054767,0.299793,0.040653,-0.050028,0.299793,0.930783,-0.613584,-0.955350,0.568927,-0.584669,-12.471098
1790538288.7837,0.042144,-0.068606,0.287326,0.041697,-0.063032,0.287326,1.006059,0.122186,-0.857004,0.492271,1.274331,-14.372847
1790538288.7975,0.024101,-0.062538,0.275987,0.029380,-0.062686,0.275987,-0.455768,1.356969,-0.712521,-0.772552,0.419191,-16.119350
1790538288.8114,0.020176,-0.053906,0.257846,0.022937,-0.056540,0.257846,-0.726521,0.559278,-0.846077,-5.065286,-1.700068,-11.772497
1790538288.8252,0.017381,-0.042462,0.243403,0.019048,-0.046686,0.243403,-1.013059,0.507069,-0.876430,-3.800463,-2.332128,-7.852567
1790538288.8392,0.004756,-0.027283,0.230694,0.009044,-0.033104,0.230694,-1.212178,1.074074,-0.881287,-1.079176,-0.956469,-6.222497
1790538288.8532,-0.005189,-0.011412,0.223032,-0.000919,-0.017919,0.223032,-1.269243,0.828817,-0.616604,-0.580912,-1.068009,-6.416553
1790538288.8671,-0.007148,0.009004,0.211690,-0.005279,0.000927,0.211690,-1.559423,0.423294,-0.685810,-2.382327,-0.547489,-6.921098
1790538288.8809,-0.015044,0.028483,0.202662,-0.012115,0.020216,0.202662,-1.435580,0.638197,-0.612961,0.568927,0.605091,-11.345574
1790538288.8947,-0.001562,0.019381,0.196157,-0.004728,0.019631,0.196157,0.524045,-0.802990,-0.600820,-3.302199,-2.778288,-21.281238
1790538288.9085,-0.008407,0.011732,0.202439,-0.007303,0.014102,0.202439,0.528902,0.107617,0.319500,3.635166,0.344831,-4.864105
1790538288.9223,-0.004648,0.008152,0.208590,-0.005444,0.009937,0.208590,0.317641,-0.182563,0.522261,-2.037376,2.092291,-8.939280
1790538288.9363,-0.001822,-0.003990,0.215381,-0.002908,0.000188,0.215381,0.777801,-0.311262,0.360781,0.722239,-0.212869,-5.174595
1790538288.9507,-0.012807,-0.017757,0.219219,-0.009837,-0.012373,0.219219,1.036413,0.647910,0.417845,1.488799,2.017931,-8.434735
1790538288.9647,-0.023363,-0.026526,0.222235,-0.019305,-0.022280,0.222235,0.719522,0.831245,0.446985,-1.347472,2.464091,-9.793126
1790538288.9783,-0.033100,-0.031694,0.226482,-0.028961,-0.028870,0.226482,0.497334,0.719544,0.507692,-0.159304,2.835891,-9.249770
1790538288.9918,-0.047882,-0.037043,0.233842,-0.042206,-0.034591,0.233842,0.425699,1.003654,0.582969,1.488799,1.497411,-9.366203
1790538289.0056,-0.053101,-0.043931,0.239579,-0.049832,-0.041129,0.239579,0.504619,0.426936,0.589039,-0.619240,1.311511,-10.646972
1790538289.0195,-0.053952,-0.049071,0.245150,-0.052716,-0.046689,0.245150,0.464552,0.060265,0.510120,0.300631,2.649991,-9.637881
1790538289.0326,-0.048864,-0.050193,0.251107,-0.050020,-0.049142,0.251107,0.069956,-0.341616,0.593896,-0.580912,1.088431,-11.888930
1790538289.0457,-0.038188,-0.044353,0.264309,-0.041738,-0.045790,0.264309,-0.565040,-0.959614,0.655817,2.715294,-0.770569,-11.927742
1790538289.0591,-0.028634,-0.039061,0.280641,-0.032565,-0.041080,0.280641,-0.574754,-0.898907,0.726237,2.906934,-1.774428,-10.297672
1790538289.0730,-0.022463,-0.031731,0.297659,-0.025493,-0.034536,0.297659,-0.722879,-0.721642,0.596324,2.906934,-1.476988,-5.912007
1790538289.0869,-0.014860,-0.018932,0.305954,-0.018050,-0.023613,0.305954,-0.988776,-0.725285,0.377778,2.025391,-0.026969,-7.115154
1790538289.1008,-0.006822,-0.006332,0.314154,-0.010190,-0.011517,0.314154,-1.014273,-0.792063,0.257578,3.213558,-0.733389,-8.939280
1790538289.1149,0.002136,0.010364,0.315108,-0.001562,0.003800,0.315108,-1.224320,-0.858840,0.001394,2.983590,0.382011,-7.386832
1790538289.1288,0.003949,0.022693,0.316952,0.002296,0.017025,0.316952,-0.974206,-0.218988,-0.201367,2.178703,-0.287229,-10.841028
1790538289.1427,-0.008892,0.013576,0.310893,-0.005536,0.014610,0.310893,0.588395,0.945375,-0.637244,2.025391,-0.324409,-16.196973
1790538289.1566,-0.006462,0.006682,0.288664,-0.006184,0.009061,0.288664,0.605392,0.117330,-1.186037,-3.072231,2.798711,-11.811308
1790538289.1704,-0.004659,0.006484,0.258953,-0.005116,0.007257,0.258953,0.312784,-0.205632,-0.682168,1.795423,3.653851,-5.562707
1790538289.1845,-0.004369,-0.007551,0.253085,-0.004593,-0.003108,0.253085,0.973278,0.103974,-0.521901,-0.734224,0.233291,-7.386832
1790538289.1992,0.017252,-0.027215,0.237233,0.010698,-0.019983,0.237233,1.394585,-1.208513,-0.878859,-3.723807,1.646131,-10.375294
1790538289.2131,0.031248,-0.039458,0.215474,0.025083,-0.033616,0.215474,1.084979,-0.908620,-0.965063,-0.580912,3.319231,-7.697322
1790538289.2270,0.035872,-0.046668,0.201652,0.032635,-0.042752,0.201652,0.683098,-0.426606,-0.929853,1.987063,3.058971,-8.357112
1790538289.2411,0.047321,-0.059650,0.183671,0.042915,-0.054581,0.183671,0.999989,-0.697360,-0.831507,-1.539112,1.980751,-9.754315
1790538289.2549,0.032414,-0.066647,0.177949,0.035564,-0.063027,0.177949,0.372277,1.065575,-0.943208,0.913879,-2.332128,-15.808861
1790538289.2689,0.020378,-0.052974,0.163613,0.024934,-0.055990,0.163613,-0.994847,0.962373,-0.882501,-2.152360,0.419191,-18.525644
1790538289.2830,0.024444,-0.036227,0.155191,0.024591,-0.042156,0.155191,-1.340877,0.103974,-0.931067,-6.636734,-2.332128,-9.133336
1790538289.2969,0.023243,-0.023131,0.146481,0.023648,-0.028838,0.146481,-1.164827,0.431793,-0.924996,-2.420655,-1.514168,-4.398371
1790538289.3107,0.005026,-0.007012,0.141234,0.010612,-0.013560,0.141234,-1.249817,1.201559,-0.615390,1.948735,-0.398769,-6.455364
1790538289.3247,0.003096,0.007925,0.130579,0.005351,0.001479,0.130579,-1.102905,0.480358,-0.690667,-4.107087,0.158931,-8.473546
1790538289.3385,-0.004187,0.022378,0.121052,-0.001326,0.016108,0.121052,-1.056768,0.729257,-0.571681,-2.190688,0.902531,-11.035084
1790538289.3523,0.004853,0.028931,0.120250,0.002999,0.025084,0.120250,-0.546828,-0.520095,-0.088452,-3.302199,0.121751,-16.468651
1790538289.3663,0.007532,0.030121,0.126050,0.006172,0.028610,0.126050,-0.126735,-0.348901,0.354710,2.178703,0.753811,-11.229140
1790538289.3801,0.006363,0.029454,0.134426,0.006306,0.029201,0.134426,0.091810,-0.121856,0.544116,2.102047,1.832031,-8.512357
1790538289.3940,0.015251,0.025591,0.137424,0.012567,0.026674,0.137424,0.266647,-0.370755,0.111881,-2.650623,0.530731,-4.980539
1790538289.4079,0.014560,0.022350,0.140324,0.013962,0.023648,0.140324,0.202297,-0.079361,0.188372,1.757095,0.679451,-9.715504
1790538289.4219,0.006435,0.020256,0.144761,0.008693,0.021274,0.144761,0.162231,0.453647,0.351067,1.987063,1.794851,-12.354665
1790538289.4359,0.000013,0.017228,0.150877,0.002617,0.018442,0.150877,0.253291,0.380799,0.478552,0.607255,1.832031,-9.676693
1790538289.4500,-0.004604,0.014420,0.157629,-0.002437,0.015626,0.157629,0.267861,0.233887,0.494336,0.952207,2.649991,-10.569350
1790538289.4637,-0.007621,0.012438,0.163790,-0.006066,0.013395,0.163790,0.195012,0.128257,0.450627,0.913879,1.980751,-9.288581
1790538289.4777,-0.007640,0.011045,0.169455,-0.007168,0.011750,0.169455,0.175586,-0.069648,0.404490,0.683911,2.464091,-9.482637
1790538289.4916,-0.004819,0.011748,0.175348,-0.005524,0.011748,0.175348,0.016534,-0.279695,0.387492,0.722239,2.166651,-8.900469
1790538289.5055,-0.001744,0.013394,0.183775,-0.002878,0.012901,0.183775,-0.036889,-0.367113,0.480981,1.603783,2.464091,-8.978091
1790538289.5194,-0.000401,0.015930,0.190322,-0.001144,0.015021,0.190322,-0.129163,-0.200775,0.406918,1.258831,2.389731,-10.841028
1790538289.5334,0.002592,0.016903,0.193643,0.001471,0.016338,0.193643,0.071170,-0.272410,0.335284,0.453943,3.467951,-9.172147
1790538289.5472,0.001362,0.015836,0.197740,0.001395,0.015986,0.197740,0.130663,-0.008941,0.162875,2.025391,2.835891,-13.441378
1790538289.5611,0.004580,0.016454,0.191583,0.003624,0.016314,0.191583,0.060243,-0.180135,-0.259646,-0.235960,3.058971,-10.569350
1790538289.5750,0.005577,0.018223,0.181954,0.004992,0.017650,0.181954,-0.007749,-0.029581,-0.667598,0.645583,2.724351,-8.784035
1790538289.5889,0.007131,0.011703,0.169344,0.006489,0.013487,0.169344,0.439055,-0.013798,-1.057337,0.415615,0.344831,-9.016902
1790538289.6027,0.006927,0.009455,0.154036,0.006795,0.010664,0.154036,0.195012,0.102760,-1.221247,0.760567,1.237151,-8.784035
1790538289.6168,0.010449,0.010134,0.143595,0.009353,0.010293,0.143595,0.016534,-0.229915,-0.954135,1.220503,1.757671,-8.473546
1790538289.6307,0.013257,0.004854,0.126623,0.012086,0.006486,0.126623,0.349209,-0.035652,-1.132614,-0.810880,0.493551,-11.772497
1790538289.6447,0.021642,-0.002195,0.107725,0.018775,0.000409,0.107725,0.486407,-0.439961,-1.337804,-0.580912,0.790991,-12.160609
1790538289.6586,0.023486,-0.010771,0.090828,0.022073,-0.007417,0.090828,0.607821,-0.067220,-1.464075,1.182175,0.902531,-11.073895
1790538289.6722,0.031514,-0.022728,0.074249,0.028682,-0.018135,0.074249,0.803298,-0.507953,-1.483501,0.377287,-0.212869,-8.240679
1790538289.6859,0.040914,-0.033522,0.059685,0.037244,-0.028906,0.059685,0.763231,-0.688861,-1.407010,1.067191,0.530731,-7.386832
1790538289.7005,0.048171,-0.042831,0.048625,0.044893,-0.038654,0.048625,0.667314,-0.585658,-1.096190,1.795423,1.199971,-7.425644
1790538289.7145,0.032531,-0.047741,0.038019,0.036239,-0.045015,0.038019,0.288501,1.110498,-0.977204,1.450471,-0.212869,-17.050819
1790538289.7287,0.023461,-0.035644,0.020609,0.027295,-0.038455,0.020609,-0.920784,0.814247,-0.877644,-3.800463,-0.844929,-17.361308
1790538289.7428,0.024386,-0.022711,0.002922,0.025259,-0.027434,0.002922,-1.082265,0.179251,-0.875216,-3.762135,-2.443668,-11.384385
1790538289.7567,0.019492,-0.012974,-0.011508,0.021222,-0.017312,-0.011508,-0.937782,0.578704,-0.803582,-1.424128,-1.700068,-4.980539
1790538289.7706,-0.002741,0.006310,-0.023705,0.004448,-0.000777,-0.023705,-1.049483,1.298690,-0.693095,2.102047,2.017931,-1.565154
1790538289.7845,-0.005282,0.024095,-0.040996,-0.002363,0.016634,-0.040996,-1.333592,0.497356,-0.657885,-2.765607,-0.064149,-7.076343
1790538289.7984,-0.003927,0.031414,-0.053807,-0.003458,0.026980,-0.053807,-0.613606,0.125829,-0.753802,-4.030431,-0.993649,-21.281238
1790538289.8122,0.004401,0.023351,-0.048796,0.002043,0.024440,-0.048796,0.457267,-0.679147,0.024463,2.063719,-1.365448,-16.352217
1790538289.8261,-0.009580,0.023244,-0.037711,-0.006093,0.023603,-0.037711,0.095453,0.687977,0.544116,3.711822,2.203831,-7.037532
1790538289.8399,0.003261,0.018479,-0.039283,0.000455,0.020016,-0.039283,0.429342,-0.805418,0.294003,-1.807408,1.943571,-6.843476
1790538289.8539,0.009228,0.006348,-0.031264,0.006596,0.010448,-0.031264,0.725593,-0.498240,0.218726,0.645583,-1.068009,-8.163056
1790538289.8678,-0.000461,-0.000720,-0.026005,0.001656,0.002630,-0.026005,0.534972,0.542280,0.258793,2.906934,1.757671,-11.850119
1790538289.8815,-0.004953,-0.012940,-0.022107,-0.002970,-0.008269,-0.022107,0.900429,0.295809,0.354710,0.262303,1.423051,-11.850119
1790538289.8953,-0.020201,-0.024578,-0.012481,-0.015032,-0.019685,-0.012481,0.891930,0.923520,0.681314,2.561982,1.832031,-9.676693
1790538289.9089,-0.036056,-0.027184,-0.013199,-0.029749,-0.024935,-0.013199,0.428128,1.100785,0.672815,0.645583,3.319231,-5.989630
1790538289.9224,-0.045118,-0.034326,-0.009542,-0.040507,-0.031509,-0.009542,0.504619,0.746255,0.687385,-1.079176,0.716631,-8.318301
1790538289.9364,-0.048859,-0.041897,-0.006223,-0.046353,-0.038781,-0.006223,0.550756,0.307950,0.546544,-0.465928,1.162791,-8.784035
1790538289.9510,-0.041752,-0.047278,0.002447,-0.043132,-0.044729,0.002447,0.367421,-0.526165,0.627892,1.028863,1.869211,-15.770049
1790538289.9651,-0.027489,-0.045165,0.012589,-0.032182,-0.045034,0.012589,-0.212939,-1.068887,0.482195,1.450471,-0.064149,-14.217602
1790538289.9792,-0.017445,-0.037949,0.035991,-0.021866,-0.040074,0.035991,-0.652459,-0.958400,0.592682,4.555037,-1.551348,-11.035084
1790538289.9932,-0.013164,-0.027960,0.058270,-0.015775,-0.031594,0.058270,-0.843079,-0.606299,0.655817,3.903462,-0.919289,-7.736133
1790538290.0075,0.001527,-0.010950,0.071732,-0.003663,-0.017143,0.071732,-1.261958,-1.196372,0.474910,1.450471,0.010211,-6.416553
1790538290.0214,0.010503,0.002127,0.085750,0.006253,-0.003654,0.085750,-1.078623,-0.858840,0.280647,2.561982,-0.993649,-7.813756
1790538290.0354,0.020185,0.017138,0.086180,0.016005,0.010900,0.086180,-1.025200,-0.869768,0.132522,1.987063,1.348691,-7.037532
1790538290.0495,0.011988,0.020558,0.091784,0.013193,0.017661,0.091784,-0.369564,0.394154,-0.144303,5.513237,-1.402628,-14.566903
1790538290.0634,0.006858,0.009043,0.084154,0.008759,0.011629,0.084154,0.775372,0.471859,-0.827865,0.032335,0.158931,-13.519000
1790538290.0774,0.010472,0.000098,0.063312,0.009958,0.003557,0.063312,0.690382,-0.053864,-1.113188,-1.194160,1.385871,-8.395923
1790538290.0915,0.012018,-0.008581,0.047237,0.011400,-0.004940,0.047237,0.718308,-0.147353,-0.621460,1.527127,2.166651,-8.784035
1790538290.1054,0.025958,-0.027151,0.037788,0.021591,-0.020488,0.037788,1.316880,-0.844271,-0.619032,-2.229015,0.567911,-11.966553
1790538290.1195,0.042296,-0.043929,0.007254,0.036084,-0.036896,0.007254,1.339948,-0.953543,-0.982061,-2.612295,3.021791,-9.210958
1790538290.1332,0.057546,-0.055431,-0.019576,0.051107,-0.049870,-0.019576,1.007274,-1.036105,-1.020913,-0.695896,2.947431,-8.046623
1790538290.1469,0.066497,-0.066501,-0.032952,0.061880,-0.061511,-0.032952,0.883431,-0.730141,-0.861861,1.220503,1.980751,-9.249770
1790538290.1616,0.063834,-0.085952,-0.033796,0.063248,-0.078620,-0.033796,1.205179,0.065122,-0.846077,2.408670,-1.291089,-12.820399
1790538290.1757,0.046319,-0.087210,-0.042365,0.051398,-0.084633,-0.042365,0.049315,1.208844,-0.767157,0.645583,-0.064149,-15.575993
1790538290.1898,0.037709,-0.081168,-0.058105,0.041816,-0.082207,-0.058105,-0.565040,0.868884,-0.932281,-6.253454,-2.666748,-13.247322
1790538290.2041,0.035759,-0.071736,-0.076286,0.037576,-0.074877,-0.076286,-0.788443,0.408724,-1.075550,-3.992103,-1.551348,-8.163056
1790538290.2182,0.025057,-0.053913,-0.093626,0.028813,-0.060202,-0.093626,-1.272885,0.876169,-1.014842,-0.925864,0.307651,-6.571797
1790538290.2323,0.021556,-0.037956,-0.102331,0.023733,-0.044630,-0.102331,-1.319023,0.520425,-0.694309,-3.378855,-2.183408,-7.619700
1790538290.2464,0.018627,-0.013964,-0.108965,0.020159,-0.023164,-0.108965,-1.805894,0.386869,-0.433268,-2.114032,-0.659029,-8.512357
1790538290.2604,0.010256,0.005281,-0.114401,0.013227,-0.003252,-0.114401,-1.563065,0.785108,-0.480620,-2.497311,-2.480848,-10.763406
1790538290.2744,0.005017,0.027191,-0.123464,0.007480,0.018058,-0.123464,-1.623772,0.683120,-0.517044,-3.302199,-0.064149,-7.619700
1790538290.2882,0.020295,0.031323,-0.126463,0.016450,0.027343,-0.126463,-0.482479,-0.911049,-0.333709,-3.570495,-2.480848,-12.975644
1790538290.3021,0.018842,0.025252,-0.120389,0.018125,0.025879,-0.120389,0.464552,-0.114571,0.478552,3.903462,2.426911,-14.372847
1790538290.3160,0.015272,0.022974,-0.111167,0.016128,0.023846,-0.111167,0.381990,0.180465,0.705597,-0.082648,4.211551,-7.891378
1790538290.3300,0.017269,0.016877,-0.108955,0.016927,0.018967,-0.108955,0.553184,-0.004084,0.239366,-2.114032,2.315371,-7.037532
1790538290.3439,0.001471,0.007065,-0.100971,0.006108,0.010636,-0.100971,0.690382,0.871312,0.446985,3.941790,0.790991,-9.560259
1790538290.3574,-0.013238,-0.005578,-0.094745,-0.007435,-0.000714,-0.094745,0.998775,0.950231,0.510120,1.642111,2.092291,-9.288581
1790538290.3710,-0.026714,-0.012834,-0.089072,-0.020930,-0.009198,-0.089072,0.740162,0.876169,0.586611,1.143847,3.244871,-6.571797
1790538290.3847,-0.038938,-0.020280,-0.080130,-0.033536,-0.016956,-0.080130,0.562898,0.809391,0.715310,0.952207,1.460231,-8.939280
1790538290.3986,-0.046475,-0.030529,-0.070657,-0.042593,-0.026457,-0.070657,0.684312,0.509498,0.760233,0.262303,0.605091,-10.181238
1790538290.4125,-0.053638,-0.039215,-0.061232,-0.050325,-0.035388,-0.061232,0.663671,0.407510,0.644890,1.795423,1.832031,-9.405014
1790538290.4264,-0.033874,-0.039647,-0.052823,-0.038809,-0.038369,-0.052823,0.048101,-1.397919,0.790587,-1.270816,3.058971,-17.128441
1790538290.4402,-0.023622,-0.030984,-0.037192,-0.028178,-0.033199,-0.037192,-0.686455,-0.943830,0.618179,4.401726,0.270471,-13.829490
1790538290.4542,-0.015218,-0.018559,-0.020072,-0.019106,-0.022951,-0.020072,-1.015487,-0.855198,0.536831,3.903462,-0.993649,-9.482637
1790538290.4683,0.000415,-0.000765,-0.011760,-0.005441,-0.007421,-0.011760,-1.302025,-1.219441,0.264863,1.105519,0.307651,-6.921098
1790538290.4822,0.018989,0.012753,-0.002450,0.011660,0.006701,-0.002450,-1.036128,-1.603110,0.120380,2.600310,0.010211,-5.834385
1790538290.4961,0.014402,0.008355,-0.004913,0.013580,0.007859,-0.004913,0.407487,0.210819,0.082742,2.102047,2.761531,-10.530539
1790538290.5099,0.009291,-0.001164,-0.037455,0.010578,0.001543,-0.037455,1.054625,0.525282,-0.144303,-1.654096,5.475671,-6.261308
1790538290.5237,0.017015,-0.001322,-0.056867,0.015084,-0.000463,-0.056867,0.146447,-0.368327,-0.730733,-2.037376,3.170511,-9.909560
1790538290.5375,0.011149,-0.008166,-0.061433,0.012330,-0.005855,-0.061433,0.440269,0.411152,-0.858218,2.025391,-0.026969,-12.548721
1790538290.5513,0.014150,-0.014943,-0.077589,0.013604,-0.012216,-0.077589,0.534972,-0.038080,-0.712521,-1.462456,1.125611,-7.774944
1790538290.5651,0.028161,-0.022197,-0.095050,0.023794,-0.019203,-0.095050,0.606607,-0.819988,-0.759873,-1.845736,1.757671,-8.007811
1790538290.5790,0.037945,-0.036068,-0.105030,0.033700,-0.031008,-0.105030,0.952637,-0.664578,-0.929853,0.147319,0.047391,-10.452916
1790538290.5926,0.048257,-0.048093,-0.121878,0.043890,-0.042968,-0.121878,0.935639,-0.699788,-1.192107,-0.120976,1.534591,-8.357112
1790538290.6061,0.056422,-0.060123,-0.129328,0.052663,-0.054976,-0.129328,0.848221,-0.662149,-1.068265,1.412143,0.382011,-11.035084
1790538290.6201,0.049700,-0.060087,-0.143809,0.050589,-0.058554,-0.143809,0.006820,0.491286,-1.060980,0.300631,1.608951,-13.790679
1790538290.6339,0.040281,-0.050213,-0.157012,0.043373,-0.052715,-0.157012,-0.800584,0.814247,-0.723448,-2.880591,-0.993649,-15.459560
1790538290.6477,0.041457,-0.040919,-0.169467,0.042032,-0.044458,-0.169467,-0.826081,0.188964,-0.634816,-5.180270,-2.294948,-11.267951
1790538290.6619,0.041849,-0.032464,-0.179283,0.041904,-0.036062,-0.179283,-0.755661,0.216889,-0.526757,-4.260399,-2.146228,-10.336483
