t,imu_roll,imu_pitch,imu_yaw,lpf_roll,lpf_pitch,lpf_yaw,gyro_x,gyro_y,gyro_z,acc_x,acc_y,acc_z
1790543661.9171,-0.033810,-0.022456,-0.008608,-0.023667,-0.015719,-0.008608,-0.017476,-0.010683,-0.004935,0.185647,1.311511,-10.220049
1790543661.9326,-0.045413,-0.021828,-0.015794,-0.038889,-0.019995,-0.015794,0.021376,0.008743,0.001136,0.377287,1.311511,-9.831937
1790543661.9464,-0.037855,-0.024226,-0.009693,-0.038165,-0.022957,-0.009693,0.006806,0.003886,0.004778,0.032335,1.274331,-10.142427
1790543661.9601,-0.035780,-0.023338,-0.008981,-0.036496,-0.023224,-0.008981,-0.012620,-0.017968,-0.003721,0.108991,1.311511,-9.831937
1790543661.9749,-0.034933,-0.023310,-0.008583,-0.035402,-0.023284,-0.008583,-0.029618,-0.028895,-0.007363,0.147319,1.348691,-10.414105
1790543661.9899,-0.034377,-0.021535,-0.009487,-0.034684,-0.022060,-0.009487,-0.035688,-0.027681,-0.028004,0.147319,1.385871,-9.948371
1790543662.0049,-0.036667,-0.019577,-0.011971,-0.036072,-0.020322,-0.011971,-0.067256,-0.049536,-0.029218,0.377287,1.460231,-10.375294
1790543662.0194,-0.040026,-0.013624,-0.016228,-0.038840,-0.015633,-0.016228,-0.149818,-0.020396,0.001136,0.492271,1.757671,-10.452916
1790543662.0340,-0.042889,-0.006304,-0.019330,-0.041675,-0.009103,-0.019330,-0.206883,-0.039823,0.103124,0.492271,1.794851,-9.754315
1790543662.0482,-0.042662,0.000881,-0.020770,-0.042366,-0.002114,-0.020770,-0.197169,-0.025253,0.267033,0.185647,1.832031,-9.288581
1790543662.0620,-0.044335,-0.001514,-0.010207,-0.043744,-0.001694,-0.010207,-0.098824,-0.050750,0.400589,0.377287,1.088431,-9.327392
1790543662.0758,-0.047916,-0.006740,0.005259,-0.046664,-0.005227,0.005259,-0.030832,-0.024039,0.576639,0.530599,0.790991,-9.016902
1790543662.0899,-0.039790,-0.012314,0.026784,-0.041852,-0.010188,0.026784,-0.028404,-0.201304,0.666486,-0.580912,0.716631,-9.754315
1790543662.1038,-0.030354,-0.018385,0.047722,-0.033803,-0.015926,0.047722,-0.042973,-0.218302,0.588781,-0.849208,0.493551,-9.793126
1790543662.1179,-0.024554,-0.027496,0.057518,-0.027329,-0.024025,0.057518,0.054158,-0.215873,0.426086,-0.542584,0.121751,-12.238231
1790543662.1318,-0.026993,-0.034682,0.051931,-0.027094,-0.031485,0.051931,-0.036903,0.024527,0.366593,0.300631,0.047391,-11.112707
1790543662.1458,-0.025228,-0.038022,0.060897,-0.025788,-0.036061,0.060897,0.113651,-0.081103,0.362950,-0.120976,0.828171,-9.366203
1790543662.1597,-0.020818,-0.037145,0.077579,-0.022309,-0.036819,0.077579,-0.028404,-0.112671,0.250035,-0.504256,1.237151,-9.909560
1790543662.1733,-0.024318,-0.033535,0.068498,-0.023715,-0.034520,0.068498,-0.164388,-0.004613,0.182043,0.568927,1.348691,-9.210958
1790543662.1869,-0.022652,-0.030833,0.069465,-0.022971,-0.031939,0.069465,-0.081826,-0.163665,0.089768,0.108991,1.534591,-9.948371
1790543662.2008,-0.025717,-0.028475,0.055149,-0.024894,-0.029514,0.055149,-0.129177,-0.102958,0.054558,0.952207,1.423051,-10.375294
1790543662.2149,-0.023972,-0.023554,0.050214,-0.024249,-0.025342,0.050214,-0.206883,-0.237728,0.015706,0.377287,1.794851,-10.336483
1790543662.2289,-0.018323,-0.011882,0.045380,-0.020100,-0.015920,0.045380,-0.443640,-0.523051,0.064271,0.300631,2.464091,-9.249770
1790543662.2429,-0.013316,-0.001754,0.038909,-0.015351,-0.006004,0.038909,-0.523774,-0.625039,0.055772,0.798895,2.352551,-10.724595
1790543662.2572,-0.024640,-0.001482,0.026729,-0.021853,-0.002838,0.026729,0.108794,0.414266,-0.166416,2.217030,2.984611,-15.110259
1790543662.2715,-0.025978,0.002206,0.004780,-0.024741,0.000693,0.004780,0.581096,0.519897,-0.508804,-1.270816,4.843611,-9.870749
1790543662.2856,-0.014675,0.014157,0.016707,-0.017695,0.010117,0.016707,0.539815,0.200577,-0.726135,-2.765607,5.178231,-5.834385
1790543662.2996,-0.009108,0.009287,-0.024273,-0.011684,0.009536,-0.024273,0.343124,0.144727,-0.933754,-1.309144,1.497411,-8.861658
1790543662.3137,0.004241,0.013062,-0.036261,-0.000536,0.012004,-0.036261,0.073584,-0.567974,-1.002960,-1.309144,3.505131,-11.112707
1790543662.3277,-0.000800,0.016068,-0.024140,-0.000721,0.014849,-0.024140,-0.039331,0.338990,-1.185081,0.760567,3.244871,-12.936833
1790543662.3417,-0.016672,0.018249,0.054868,-0.011886,0.017229,0.054868,-0.127963,0.388770,-1.362346,3.826806,1.980751,-9.831937
1790543662.3556,-0.013353,0.018354,0.015367,-0.012913,0.018016,0.015367,-0.239664,0.195721,-1.413340,-0.772552,0.753811,-10.025993
1790543662.3695,-0.019984,0.016030,-0.002585,-0.017863,0.016626,-0.002585,0.031089,0.681378,-1.430338,0.185647,0.939711,-8.318301
1790543662.3833,-0.024672,0.021986,-0.030108,-0.022629,0.020378,-0.030108,-0.237236,0.655881,-1.528683,-0.120976,2.278191,-8.589979
1790543662.3969,-0.032263,0.030389,-0.043154,-0.029373,0.027386,-0.043154,-0.493420,0.721444,-1.477689,0.568927,2.203831,-9.210958
1790543662.4105,-0.036124,0.031932,-0.079564,-0.034098,0.030568,-0.079564,-0.313727,0.700804,-1.345348,-0.542584,0.902531,-10.957462
1790543662.4245,-0.034251,0.032095,-0.109271,-0.034205,0.031637,-0.109271,-0.147390,0.218790,-1.090378,-0.504256,1.088431,-9.715504
1790543662.4385,-0.037511,0.033467,-0.116596,-0.036519,0.032918,-0.116596,-0.140105,0.302565,-0.794127,0.568927,1.534591,-9.560259
1790543662.4522,-0.041821,0.036974,-0.129480,-0.040230,0.035757,-0.129480,-0.283373,0.474974,-0.741919,0.147319,1.534591,-9.055714
1790543662.4661,-0.036101,0.035340,-0.148259,-0.037340,0.035465,-0.148259,0.111223,-0.140596,-0.722493,-0.772552,2.649991,-14.605714
1790543662.4801,-0.029560,0.019829,-0.135229,-0.031894,0.024520,-0.135229,1.089821,-0.745239,-0.500305,2.446998,1.943571,-12.160609
1790543662.4939,-0.035405,0.013543,-0.125818,-0.034352,0.016836,-0.125818,1.044898,-0.395566,0.250035,3.826806,4.062831,-6.882287
1790543662.5080,-0.032830,-0.002183,-0.102799,-0.033286,0.003523,-0.102799,1.380001,-0.719742,0.466152,1.795423,2.055111,-6.222497
1790543662.5223,-0.041351,-0.003321,-0.077285,-0.038932,-0.001268,-0.077285,0.113651,0.247929,0.605779,2.332014,2.538451,-13.674245
1790543662.5363,-0.042870,-0.001945,-0.068578,-0.041689,-0.001742,-0.068578,-0.121893,0.017242,0.866819,0.032335,2.166651,-14.528091
1790543662.5502,-0.029973,-0.009868,-0.126839,-0.033488,-0.007430,-0.126839,0.307914,-0.452631,1.216492,-2.650623,-0.175689,-7.076343
1790543662.5642,-0.017307,-0.011727,-0.148871,-0.022161,-0.010438,-0.148871,0.000736,-0.501197,1.076866,-2.842263,0.493551,-8.085434
1790543662.5781,-0.031528,-0.016975,-0.101616,-0.028718,-0.015014,-0.101616,-0.123107,0.678949,1.047726,0.837223,-1.142369,-6.416553
1790543662.5921,-0.040108,-0.026256,-0.077730,-0.036691,-0.022884,-0.077730,0.401403,0.397269,1.131502,0.722239,-0.324409,-11.462007
1790543662.6061,-0.044266,-0.036602,-0.060589,-0.041994,-0.032487,-0.060589,0.570168,0.243072,1.239561,-0.389272,0.270471,-10.142427
1790543662.6201,-0.052419,-0.040530,-0.045949,-0.049291,-0.038117,-0.045949,0.228994,0.517469,1.207993,-0.120976,0.939711,-9.249770
1790543662.6336,-0.047576,-0.038614,-0.044034,-0.048091,-0.038465,-0.044034,-0.121893,0.092519,1.033157,-2.650623,1.125611,-7.231588
1790543662.6473,-0.043418,-0.036555,-0.038361,-0.044820,-0.037128,-0.038361,-0.198384,-0.151524,0.791542,-1.309144,0.939711,-9.249770
1790543662.6613,-0.039804,-0.037392,-0.034677,-0.041309,-0.037313,-0.034677,-0.045402,-0.234085,0.582710,-0.465928,0.567911,-10.530539
1790543662.6753,-0.039213,-0.039257,-0.029855,-0.039842,-0.038674,-0.029855,0.089368,-0.076247,0.456439,0.070663,0.976891,-10.763406
1790543662.6892,-0.035226,-0.037705,-0.022971,-0.036611,-0.037996,-0.022971,0.004378,-0.213445,0.161403,-0.504256,1.980751,-9.754315
1790543662.7032,-0.021860,-0.026092,-0.011848,-0.026285,-0.029663,-0.011848,-0.654901,-0.825373,0.230609,-1.730752,3.653851,-13.790679
1790543662.7170,-0.011617,-0.018442,-0.007147,-0.016017,-0.021808,-0.007147,-0.679184,-0.975926,0.066700,1.757095,0.493551,-11.617252
1790543662.7308,-0.006799,-0.010390,-0.002458,-0.009564,-0.013815,-0.002458,-0.788457,-0.707601,-0.143347,3.136902,-0.212869,-11.345574
1790543662.7448,-0.017299,-0.009269,0.000952,-0.014978,-0.010633,0.000952,-0.238450,0.203006,-0.511232,4.401726,0.121751,-8.163056
1790543662.7586,-0.018207,-0.009153,-0.013871,-0.017238,-0.009597,-0.013871,0.156146,0.098590,-0.743133,0.453943,2.166651,-7.774944
1790543662.7735,-0.012171,-0.009001,-0.037493,-0.013691,-0.009180,-0.037493,0.123364,-0.078675,-1.120731,-1.309144,2.278191,-8.589979
1790543662.7876,-0.009988,-0.009598,-0.048565,-0.011099,-0.009473,-0.048565,0.131863,-0.263225,-1.375701,2.140375,2.055111,-8.745224
1790543662.8016,-0.014518,-0.013112,-0.052701,-0.013492,-0.012020,-0.052701,0.230209,0.150798,-1.086735,2.370342,1.199971,-8.784035
1790543662.8156,-0.008415,-0.015497,-0.067474,-0.009938,-0.014454,-0.067474,0.107580,-0.185520,-1.061238,-0.772552,0.753811,-8.085434
1790543662.8296,-0.006104,-0.022174,-0.081783,-0.007254,-0.019858,-0.081783,0.425686,-0.054392,-1.317422,0.415615,1.051251,-10.258860
1790543662.8435,-0.003965,-0.032241,-0.101674,-0.004952,-0.028526,-0.101674,0.658801,0.076735,-1.521398,-0.465928,0.865351,-9.987182
1790543662.8572,0.004719,-0.033257,-0.128160,0.001818,-0.031837,-0.128160,0.159788,-0.417421,-1.446122,-0.504256,1.683311,-7.852567
1790543662.8709,0.004827,-0.039494,-0.136801,0.003924,-0.037197,-0.136801,0.320055,0.028169,-1.233647,0.683911,0.307651,-10.142427
1790543662.8850,0.011068,-0.047130,-0.151828,0.008925,-0.044150,-0.151828,0.498534,-0.289936,-1.101305,-0.542584,0.828171,-8.939280
1790543662.8990,0.015232,-0.051270,-0.173392,0.013340,-0.049134,-0.173392,0.440255,-0.202518,-0.819624,-0.350944,2.055111,-8.085434
1790543662.9129,0.002043,-0.045592,-0.193223,0.005432,-0.046654,-0.193223,-0.327083,1.090544,-0.747990,-1.040848,2.910251,-14.450469
1790543662.9269,-0.003031,-0.031867,-0.218478,-0.000492,-0.036303,-0.218478,-1.064067,0.813719,-0.718850,-5.410238,0.790991,-15.032637
1790543662.9409,-0.006879,-0.021796,-0.227481,-0.004963,-0.026148,-0.227481,-1.048283,0.658309,-0.620505,-2.957247,-1.774428,-9.870749
1790543662.9547,-0.014862,-0.008338,-0.236481,-0.011892,-0.013681,-0.236481,-1.093206,0.858642,-0.374034,-0.887536,0.158931,-4.243126
1790543662.9686,-0.009692,-0.006099,-0.240723,-0.010352,-0.008374,-0.240723,-0.321012,-0.113885,-0.174915,-2.343999,-0.026969,-10.181238
1790543662.9826,-0.006020,-0.013240,-0.242850,-0.007320,-0.011780,-0.242850,0.350409,-0.201304,0.174758,-1.155832,-0.138509,-11.888930
1790543662.9965,-0.014992,-0.014728,-0.236619,-0.012690,-0.013844,-0.236619,0.048087,0.501685,0.789114,0.338959,0.865351,-10.996273
1790543663.0107,-0.014680,-0.021257,-0.219980,-0.014083,-0.019033,-0.219980,0.414758,-0.093245,1.142429,-0.772552,0.753811,-8.861658
1790543663.0250,-0.009978,-0.032736,-0.215351,-0.011209,-0.028625,-0.215351,0.510675,-0.300863,0.654344,-0.734224,-1.030829,-5.834385
1790543663.0391,-0.014011,-0.035583,-0.204039,-0.013171,-0.033496,-0.204039,0.201069,0.290424,0.586352,-0.619240,0.939711,-8.434735
1790543663.0532,-0.031618,-0.041927,-0.205428,-0.026084,-0.039398,-0.205428,0.374692,1.072332,0.667700,1.105519,0.419191,-9.831937
1790543663.0671,-0.038230,-0.049796,-0.182535,-0.034586,-0.046677,-0.182535,0.684298,0.368129,1.004017,0.262303,2.501271,-10.608161
1790543663.0807,-0.051082,-0.056339,-0.162128,-0.046133,-0.053440,-0.162128,0.596880,0.842859,0.938454,0.415615,2.017931,-8.706413
1790543663.0944,-0.057994,-0.059457,-0.133426,-0.054436,-0.057652,-0.133426,0.417187,0.485901,0.888674,-0.197632,2.612811,-8.279490
1790543663.1080,-0.057663,-0.062432,-0.112876,-0.056695,-0.060998,-0.112876,0.324912,0.073093,0.762403,-1.500784,2.575631,-11.306763
1790543663.1220,-0.054312,-0.068287,-0.112270,-0.055027,-0.066100,-0.112270,0.289702,-0.274152,0.637346,0.147319,-0.250049,-13.907112
1790543663.1360,-0.049403,-0.066947,-0.113866,-0.051090,-0.066693,-0.113866,-0.219024,-0.506053,0.509861,1.833751,-0.250049,-12.936833
1790543663.1499,-0.050271,-0.067244,-0.123588,-0.050517,-0.067079,-0.123588,-0.216596,-0.292364,0.509861,3.366870,-1.439808,-9.016902
1790543663.1638,-0.041376,-0.060737,-0.122713,-0.044118,-0.062639,-0.122713,-0.648830,-1.019635,0.486793,2.830278,-0.696209,-7.115154
1790543663.1776,-0.036615,-0.050856,-0.118790,-0.038866,-0.054391,-0.118790,-0.850378,-0.748882,0.479508,3.098574,-0.287229,-7.464455
1790543663.1916,-0.029405,-0.039508,-0.114239,-0.032243,-0.043973,-0.114239,-0.958436,-0.844799,0.384805,3.328542,-0.435949,-10.297672
1790543663.2055,-0.023310,-0.023332,-0.116452,-0.025990,-0.029525,-0.116452,-1.243760,-0.761023,0.092196,3.481854,0.307651,-9.870749
1790543663.2196,-0.011273,-0.003709,-0.115186,-0.015688,-0.011454,-0.115186,-1.503586,-1.190829,-0.078998,3.175230,0.233291,-8.395923
1790543663.2335,-0.007591,0.008177,-0.099621,-0.010020,0.002288,-0.099621,-1.083493,-0.456273,-0.236836,2.906934,-0.993649,-11.462007
1790543663.2476,-0.018441,-0.001871,-0.086498,-0.015915,-0.000624,-0.086498,0.596880,1.000697,-0.660572,-1.500784,0.567911,-14.139979
1790543663.2615,0.002899,-0.008362,-0.053411,-0.002745,-0.006041,-0.053411,0.453611,-0.888508,-1.220291,-8.208181,2.278191,-13.790679
1790543663.2761,-0.002326,-0.003943,-0.185692,-0.002452,-0.004572,-0.185692,-0.080612,-0.076247,-0.615648,3.865134,2.278191,-5.834385
1790543663.2901,-0.001410,-0.011671,-0.170400,-0.001723,-0.009542,-0.170400,0.451182,0.121658,-0.505161,-1.385800,0.567911,-10.491728
1790543663.3042,0.019004,-0.023045,-0.138466,0.012786,-0.018994,-0.138466,0.749861,-1.037847,-0.887616,-3.800463,1.125611,-10.181238
1790543663.3180,0.026188,-0.033253,-0.164747,0.022167,-0.028975,-0.164747,0.832423,-0.479342,-0.917970,0.185647,2.092291,-8.085434
1790543663.3315,0.026630,-0.035378,-0.201138,0.025291,-0.033457,-0.201138,0.380762,-0.034966,-0.945895,0.568927,3.058971,-7.153965
1790543663.3455,0.036796,-0.041671,-0.220213,0.033345,-0.039207,-0.220213,0.520389,-0.572831,-0.995675,-0.849208,1.943571,-7.736133
1790543663.3594,0.037054,-0.046485,-0.240487,0.035941,-0.044302,-0.240487,0.627233,0.001458,-0.728564,0.147319,4.955151,-9.560259
1790543663.3732,0.008989,-0.039160,-0.249080,0.017074,-0.040702,-0.249080,-0.569911,1.968368,-0.686069,3.213558,2.501271,-21.281238
1790543663.3871,0.012988,-0.022353,-0.214225,0.014214,-0.027858,-0.214225,-1.231618,0.232145,-0.724921,-6.943357,1.683311,-11.112707
1790543663.4011,0.006699,-0.007233,-0.207426,0.008953,-0.013421,-0.207426,-1.269257,0.754226,-0.599865,-1.845736,-0.361589,-6.494175
1790543663.4150,-0.002216,0.006256,-0.204277,0.001135,0.000353,-0.204277,-1.117489,1.078402,-0.494234,-2.458983,-0.101329,-5.213406
1790543663.4290,-0.020018,0.020871,-0.224622,-0.013672,0.014716,-0.224622,-0.851592,1.323659,-0.612006,0.568927,2.873071,-6.532986
1790543663.4430,-0.002021,0.008688,-0.228219,-0.005516,0.010496,-0.228219,0.803284,-1.054845,-0.675141,-2.727279,1.237151,-14.955014
1790543663.4569,-0.014358,0.009701,-0.243765,-0.011706,0.009940,-0.243765,0.103938,0.484687,0.316813,5.628221,4.583351,-11.151518
1790543663.4709,-0.016940,0.003303,-0.228894,-0.015370,0.005294,-0.228894,0.284845,0.014814,0.526859,1.373815,-0.733389,-13.324944
1790543663.4848,-0.017389,-0.002154,-0.216238,-0.016784,0.000080,-0.216238,0.322483,-0.157594,0.770902,0.952207,0.716631,-11.539630
1790543663.4986,-0.024963,-0.009350,-0.202809,-0.022509,-0.006521,-0.202809,0.448754,0.483473,0.698053,-0.389272,0.679451,-10.957462
1790543663.5128,-0.038446,-0.016698,-0.193558,-0.033665,-0.013645,-0.193558,0.525245,0.927849,0.667700,-0.389272,0.976891,-6.144874
1790543663.5274,-0.044395,-0.030811,-0.176495,-0.041176,-0.025661,-0.176495,0.918627,0.393626,0.887460,-0.964192,0.790991,-9.870749
1790543663.5412,-0.057686,-0.037200,-0.171142,-0.052733,-0.033738,-0.171142,0.564098,0.810077,1.001589,0.798895,2.612811,-9.210958
1790543663.5548,-0.060196,-0.039616,-0.156175,-0.057957,-0.037853,-0.156175,0.203497,0.198149,1.064724,-1.347472,2.129471,-10.608161
1790543663.5685,-0.064850,-0.044001,-0.141834,-0.062782,-0.042157,-0.141834,0.326126,0.217575,1.170355,0.377287,1.757671,-9.831937
1790543663.5826,-0.061950,-0.047216,-0.126683,-0.062200,-0.045698,-0.126683,0.139148,-0.333645,1.001589,0.722239,0.567911,-11.190329
1790543663.5964,-0.057778,-0.044917,-0.115356,-0.059104,-0.045151,-0.115356,-0.257876,-0.462344,0.810969,1.373815,0.382011,-10.685784
1790543663.6105,-0.051293,-0.040382,-0.102879,-0.053636,-0.041813,-0.102879,-0.473994,-0.678461,0.861963,1.910407,-0.435949,-10.491728
1790543663.6245,-0.048465,-0.035512,-0.095476,-0.050017,-0.037402,-0.095476,-0.551699,-0.503625,0.723550,3.405198,-1.402628,-10.724595
1790543663.6386,-0.040204,-0.024333,-0.095242,-0.043148,-0.028254,-0.095242,-0.901372,-0.898221,0.541429,3.251886,-0.026969,-9.521448
1790543663.6526,-0.025423,-0.011310,-0.090065,-0.030740,-0.016393,-0.090065,-1.053140,-1.311029,0.330168,2.332014,-0.138509,-8.628791
1790543663.6665,-0.016307,0.004495,-0.089177,-0.020637,-0.001771,-0.089177,-1.277756,-0.978354,0.185685,2.868606,-0.287229,-7.464455
1790543663.6804,-0.007820,0.019771,-0.090879,-0.011665,0.013308,-0.090879,-1.166055,-0.781663,-0.014648,2.370342,0.790991,-11.345574
1790543663.6944,-0.011992,0.015155,-0.076176,-0.011894,0.014601,-0.076176,0.137934,0.334133,-0.462666,1.297159,-0.993649,-17.516553
1790543663.7082,-0.010693,0.003769,-0.067125,-0.011053,0.007019,-0.067125,0.783857,0.298923,-1.080665,-2.612295,1.274331,-9.405014
1790543663.7222,-0.006124,0.008159,-0.225357,-0.007603,0.007817,-0.225357,0.357694,-0.297221,-0.904614,0.530599,5.364131,-3.195224
1790543663.7361,-0.010669,0.005329,-0.176675,-0.009749,0.006076,-0.176675,0.129435,0.073093,-0.423814,3.060246,0.828171,-6.338930
1790543663.7501,0.000390,-0.008822,-0.157277,-0.002652,-0.004353,-0.157277,0.897987,-0.558261,-0.669071,-2.458983,0.344831,-12.509909
1790543663.7643,0.015871,-0.022016,-0.183553,0.010315,-0.016717,-0.183553,1.053397,-0.923718,-0.954394,-0.887536,2.687171,-8.279490
1790543663.7784,0.022130,-0.026745,-0.221884,0.018585,-0.023737,-0.221884,0.570168,-0.445346,-1.168083,0.990535,2.910251,-5.485084
1790543663.7921,0.023913,-0.031912,-0.240422,0.022315,-0.029460,-0.240422,0.388047,-0.101744,-1.061238,0.798895,1.646131,-8.551168
1790543663.8061,0.031518,-0.041593,-0.255086,0.028757,-0.037953,-0.255086,0.656372,-0.402851,-1.006602,-0.695896,1.014071,-8.124245
1790543663.8200,0.027734,-0.051644,-0.279923,0.028041,-0.047537,-0.279923,0.831209,0.409410,-0.739491,-1.155832,2.687171,-9.249770
1790543663.8339,0.005721,-0.047260,-0.284708,0.012417,-0.047343,-0.284708,-0.358650,1.581057,-0.547656,1.067191,1.534591,-17.477742
1790543663.8479,0.008465,-0.032930,-0.247057,0.009650,-0.037254,-0.247057,-1.133273,0.195721,-0.580438,-7.824901,0.344831,-14.722147
1790543663.8616,0.004722,-0.018043,-0.215863,0.006201,-0.023806,-0.215863,-1.314180,0.632812,-0.561012,-3.148887,-1.142369,-7.153965
1790543663.8758,-0.003529,0.000516,-0.238837,-0.000610,-0.006781,-0.238837,-1.139344,0.908422,-0.401959,-2.037376,2.055111,-4.631238
1790543663.8903,-0.017677,0.011903,-0.242194,-0.012557,0.006298,-0.242194,-0.862519,1.191317,-0.408030,-1.347472,0.456371,-6.959909
1790543663.9043,-0.018067,0.013819,-0.254274,-0.016414,0.011563,-0.254274,-0.036903,0.252786,-0.500305,-1.884064,2.910251,-9.172147
1790543663.9184,-0.012589,0.010245,-0.254432,-0.013736,0.010640,-0.254432,0.227780,-0.350643,-0.136062,-0.504256,1.869211,-14.411658
1790543663.9327,-0.014674,0.017645,-0.251152,-0.014393,0.015543,-0.251152,-0.477636,0.067022,0.337453,0.300631,2.315371,-10.064805
1790543663.9466,-0.018153,0.012109,-0.237974,-0.017025,0.013139,-0.237974,0.286059,0.054880,0.467366,0.875551,0.047391,-5.368651
1790543663.9605,-0.029244,0.003940,-0.236354,-0.025578,0.006699,-0.236354,0.629661,0.654667,0.383591,1.297159,2.055111,-9.327392
1790543663.9745,-0.039884,-0.005722,-0.236634,-0.035592,-0.001996,-0.236634,0.765645,0.683806,0.410302,0.377287,1.869211,-7.076343
1790543663.9885,-0.054554,-0.017544,-0.229746,-0.048865,-0.012879,-0.229746,0.860348,0.873212,0.688340,1.833751,2.203831,-11.811308
1790543664.0023,-0.070070,-0.026433,-0.224456,-0.063709,-0.022367,-0.224456,0.695225,1.012839,0.882603,0.683911,2.464091,-10.258860
1790543664.0163,-0.081803,-0.033186,-0.218089,-0.076375,-0.029940,-0.218089,0.509461,0.776081,0.960308,-0.120976,2.166651,-9.327392
1790543664.0304,-0.085103,-0.041014,-0.208189,-0.082484,-0.037692,-0.208189,0.516746,0.243072,0.934811,-1.040848,1.460231,-10.220049
1790543664.0447,-0.077355,-0.044362,-0.194016,-0.078894,-0.042361,-0.194016,0.141576,-0.589829,0.860748,-0.197632,0.716631,-12.121798
1790543664.0593,-0.066543,-0.041165,-0.178008,-0.070248,-0.041524,-0.178008,-0.333153,-0.820516,0.763617,0.338959,0.158931,-12.315854
1790543664.0746,-0.062080,-0.041533,-0.140830,-0.064530,-0.041531,-0.140830,-0.215382,-0.609255,0.892316,4.056774,-2.146228,-9.948371
1790543664.0894,-0.056890,-0.039056,-0.117397,-0.059182,-0.039798,-0.117397,-0.386576,-0.651750,0.863177,2.791950,-1.365448,-7.813756
1790543664.1037,-0.045372,-0.026952,-0.099379,-0.049515,-0.030806,-0.099379,-0.969364,-0.975926,0.778187,1.450471,-0.101329,-11.306763
1790543664.1186,-0.034043,-0.008107,-0.095957,-0.038685,-0.014917,-0.095957,-1.360318,-1.081557,0.579067,4.133430,0.047391,-10.569350
1790543664.1325,-0.015844,0.013287,-0.091530,-0.022696,0.004826,-0.091530,-1.615287,-1.545359,0.218467,3.136902,0.642271,-11.772497
1790543664.1467,-0.003709,0.035128,-0.105828,-0.009405,0.026037,-0.105828,-1.514514,-1.183544,0.144405,2.561982,1.125611,-5.834385
1790543664.1607,-0.017241,0.031973,-0.072687,-0.014890,0.030192,-0.072687,-0.076969,0.848929,-0.200412,3.635166,-2.852648,-12.781588
1790543664.1748,-0.014218,0.019901,-0.091189,-0.014419,0.022988,-0.091189,0.946552,0.247929,-0.886402,-6.483422,4.025651,-12.471098
1790543664.1886,-0.000540,0.021287,-0.150107,-0.004704,0.021798,-0.150107,0.161003,-0.955286,-0.979891,1.335487,4.471811,-7.852567
1790543664.2026,-0.003686,0.016163,-0.165075,-0.003992,0.017853,-0.165075,0.375906,0.221218,-0.683640,1.718767,2.017931,-10.181238
1790543664.2167,0.005442,0.007361,-0.167506,0.002612,0.010509,-0.167506,0.584738,-0.428348,-0.797770,-1.769080,1.423051,-10.802217
1790543664.2307,0.021682,-0.005540,-0.184037,0.015961,-0.000725,-0.184037,0.963550,-0.903078,-1.005388,-1.960720,2.278191,-9.055714
1790543664.2444,0.028852,-0.016339,-0.211516,0.024985,-0.011655,-0.211516,0.843350,-0.372498,-1.191152,-0.235960,2.055111,-7.386832
1790543664.2579,0.035771,-0.018931,-0.247535,0.032535,-0.016748,-0.247535,0.389261,-0.380997,-1.114661,-0.197632,3.430771,-6.688231
1790543664.2720,0.043199,-0.026240,-0.270238,0.040000,-0.023393,-0.270238,0.525245,-0.385853,-1.129230,-0.427600,1.646131,-7.309210
1790543664.2863,0.030566,-0.031530,-0.295866,0.033396,-0.029089,-0.295866,0.392904,1.057762,-1.016315,-1.462456,3.319231,-13.441378
1790543664.3002,0.011033,-0.018142,-0.309683,0.017742,-0.021426,-0.309683,-1.024000,1.532491,-0.948323,-0.197632,1.423051,-12.005364
1790543664.3141,0.011942,-0.002750,-0.271613,0.013682,-0.008352,-0.271613,-1.314180,0.331705,-0.801412,-5.256926,-1.142369,-10.608161
1790543664.3281,-0.002522,0.012357,-0.263792,0.002339,0.006144,-0.263792,-1.281398,1.255667,-0.712780,-1.117504,-0.659029,-7.192776
1790543664.3420,-0.010833,0.026503,-0.257805,-0.006881,0.020395,-0.257805,-1.200051,1.028622,-0.672713,-0.925864,-0.175689,-1.875644
1790543664.3558,-0.011471,0.034831,-0.278919,-0.010094,0.030500,-0.278919,-0.498277,0.460404,-0.871832,-2.305671,2.017931,-5.407462
1790543664.3698,0.008584,0.018854,-0.273947,0.002981,0.022348,-0.273947,0.962336,-1.334098,-0.372820,-1.769080,-1.551348,-16.934385
1790543664.3837,-0.002863,0.020219,-0.282062,-0.001110,0.020858,-0.282062,-0.062400,0.512612,0.307100,5.704877,3.021791,-13.713056
1790543664.3977,-0.002618,0.011735,-0.266899,-0.002166,0.014472,-0.266899,0.497320,-0.107815,0.560855,-0.312616,-0.138509,-12.859210
1790543664.4115,-0.008274,0.005857,-0.263969,-0.006441,0.008441,-0.263969,0.412330,0.177509,0.537787,1.757095,1.088431,-8.395923
1790543664.4255,-0.013609,-0.000886,-0.264278,-0.011459,0.001912,-0.264278,0.493677,0.162939,0.424871,2.140375,1.497411,-9.210958
1790543664.4395,-0.036744,-0.013394,-0.259678,-0.029158,-0.008802,-0.259678,0.888274,1.381938,0.855892,2.485326,1.199971,-9.133336
1790543664.4535,-0.047758,-0.026957,-0.246184,-0.042178,-0.021510,-0.246184,0.940482,0.732372,0.870462,-0.619240,1.311511,-11.539630
1790543664.4671,-0.059337,-0.032737,-0.244752,-0.054190,-0.029369,-0.244752,0.524031,0.745727,0.994304,0.223975,3.244871,-10.336483
1790543664.4808,-0.062328,-0.035393,-0.235757,-0.059887,-0.033586,-0.235757,0.254491,0.210291,1.048940,-1.232488,2.575631,-9.405014
1790543664.4946,-0.056473,-0.035885,-0.225294,-0.057497,-0.035195,-0.225294,0.078441,-0.516980,1.103577,-0.197632,2.501271,-9.831937
1790543664.5086,-0.050885,-0.033357,-0.203368,-0.052869,-0.033908,-0.203368,-0.306442,-0.572831,0.978520,1.412143,-0.138509,-12.898021
1790543664.5229,-0.047582,-0.032521,-0.175324,-0.049168,-0.032937,-0.175324,-0.255448,-0.469629,0.865605,3.136902,-1.848788,-13.130889
1790543664.5375,-0.041923,-0.026612,-0.154992,-0.044097,-0.028510,-0.154992,-0.600265,-0.762237,0.795185,3.596838,-1.291089,-6.998721
1790543664.5517,-0.034878,-0.016137,-0.140011,-0.037643,-0.019849,-0.140011,-0.875875,-0.753738,0.664057,2.370342,-0.510309,-8.473546
1790543664.5658,-0.026535,-0.006446,-0.122457,-0.029867,-0.010467,-0.122457,-0.900158,-0.935860,0.740548,2.332014,-1.105189,-6.028441
1790543664.5797,-0.019028,0.003925,-0.108970,-0.022280,-0.000392,-0.108970,-0.883160,-0.778021,0.564498,2.140375,-0.510309,-9.327392
1790543664.5937,-0.007655,0.018004,-0.105922,-0.012043,0.012485,-0.105922,-1.087136,-1.045132,0.372663,2.561982,0.344831,-11.112707
1790543664.6077,-0.003065,0.027905,-0.108593,-0.005758,0.023279,-0.108593,-0.795741,-0.496340,-0.006149,2.791950,0.456371,-12.044175
1790543664.6217,-0.009921,0.023135,-0.111713,-0.008672,0.023178,-0.111713,0.255706,0.535681,-0.539157,1.143847,0.865351,-12.898021
1790543664.6357,-0.004274,0.007574,-0.115368,-0.005594,0.012255,-0.115368,1.115318,-0.145453,-0.836622,-1.999048,2.055111,-10.220049
1790543664.6496,0.002094,0.016157,-0.228338,-0.000212,0.014987,-0.228338,-0.039331,-0.350643,-0.363107,-0.964192,5.364131,-3.428091
1790543664.6635,0.004072,0.005823,-0.218461,0.002787,0.008572,-0.218461,0.667300,-0.236514,-0.241693,2.217030,0.828171,-11.927742
1790543664.6773,0.022507,-0.005519,-0.220359,0.016591,-0.001292,-0.220359,0.839708,-1.103411,-0.723707,-2.842263,2.501271,-11.423196
1790543664.6909,0.029746,-0.015052,-0.248798,0.025799,-0.010924,-0.248798,0.819068,-0.354285,-1.051525,-0.810880,2.873071,-7.542077
1790543664.7045,0.037358,-0.021260,-0.277282,0.033890,-0.018159,-0.277282,0.660015,-0.410136,-1.098877,-0.350944,2.575631,-4.670049
1790543664.7181,0.042412,-0.028159,-0.289501,0.039855,-0.025159,-0.289501,0.473037,-0.328788,-0.921612,0.338959,1.088431,-7.192776
1790543664.7320,0.056258,-0.043593,-0.278454,0.051337,-0.038063,-0.278454,0.935625,-0.872724,-0.845121,-1.079176,-0.473129,-9.133336
1790543664.7459,0.033907,-0.042472,-0.294561,0.039136,-0.041149,-0.294561,-0.096396,1.627194,-0.671499,0.798895,3.542311,-21.281238
1790543664.7598,0.026427,-0.023776,-0.268450,0.030240,-0.028988,-0.268450,-1.435594,0.916921,-0.653287,-6.675061,1.051251,-11.966553
1790543664.7738,0.026698,-0.008642,-0.231208,0.027760,-0.014746,-0.231208,-1.303253,0.385127,-0.641145,-5.831846,-1.402628,-9.793126
1790543664.7880,0.013575,0.008864,-0.232259,0.017831,0.001781,-0.232259,-1.332392,1.207101,-0.656929,-1.577440,0.233291,-4.980539
1790543664.8020,-0.000975,0.022055,-0.233465,0.004667,0.015973,-0.233465,-1.155127,1.038336,-0.508804,0.300631,-0.250049,-1.992077
1790543664.8160,-0.007793,0.033575,-0.247680,-0.004055,0.028294,-0.247680,-0.839451,1.034693,-0.689711,-2.420655,0.493551,-2.845923
1790543664.8300,-0.003092,0.027891,-0.244453,-0.003381,0.028012,-0.244453,0.255706,-0.141811,-0.499091,-3.723807,-0.919289,-21.281238
1790543664.8440,0.000594,0.023309,-0.246062,-0.000598,0.024720,-0.246062,0.346766,-0.349429,0.134691,1.067191,3.282051,-16.429840
1790543664.8581,-0.002816,0.028266,-0.247918,-0.002151,0.027202,-0.247918,-0.242093,0.091305,0.570568,0.683911,3.802571,-10.957462
1790543664.8720,-0.006313,0.023041,-0.237092,-0.005065,0.024290,-0.237092,0.237493,0.000244,0.797613,1.335487,-0.510309,-8.551168
1790543664.8860,-0.018290,0.010698,-0.238236,-0.014322,0.014776,-0.238236,0.889488,0.760297,0.318027,0.722239,1.534591,-8.900469
1790543664.9000,-0.038631,0.000046,-0.250435,-0.031338,0.004465,-0.250435,0.771716,1.177962,0.490435,3.251886,1.385871,-8.706413
1790543664.9139,-0.049556,-0.012351,-0.246681,-0.044091,-0.007306,-0.246681,0.961122,0.725087,0.722336,-0.312616,2.538451,-9.055714
1790543664.9275,-0.062315,-0.022578,-0.238003,-0.056847,-0.017996,-0.238003,0.745005,0.785794,0.982163,0.875551,1.757671,-10.491728
1790543664.9412,-0.072977,-0.027699,-0.231635,-0.068138,-0.024788,-0.231635,0.414758,0.659523,1.001589,0.530599,2.798711,-10.918651
1790543664.9552,-0.063882,-0.032125,-0.210364,-0.065159,-0.029924,-0.210364,0.196213,-0.741597,0.943310,0.032335,0.233291,-12.005364
1790543664.9691,-0.057916,-0.030750,-0.195362,-0.060089,-0.030502,-0.195362,-0.185028,-0.542477,0.790328,0.645583,0.493551,-10.763406
1790543664.9830,-0.050835,-0.030014,-0.172889,-0.053611,-0.030161,-0.172889,-0.236022,-0.629896,0.789114,0.683911,-1.216729,-11.229140
1790543664.9969,-0.047638,-0.030147,-0.164540,-0.049430,-0.030151,-0.164540,-0.168030,-0.514552,0.747833,2.983590,-1.216729,-8.822846
1790543665.0108,-0.040151,-0.020091,-0.166863,-0.042935,-0.023109,-0.166863,-0.771459,-0.843585,0.708981,2.753622,0.493551,-7.658511
1790543665.0248,-0.031616,-0.006760,-0.162819,-0.035012,-0.011665,-0.162819,-1.048283,-0.922504,0.596065,3.596838,-0.064149,-9.482637
1790543665.0391,-0.020681,0.010958,-0.160250,-0.024981,0.004171,-0.160250,-1.310538,-1.032991,0.407873,3.136902,0.456371,-9.870749
1790543665.0531,-0.006320,0.029265,-0.161042,-0.011918,0.021737,-0.161042,-1.350604,-1.292817,0.260962,2.561982,0.790991,-8.163056
1790543665.0670,-0.007705,0.038252,-0.157059,-0.008969,0.033297,-0.157059,-0.716822,-0.030110,0.117693,2.523654,1.237151,-15.575993
1790543665.0810,-0.015701,0.032350,-0.153516,-0.013681,0.032634,-0.153516,0.388047,0.794293,-0.565869,-2.343999,2.426911,-15.032637
1790543665.0948,-0.005087,0.024298,-0.149509,-0.007666,0.026799,-0.149509,0.553170,-0.385853,-1.171725,-4.183743,2.538451,-14.760958
1790543665.1087,-0.007201,0.024874,-0.187912,-0.007340,0.025451,-0.187912,0.123364,0.240644,-0.840265,0.453943,2.835891,-6.300119
1790543665.1226,-0.001188,0.019970,-0.179708,-0.003033,0.021614,-0.179708,0.305485,-0.274152,-0.388604,-1.270816,0.976891,-7.969000
1790543665.1364,0.014765,0.005339,-0.162649,0.009426,0.010222,-0.162649,0.931983,-0.831443,-0.883974,-3.685479,0.196111,-11.850119
1790543665.1504,0.035621,-0.008477,-0.182552,0.027762,-0.002867,-0.182552,1.114104,-1.193258,-1.057596,-2.765607,3.505131,-8.046623
1790543665.1640,0.042537,-0.011783,-0.245814,0.038105,-0.009108,-0.245814,0.596880,-0.417421,-1.087950,0.108991,4.397451,-4.553616
1790543665.1776,0.046910,-0.018114,-0.266837,0.044269,-0.015412,-0.266837,0.469395,-0.147881,-1.155942,-0.695896,1.794851,-7.192776
1790543665.1915,0.051093,-0.024208,-0.293409,0.049046,-0.021569,-0.293409,0.509461,-0.163665,-1.145014,-0.465928,3.096151,-8.395923
1790543665.2055,0.036248,-0.030665,-0.298283,0.040088,-0.027936,-0.298283,0.277560,1.131824,-1.114661,1.105519,-0.435949,-14.722147
1790543665.2194,0.028716,-0.019830,-0.302208,0.032127,-0.022262,-0.302208,-0.847950,0.784580,-0.796556,-4.605350,1.906391,-17.477742
1790543665.2333,0.028009,-0.007743,-0.262305,0.029245,-0.012099,-0.262305,-1.087136,0.479830,-0.590151,-6.521750,-1.774428,-9.482637
1790543665.2473,0.021772,0.005652,-0.254684,0.024014,0.000326,-0.254684,-1.140558,0.772438,-0.432313,-2.803935,-0.696209,-5.873196
1790543665.2612,0.004873,0.025336,-0.275201,0.010615,0.017833,-0.275201,-1.305681,1.293305,-0.530658,0.108991,2.947431,-7.309210
1790543665.2752,-0.005067,0.036424,-0.288841,-0.000362,0.030847,-0.288841,-0.732606,1.041978,-0.778343,-2.037376,2.203831,-6.571797
1790543665.2895,0.011131,0.028430,-0.290580,0.007683,0.029155,-0.290580,0.398974,-0.972284,-0.689711,-1.999048,-1.179549,-18.797322
1790543665.3036,0.003706,0.029791,-0.306729,0.004899,0.029600,-0.306729,0.031089,0.314707,0.206326,4.056774,5.624391,-14.023546
1790543665.3175,-0.001805,0.027533,-0.296607,0.000206,0.028153,-0.296607,0.076013,0.281925,0.539001,0.262303,0.382011,-13.053266
1790543665.3314,-0.004306,0.022609,-0.292837,-0.002952,0.024272,-0.292837,0.358908,-0.096887,0.755118,1.833751,1.385871,-8.589979
1790543665.3453,-0.007866,0.012973,-0.279604,-0.006392,0.016363,-0.279604,0.589595,0.155654,0.558427,0.032335,-0.064149,-8.589979
1790543665.3592,-0.028623,0.001872,-0.279917,-0.021954,0.006219,-0.279917,0.800855,1.241097,0.785472,2.140375,1.423051,-9.133336
1790543665.3733,-0.038479,-0.010055,-0.264985,-0.033522,-0.005173,-0.264985,0.838494,0.676521,0.830395,-1.347472,1.571771,-10.918651
1790543665.3869,-0.052067,-0.018046,-0.262883,-0.046503,-0.014184,-0.262883,0.663657,0.797935,0.994304,1.143847,2.389731,-8.085434
1790543665.4004,-0.061498,-0.026784,-0.248927,-0.057000,-0.023004,-0.248927,0.624805,0.613386,1.033157,-0.274288,1.571771,-10.569350
1790543665.4143,-0.061685,-0.031612,-0.235793,-0.060280,-0.029030,-0.235793,0.351623,-0.054392,0.967593,-0.465928,2.166651,-10.802217
1790543665.4283,-0.052798,-0.031611,-0.220880,-0.055042,-0.030837,-0.220880,-0.072113,-0.742811,0.831609,0.415615,0.790991,-12.432287
1790543665.4423,-0.047680,-0.027311,-0.211332,-0.049889,-0.028368,-0.211332,-0.437570,-0.610469,0.693197,3.175230,-0.621849,-11.112707
1790543665.4564,-0.043742,-0.022275,-0.203428,-0.045586,-0.024103,-0.203428,-0.521345,-0.614112,0.700482,4.095102,-1.179549,-9.210958
1790543665.4704,-0.037265,-0.013138,-0.199707,-0.039761,-0.016427,-0.199707,-0.761745,-0.803518,0.633704,3.520182,-0.287229,-7.813756
1790543665.4843,-0.025580,-0.000572,-0.194024,-0.029834,-0.005329,-0.194024,-0.957222,-1.058488,0.509861,1.757095,0.493551,-7.658511
1790543665.4982,-0.017996,0.013050,-0.192640,-0.021547,0.007537,-0.192640,-1.062853,-0.833872,0.298601,3.366870,0.233291,-8.784035
1790543665.5122,-0.004957,0.027865,-0.195052,-0.009934,0.021767,-0.195052,-1.073780,-1.132551,0.173544,2.178703,1.348691,-9.366203
1790543665.5265,-0.002109,0.036251,-0.190901,-0.004456,0.031906,-0.190901,-0.675541,-0.342144,-0.035288,2.983590,0.530731,-12.898021
1790543665.5409,-0.007591,0.031659,-0.193718,-0.006651,0.031733,-0.193718,0.236279,0.502899,-0.694568,0.338959,1.237151,-15.187882
1790543665.5549,0.001451,0.021327,-0.187693,-0.000979,0.024449,-0.187693,0.681869,-0.259582,-1.154727,-2.688951,1.199971,-8.628791
1790543665.5690,0.007517,0.022068,-0.270833,0.004968,0.022782,-0.270833,0.412330,-0.427134,-0.801412,0.837223,4.620531,-3.505713
1790543665.5830,0.008733,0.010698,-0.277501,0.007604,0.014323,-0.277501,0.798427,-0.158809,-0.438384,1.335487,1.051251,-6.222497
1790543665.5970,0.027698,-0.004420,-0.283393,0.021670,0.001203,-0.283393,1.120175,-1.073058,-0.919184,-3.263871,2.910251,-10.491728
1790543665.6107,0.039764,-0.015885,-0.312621,0.034336,-0.010759,-0.312621,0.944124,-0.723385,-1.193580,-0.504256,3.244871,-8.240679
1790543665.6243,0.046990,-0.024720,-0.337664,0.043194,-0.020531,-0.337664,0.655158,-0.396780,-1.272499,-0.159304,2.092291,-8.357112
1790543665.6381,0.050525,-0.033855,-0.343534,0.048326,-0.029858,-0.343534,0.525245,-0.170950,-1.101305,0.108991,0.270471,-8.551168
1790543665.6517,0.046967,-0.047711,-0.344289,0.047375,-0.042355,-0.344289,0.889488,0.354774,-0.789271,-0.810880,0.010211,-12.665154
1790543665.6656,0.032206,-0.044112,-0.358152,0.036757,-0.043585,-0.358152,-0.301586,1.109970,-0.775915,0.147319,2.426911,-19.884036
1790543665.6795,0.035556,-0.031454,-0.319277,0.035916,-0.035093,-0.319277,-1.122346,0.111945,-0.710351,-6.061814,-1.439808,-11.500819
1790543665.6935,0.037571,-0.016826,-0.290571,0.037074,-0.022306,-0.290571,-1.300825,0.203006,-0.664214,-4.222071,-1.811608,-8.279490
1790543665.7074,0.025087,0.003604,-0.294137,0.028683,-0.004169,-0.294137,-1.564293,1.077188,-0.666642,-1.002520,0.456371,-6.377742
1790543665.7214,0.018927,0.022571,-0.305674,0.021854,0.014549,-0.305674,-1.557009,1.044406,-0.701852,-4.068759,-0.844929,-3.117602
1790543665.7353,0.006348,0.037207,-0.306410,0.011000,0.030410,-0.306410,-1.181839,1.311517,-0.656929,-1.960720,0.047391,-4.010259
1790543665.7492,0.006274,0.037557,-0.321373,0.007692,0.035413,-0.321373,0.025019,0.116802,-0.706709,0.108991,2.984611,-9.637881
1790543665.7633,0.007652,0.031689,-0.321390,0.007664,0.032806,-0.321390,0.430542,-0.155166,0.133477,0.300631,3.058971,-15.226693
1790543665.7772,-0.002284,0.035807,-0.319822,0.000701,0.034907,-0.319822,-0.220238,0.585461,0.593637,0.262303,2.724351,-9.016902
1790543665.7915,-0.001864,0.030160,-0.304678,-0.001094,0.031584,-0.304678,0.294558,-0.028895,0.530502,-1.999048,0.047391,-11.073895
1790543665.8055,-0.005435,0.024758,-0.309329,-0.004133,0.026806,-0.309329,0.426900,0.065808,0.422443,1.220503,1.646131,-7.076343
1790543665.8195,-0.021034,0.009783,-0.313908,-0.015964,0.014890,-0.313908,1.075252,0.888996,0.579067,1.527127,1.088431,-6.649420
1790543665.8335,-0.036369,0.000011,-0.316036,-0.030248,0.004474,-0.316036,0.755932,0.898709,0.690769,1.757095,2.575631,-9.948371
1790543665.8471,-0.049545,-0.008523,-0.309953,-0.043756,-0.004624,-0.309953,0.681869,0.867141,0.834037,0.185647,2.835891,-11.112707
1790543665.8607,-0.060196,-0.014170,-0.305316,-0.055264,-0.011306,-0.305316,0.493677,0.640097,0.934811,0.683911,3.096151,-9.793126
1790543665.8746,-0.058776,-0.019356,-0.294680,-0.057723,-0.016941,-0.294680,0.431756,-0.111457,0.790328,-1.309144,3.021791,-10.220049
1790543665.8885,-0.049596,-0.021385,-0.282383,-0.052034,-0.020052,-0.282383,0.105152,-0.820516,0.854678,1.105519,1.460231,-12.238231
1790543665.9025,-0.042631,-0.018380,-0.270184,-0.045452,-0.018881,-0.270184,-0.304014,-0.672391,0.727193,1.527127,0.270471,-10.957462
1790543665.9164,-0.039687,-0.016828,-0.260336,-0.041416,-0.017444,-0.260336,-0.248163,-0.561904,0.801255,3.865134,-0.696209,-8.784035
1790543665.9303,-0.034121,-0.009892,-0.250021,-0.036310,-0.012157,-0.250021,-0.641545,-0.775593,0.768474,3.558510,-0.696209,-7.348021
1790543665.9443,-0.027306,-0.000072,-0.238939,-0.030007,-0.003698,-0.238939,-0.827309,-0.767094,0.625205,2.945262,-0.435949,-9.443825
1790543665.9582,-0.017608,0.013132,-0.232757,-0.021328,0.008083,-0.232757,-1.040998,-0.938288,0.398160,2.868606,0.121751,-10.414105
1790543665.9721,-0.005576,0.030846,-0.238378,-0.010302,0.024017,-0.238378,-1.293540,-1.111910,0.138334,2.906934,1.125611,-8.745224
1790543665.9860,0.006252,0.048204,-0.244459,0.001286,0.040948,-0.244459,-1.275328,-1.083985,-0.053501,2.830278,1.125611,-8.046623
1790543665.9999,-0.004274,0.047383,-0.249207,-0.002606,0.045452,-0.249207,-0.029618,0.677735,-0.346109,3.673494,1.014071,-14.023546
1790543666.0139,-0.005578,0.034432,-0.245964,-0.004687,0.037738,-0.245964,0.874918,0.472545,-1.029671,-4.107087,2.241011,-14.217602
1790543666.0281,0.010206,0.025698,-0.265619,0.005738,0.029310,-0.265619,0.793571,-0.805946,-0.868190,-2.765607,4.211551,-7.619700
1790543666.0423,0.009264,0.022040,-0.278621,0.008206,0.024221,-0.278621,0.219281,-0.087174,-0.433527,3.175230,1.014071,-8.473546
1790543666.0565,0.022691,0.009166,-0.256677,0.018346,0.013683,-0.256677,0.740148,-0.666320,-0.756489,-3.225543,-0.510309,-10.879840
1790543666.0704,0.040241,-0.006295,-0.265326,0.033672,-0.000302,-0.265326,1.116532,-1.003851,-0.964107,-2.995575,2.612811,-11.267951
1790543666.0840,0.046969,-0.015082,-0.316680,0.042980,-0.010648,-0.316680,0.863991,-0.455059,-1.073380,0.568927,3.282051,-5.407462
1790543666.0976,0.054029,-0.019848,-0.347658,0.050715,-0.017088,-0.347658,0.485178,-0.342144,-1.083093,-0.925864,2.984611,-6.300119
1790543666.1116,0.060617,-0.027308,-0.371514,0.057646,-0.024242,-0.371514,0.558027,-0.372498,-1.036956,-0.235960,2.166651,-7.697322
1790543666.1256,0.045309,-0.037449,-0.373618,0.049010,-0.033487,-0.373618,0.590809,0.989770,-0.984748,5.206613,0.828171,-15.614805
1790543666.1401,0.038180,-0.029189,-0.367214,0.041429,-0.030478,-0.367214,-0.673113,0.838002,-0.851192,-8.208181,1.125611,-16.391028
1790543666.1557,0.028163,-0.015737,-0.340878,0.032143,-0.020159,-0.340878,-1.096849,0.878069,-0.474808,-3.225543,-2.034688,-9.016902
1790543666.1707,0.023469,0.002903,-0.335261,0.026071,-0.004016,-0.335261,-1.350604,0.609743,-0.469951,-2.650623,0.121751,-5.834385
1790543666.1852,0.017290,0.022421,-0.331280,0.019924,0.014490,-0.331280,-1.489017,0.702018,-0.518517,-1.845736,-0.138509,-5.291028
1790543666.1999,0.004391,0.034937,-0.335498,0.009051,0.028803,-0.335498,-0.940224,1.043192,-0.545228,-0.810880,0.605091,-7.774944
1790543666.2145,0.010306,0.034696,-0.328821,0.009930,0.032928,-0.328821,-0.137676,-0.237728,-0.278117,-3.915447,-1.105189,-17.012007
1790543666.2285,0.009607,0.033993,-0.325613,0.009704,0.033673,-0.325613,0.022590,-0.048322,0.308314,0.453943,1.646131,-12.898021
1790543666.2426,0.003282,0.033405,-0.322189,0.005209,0.033486,-0.322189,0.035946,0.254000,0.665272,1.297159,1.943571,-13.092077
1790543666.2565,0.005679,0.026593,-0.305756,0.005538,0.028661,-0.305756,0.397760,-0.094459,0.432156,-1.884064,0.121751,-6.688231
1790543666.2706,-0.002992,0.018926,-0.320060,-0.000433,0.021847,-0.320060,0.537387,0.362058,0.446726,2.523654,1.162791,-9.094525
1790543666.2848,-0.016836,0.007225,-0.325979,-0.011915,0.011611,-0.325979,0.857920,0.773653,0.581496,1.718767,1.869211,-9.288581
1790543666.2989,-0.030441,-0.001742,-0.327464,-0.024883,0.002264,-0.327464,0.747433,0.804006,0.855892,0.568927,3.133331,-9.016902
1790543666.3126,-0.043723,-0.007056,-0.326603,-0.038071,-0.004260,-0.326603,0.510675,0.823432,0.985805,0.300631,3.430771,-9.133336
1790543666.3263,-0.045628,-0.012393,-0.311206,-0.043361,-0.009953,-0.311206,0.386833,0.063379,0.997946,-0.849208,1.906391,-10.491728
1790543666.3402,-0.051822,-0.017487,-0.297863,-0.049284,-0.015227,-0.297863,0.320055,0.319563,0.923884,0.300631,0.902531,-8.628791
1790543666.3542,-0.054519,-0.021612,-0.285608,-0.052948,-0.019697,-0.285608,0.278774,0.096161,0.876532,0.032335,1.534591,-9.909560
1790543666.3682,-0.051545,-0.021937,-0.279331,-0.051966,-0.021265,-0.279331,0.052944,-0.340930,0.759975,0.990535,3.096151,-13.829490
1790543666.3821,-0.035187,-0.015538,-0.270193,-0.040221,-0.017256,-0.270193,-0.473994,-1.289175,0.589995,0.722239,1.980751,-13.713056
1790543666.3959,-0.027923,-0.005226,-0.269868,-0.031612,-0.008835,-0.269868,-0.867376,-0.926146,0.608207,5.934845,-0.807749,-10.491728
1790543666.4099,-0.022309,0.009290,-0.268329,-0.025100,0.003852,-0.268329,-1.174554,-0.872724,0.468581,4.593365,-0.770569,-5.601518
1790543666.4240,-0.005180,0.025516,-0.265976,-0.011156,0.019017,-0.265976,-1.183053,-1.445799,0.301029,1.565455,0.716631,-6.300119
1790543666.4386,0.007383,0.042174,-0.277664,0.001821,0.035227,-0.277664,-1.020358,-1.165332,0.451583,1.872079,2.055111,-5.601518
1790543666.4528,0.000627,0.035698,-0.278341,0.000985,0.035557,-0.278341,0.396546,0.375414,-0.115422,3.213558,1.608951,-15.964105
1790543666.4669,-0.003478,0.027048,-0.298706,-0.002139,0.029600,-0.298706,0.698867,0.397269,-0.591366,-0.159304,5.550031,-16.546273
1790543666.4809,0.004880,0.027682,-0.311691,0.002774,0.028258,-0.311691,-0.075755,-0.414993,-1.084307,-0.159304,2.426911,-14.528091
1790543666.4949,0.006710,0.022949,-0.317948,0.005529,0.024541,-0.317948,0.256920,-0.174592,-0.858477,2.791950,0.753811,-8.939280
1790543666.5088,0.014949,0.011906,-0.318549,0.012123,0.015696,-0.318549,0.786286,-0.389496,-0.568297,-1.845736,1.571771,-8.357112
1790543666.5228,0.025011,-0.001935,-0.327976,0.021144,0.003354,-0.327976,0.961122,-0.575259,-0.836622,-0.695896,1.423051,-9.172147
1790543666.5368,0.036291,-0.013258,-0.356569,0.031747,-0.008274,-0.356569,0.876132,-0.594686,-1.287069,-0.810880,2.352551,-6.882287
1790543666.5511,0.042373,-0.019965,-0.384275,0.039185,-0.016458,-0.384275,0.476679,-0.417421,-1.327136,1.872079,2.129471,-8.201867
1790543666.5653,0.047323,-0.025220,-0.408209,0.044882,-0.022592,-0.408209,0.350409,-0.197661,-1.237289,-0.389272,1.497411,-6.998721
1790543666.5794,0.035934,-0.029480,-0.437903,0.038619,-0.027413,-0.437903,0.351623,0.967915,-1.111018,-0.849208,3.244871,-10.220049
1790543666.5935,0.028413,-0.024308,-0.443430,0.031475,-0.025240,-0.443430,-0.452139,0.801578,-1.002960,-4.183743,1.385871,-14.838581
1790543666.6075,0.025830,-0.015145,-0.431484,0.027523,-0.018173,-0.431484,-0.849164,0.459190,-0.960465,-3.608823,-0.956469,-13.014455
1790543666.6214,0.025376,-0.009079,-0.389442,0.026020,-0.011807,-0.389442,-0.771459,0.399697,-0.790485,-3.302199,-2.332128,-6.882287
1790543666.6355,0.016804,0.007425,-0.388185,0.019569,0.001655,-0.388185,-1.272899,0.880497,-0.598650,-1.845736,0.307651,-5.756762
1790543666.6495,0.006488,0.024782,-0.388619,0.010412,0.017844,-0.388619,-1.345748,0.999483,-0.650858,-2.420655,0.382011,-9.366203
1790543666.6635,0.001972,0.037375,-0.388400,0.004504,0.031516,-0.388400,-1.042212,0.629170,-0.704281,-3.608823,0.010211,-12.509909
1790543666.6775,0.009016,0.030979,-0.395355,0.007662,0.031140,-0.395355,0.369835,-0.575259,-0.292687,2.255358,0.605091,-13.751868
1790543666.6913,-0.007118,0.023045,-0.408462,-0.002684,0.025473,-0.408462,0.649088,0.830717,0.801255,4.631693,3.616671,-13.945924
1790543666.7052,-0.011652,0.015501,-0.393780,-0.008962,0.018493,-0.393780,0.584738,0.363273,0.843750,-2.114032,1.608951,-6.688231
1790543666.7192,-0.010862,0.009699,-0.391905,-0.010292,0.012337,-0.391905,0.545886,0.063379,0.435799,-3.072231,3.356411,-8.395923
1790543666.7330,-0.019636,0.005593,-0.392036,-0.016833,0.007616,-0.392036,0.272704,0.485901,0.341096,1.258831,0.865351,-7.619700
1790543666.7468,-0.031864,-0.007132,-0.394337,-0.027355,-0.002708,-0.394337,0.913771,0.675307,0.478294,2.676966,1.460231,-10.802217
1790543666.7608,-0.048577,-0.018997,-0.402595,-0.042210,-0.014110,-0.402595,0.973264,0.955774,0.790328,2.025391,2.612811,-7.309210
1790543666.7744,-0.064845,-0.022712,-0.410254,-0.058055,-0.020132,-0.410254,0.475465,1.050477,0.899601,0.683911,3.876931,-7.231588
1790543666.7883,-0.069032,-0.030141,-0.401132,-0.065739,-0.027138,-0.401132,0.562884,0.234573,0.972450,-0.350944,2.092291,-8.628791
1790543666.8028,-0.070726,-0.038688,-0.394572,-0.069230,-0.035223,-0.394572,0.644231,0.077949,0.818253,-0.619240,3.505131,-12.626343
1790543666.8168,-0.062373,-0.040638,-0.373850,-0.064430,-0.039013,-0.373850,0.005592,-0.700316,0.882603,0.568927,-0.361589,-14.372847
1790543666.8308,-0.054445,-0.035990,-0.354741,-0.057440,-0.036897,-0.354741,-0.465495,-0.809589,0.761189,3.443526,-0.584669,-11.500819
1790543666.8447,-0.048781,-0.029101,-0.330578,-0.051379,-0.031440,-0.330578,-0.698610,-0.700316,0.762403,3.405198,-1.514168,-9.094525
1790543666.8586,-0.039842,-0.019681,-0.313769,-0.043303,-0.023209,-0.313769,-0.857663,-0.957714,0.580282,3.175230,-1.105189,-7.115154
1790543666.8726,-0.025695,-0.005762,-0.313061,-0.030977,-0.010996,-0.313061,-1.036142,-1.315886,0.421229,3.558510,0.605091,-8.512357
1790543666.8866,-0.015443,0.013112,-0.318348,-0.020103,0.005880,-0.318348,-1.342105,-1.076700,0.332597,4.171758,1.311511,-8.318301
1790543666.9005,0.000673,0.033017,-0.315290,-0.005560,0.024876,-0.315290,-1.456235,-1.510149,0.258534,3.520182,0.865351,-7.153965
1790543666.9145,-0.004212,0.033894,-0.292499,-0.004617,0.031189,-0.292499,-0.276089,0.255214,-0.085068,3.060246,-1.811608,-15.226693
1790543666.9286,-0.013476,0.024596,-0.311773,-0.010818,0.026574,-0.311773,0.763217,0.899923,-0.639931,-2.229015,3.839751,-10.646972
1790543666.9426,-0.001635,0.023628,-0.327021,-0.004390,0.024512,-0.327021,0.154932,-0.468415,-1.072166,-3.685479,3.430771,-9.637881
1790543666.9564,-0.000681,0.024427,-0.360653,-0.001794,0.024453,-0.360653,0.088154,-0.100530,-0.739491,1.527127,2.501271,-5.950818
1790543666.9704,0.003230,0.015096,-0.354821,0.001723,0.017903,-0.354821,0.596880,-0.072604,-0.519731,-1.539112,0.642271,-7.153965
1790543666.9843,0.014377,0.001157,-0.360161,0.010581,0.006181,-0.360161,0.956266,-0.566760,-0.897329,-1.960720,1.423051,-10.491728
1790543666.9980,0.026231,-0.010542,-0.389705,0.021536,-0.005525,-0.389705,0.974478,-0.775593,-1.021172,0.223975,3.170511,-8.551168
1790543667.0116,0.031575,-0.014950,-0.427212,0.028564,-0.012122,-0.427212,0.528888,-0.262011,-1.051525,-0.197632,3.430771,-6.106063
1790543667.0256,0.032917,-0.019151,-0.452120,0.031611,-0.017042,-0.452120,0.346766,-0.011897,-1.077022,0.492271,2.724351,-9.288581
1790543667.0397,0.040365,-0.022741,-0.477972,0.037739,-0.021032,-0.477972,0.345552,-0.384639,-0.966535,-0.887536,3.356411,-9.366203
1790543667.0544,0.018642,-0.023339,-0.464094,0.024371,-0.022647,-0.464094,-0.195955,1.519136,-0.962893,1.872079,-1.662888,-13.169700
1790543667.0684,0.016335,-0.011485,-0.460618,0.018746,-0.014834,-0.460618,-0.969364,0.482258,-0.873046,-5.486894,0.233291,-14.683336
1790543667.0824,0.011250,0.004749,-0.454520,0.013499,-0.001126,-0.454520,-1.303253,0.648596,-0.721279,-3.110559,-0.212869,-9.676693
1790543667.0965,0.007504,0.016214,-0.435678,0.009302,0.011012,-0.435678,-1.053140,0.625527,-0.636289,-3.187215,-1.365448,-6.727042
1790543667.1107,-0.005543,0.029699,-0.457211,-0.001090,0.024093,-0.457211,-0.874661,1.031051,-0.675141,0.108991,1.311511,-3.816203
1790543667.1246,-0.011839,0.041177,-0.476376,-0.008615,0.036051,-0.476376,-0.720465,0.695947,-0.639931,-1.079176,1.980751,-5.135783
1790543667.1386,0.000935,0.031033,-0.468946,-0.001930,0.032538,-0.468946,0.657587,-0.910363,-0.053501,-0.695896,1.683311,-21.281238
1790543667.1525,-0.007885,0.027736,-0.468948,-0.006099,0.029176,-0.468948,0.299415,0.321992,0.621562,3.903462,2.947431,-11.035084
1790543667.1665,-0.009684,0.024883,-0.456166,-0.008608,0.026171,-0.456166,0.218067,-0.020396,0.938454,-0.427600,1.906391,-10.142427
1790543667.1804,-0.003193,0.014878,-0.429720,-0.004818,0.018266,-0.429720,0.542243,-0.368855,0.472223,-2.305671,-0.882109,-6.998721
1790543667.1944,-0.015839,0.005919,-0.427962,-0.012533,0.009623,-0.427962,0.632090,0.686234,0.494078,1.948735,1.051251,-7.891378
1790543667.2084,-0.033272,-0.008732,-0.421400,-0.027050,-0.003225,-0.421400,1.014544,1.092972,0.603350,1.527127,1.088431,-11.229140
1790543667.2220,-0.049178,-0.017820,-0.422411,-0.042539,-0.013442,-0.422411,0.758360,1.012839,0.861963,0.952207,2.835891,-9.366203
1790543667.2357,-0.059761,-0.024758,-0.418101,-0.054594,-0.021363,-0.418101,0.561669,0.706875,0.876532,-0.274288,2.724351,-10.685784
1790543667.2493,-0.062719,-0.031376,-0.409792,-0.060282,-0.028372,-0.409792,0.515532,0.122872,1.033157,-0.120976,2.464091,-10.530539
1790543667.2631,-0.055401,-0.032528,-0.394356,-0.056865,-0.031281,-0.394356,0.015305,-0.584972,0.795185,-0.389272,0.790991,-11.073895
1790543667.2770,-0.044686,-0.032664,-0.373634,-0.048340,-0.032249,-0.373634,-0.143747,-0.903078,0.659201,1.105519,-0.919289,-11.345574
1790543667.2909,-0.041308,-0.032282,-0.356845,-0.043418,-0.032272,-0.356845,-0.189885,-0.557047,0.755118,4.133430,-1.291089,-9.948371
1790543667.3055,-0.034538,-0.025564,-0.343433,-0.037202,-0.027577,-0.343433,-0.544414,-0.719742,0.807326,2.408670,0.047391,-8.512357
1790543667.3195,-0.028905,-0.018310,-0.328190,-0.031394,-0.021090,-0.328190,-0.625762,-0.583758,0.619134,1.718767,-0.250049,-9.909560
1790543667.3336,-0.019801,-0.005797,-0.325733,-0.023279,-0.010385,-0.325733,-0.934154,-0.873938,0.364164,2.676966,0.642271,-9.443825
1790543667.3476,-0.009156,0.010569,-0.331286,-0.013393,0.004283,-0.331286,-1.206121,-1.047561,0.118908,4.095102,0.716631,-9.249770
1790543667.3615,0.002762,0.028102,-0.340906,-0.002084,0.020956,-0.340906,-1.231618,-1.094912,0.003564,3.060246,1.608951,-8.318301
1790543667.3753,-0.003929,0.027235,-0.325814,-0.003376,0.025351,-0.325814,-0.154674,0.376628,-0.307256,3.060246,-1.402628,-10.375294
1790543667.3893,-0.015496,0.015763,-0.334633,-0.011860,0.018639,-0.334633,0.805712,1.091758,-0.834194,-2.573967,2.575631,-14.760958
1790543667.4033,0.003416,0.006261,-0.348140,-0.001167,0.009975,-0.348140,0.702510,-1.107054,-1.130445,-1.807408,2.464091,-11.384385
1790543667.4173,0.005824,0.000826,-0.390510,0.003726,0.003570,-0.390510,0.556813,-0.262011,-0.709137,2.255358,2.984611,-6.998721
1790543667.4313,0.014078,-0.012715,-0.392047,0.010972,-0.007829,-0.392047,0.874918,-0.472057,-0.825695,-0.350944,0.567911,-12.471098
1790543667.4452,0.031793,-0.028725,-0.411336,0.025547,-0.022456,-0.411336,1.185738,-1.082771,-1.092806,-1.769080,2.538451,-11.073895
1790543667.4588,0.044428,-0.036949,-0.447089,0.038764,-0.032601,-0.447089,0.707366,-0.786520,-1.280998,-0.427600,2.575631,-6.998721
1790543667.4725,0.047022,-0.044450,-0.480938,0.044545,-0.040896,-0.480938,0.635732,-0.118742,-1.181439,0.185647,2.055111,-5.950818
1790543667.4864,0.042264,-0.055532,-0.491101,0.042948,-0.051141,-0.491101,0.711009,0.470117,-0.930111,-1.385800,0.828171,-12.781588
1790543667.5003,0.026616,-0.053892,-0.502722,0.031516,-0.053067,-0.502722,-0.210525,1.221671,-1.005388,-0.657568,0.902531,-16.585084
1790543667.5143,0.031225,-0.045270,-0.487514,0.031312,-0.047609,-0.487514,-0.809097,-0.043465,-0.846335,-5.065286,-1.365448,-12.820399
1790543667.5283,0.034404,-0.032620,-0.470923,0.033476,-0.037117,-0.470923,-1.113847,0.132586,-0.809911,-4.337055,-1.142369,-8.007811
1790543667.5424,0.025131,-0.013435,-0.459844,0.027634,-0.020539,-0.459844,-1.599504,0.796721,-0.638717,-0.542584,-0.844929,-4.631238
1790543667.5571,0.018266,0.006313,-0.454189,0.021076,-0.001743,-0.454189,-1.557009,0.842859,-0.695782,-2.535639,-0.807749,-4.708860
1790543667.5712,0.001367,0.022384,-0.463407,0.007280,0.015146,-0.463407,-1.202479,1.446287,-0.817196,-1.615768,1.162791,-9.288581
1790543667.5853,-0.003854,0.031564,-0.472897,-0.000514,0.026639,-0.472897,-0.690111,0.585461,-0.834194,-1.884064,2.798711,-17.943476
1790543667.5992,0.000589,0.020930,-0.471785,0.000258,0.022643,-0.471785,0.685512,-0.279009,-0.302400,-0.044320,0.939711,-17.283686
1790543667.6133,-0.001274,0.024586,-0.472739,-0.000814,0.024003,-0.472739,-0.214167,0.093733,0.207540,-0.159304,2.538451,-10.258860
1790543667.6272,-0.003159,0.023882,-0.469597,-0.002456,0.023918,-0.469597,0.066299,-0.047107,0.582710,0.875551,1.423051,-7.813756
1790543667.6412,-0.002065,0.016914,-0.487942,-0.002182,0.019015,-0.487942,0.577453,-0.332431,0.223324,2.370342,1.869211,-6.843476
1790543667.6551,-0.018196,0.009381,-0.514206,-0.013392,0.012272,-0.514206,0.644231,0.780937,0.427300,4.708349,2.315371,-7.697322
1790543667.6690,-0.027945,-0.003396,-0.513494,-0.023579,0.001305,-0.513494,0.939268,0.546608,0.506219,1.527127,2.017931,-10.879840
1790543667.6827,-0.044163,-0.011296,-0.518007,-0.037988,-0.007516,-0.518007,0.664871,0.950917,0.785472,2.561982,2.873071,-10.181238
1790543667.6963,-0.054908,-0.012590,-0.526430,-0.049832,-0.011068,-0.526430,0.258134,0.635240,0.870462,0.798895,3.505131,-8.085434
1790543667.7098,-0.054207,-0.015984,-0.525817,-0.052895,-0.014509,-0.525817,0.360122,-0.119956,0.905672,-0.504256,2.798711,-7.813756
1790543667.7238,-0.061437,-0.017872,-0.519267,-0.058874,-0.016863,-0.519267,0.157360,0.328062,0.923884,1.297159,1.832031,-8.279490
1790543667.7377,-0.060063,-0.020695,-0.516387,-0.059706,-0.019546,-0.516387,0.256920,-0.202518,0.780615,0.377287,2.687171,-9.987182
1790543667.7516,-0.042801,-0.020092,-0.486119,-0.047873,-0.019928,-0.486119,-0.192313,-1.262464,0.838894,-1.807408,-0.398769,-12.781588
1790543667.7654,-0.036635,-0.007744,-0.462573,-0.040006,-0.011399,-0.462573,-0.981505,-0.792591,0.840108,4.785005,0.530731,-11.656063
1790543667.7794,-0.031644,0.005595,-0.430395,-0.034152,0.000497,-0.430395,-1.128416,-0.701530,0.744191,4.056774,-0.882109,-9.560259
1790543667.7934,-0.018155,0.020664,-0.414754,-0.022955,0.014614,-0.414754,-1.170911,-1.334098,0.464938,3.251886,0.121751,-6.338930
1790543667.8081,-0.004164,0.036181,-0.419645,-0.009801,0.029711,-0.419645,-0.981505,-1.278248,0.430942,2.485326,1.683311,-5.912007
1790543667.8221,-0.019705,0.037213,-0.433177,-0.016734,0.034962,-0.433177,0.027447,0.876855,0.282817,3.673494,3.505131,-10.414105
1790543667.8361,-0.019004,0.031436,-0.445679,-0.018323,0.032494,-0.445679,0.458467,0.114373,-0.576796,-1.500784,3.988471,-15.731238
1790543667.8501,-0.007148,0.025787,-0.459619,-0.010501,0.027799,-0.459619,0.428114,-0.569189,-1.046669,-2.305671,2.910251,-12.665154
1790543667.8640,-0.008498,0.019994,-0.476256,-0.009099,0.022336,-0.476256,0.414758,0.195721,-1.070952,1.373815,1.794851,-9.482637
1790543667.8779,-0.000965,0.013897,-0.469024,-0.003405,0.016429,-0.469024,0.383191,-0.266867,-0.461452,-2.114032,0.679451,-5.834385
1790543667.8920,0.012101,0.001646,-0.469004,0.007449,0.006081,-0.469004,0.809354,-0.761023,-0.666642,-1.769080,1.051251,-11.811308
1790543667.9059,0.027881,-0.012907,-0.476936,0.021751,-0.007210,-0.476936,0.993904,-0.937074,-0.975034,-1.730752,1.311511,-11.345574
1790543667.9195,0.036581,-0.017597,-0.506802,0.032132,-0.014481,-0.506802,0.420829,-0.435633,-1.262786,-1.155832,3.207691,-9.443825
1790543667.9330,0.043948,-0.022773,-0.520533,0.040403,-0.020286,-0.520533,0.310342,-0.455059,-1.141372,0.262303,1.014071,-8.395923
1790543667.9470,0.047673,-0.026156,-0.549579,0.045492,-0.024395,-0.549579,0.329768,-0.150310,-1.001746,-0.350944,2.501271,-6.959909
1790543667.9609,0.033072,-0.035273,-0.544421,0.036798,-0.032009,-0.544421,0.479108,1.058976,-0.698210,1.335487,-0.807749,-14.916203
1790543667.9747,0.016422,-0.030680,-0.555313,0.022535,-0.031079,-0.555313,-0.355008,1.350370,-0.590151,-2.880591,2.612811,-19.030189
1790543667.9887,0.010406,-0.020503,-0.552886,0.014045,-0.023676,-0.552886,-0.821238,0.710517,-0.576796,-5.371910,0.456371,-14.139979
1790543668.0025,0.007051,-0.008241,-0.538291,0.009149,-0.012872,-0.538291,-1.033713,0.681378,-0.533087,-3.838791,-0.398769,-5.096972
1790543668.0166,0.000181,0.005470,-0.531251,0.002872,-0.000032,-0.531251,-1.127202,0.777295,-0.401959,-2.497311,-0.435949,-6.183686
1790543668.0305,-0.013918,0.017833,-0.530345,-0.008881,0.012473,-0.530345,-1.004574,1.080831,-0.348537,0.032335,0.010211,-5.291028
1790543668.0447,-0.021628,0.030256,-0.537376,-0.017804,0.024921,-0.537376,-0.858877,0.719016,-0.381319,-2.114032,2.687171,-12.587532
1790543668.0591,-0.014792,0.024259,-0.526125,-0.015696,0.024458,-0.526125,0.315199,-0.501197,0.175972,-0.542584,0.270471,-20.854315
1790543668.0731,-0.019278,0.019847,-0.515180,-0.018203,0.021230,-0.515180,0.317627,0.162939,0.849821,0.147319,1.534591,-8.628791
1790543668.0869,-0.016994,0.014551,-0.498682,-0.017357,0.016555,-0.498682,0.371049,-0.277794,0.999161,-0.695896,1.014071,-6.727042
1790543668.1008,-0.019864,0.005906,-0.493825,-0.019112,0.009100,-0.493825,0.657587,0.340204,0.492863,-2.880591,1.720491,-7.697322
1790543668.1148,-0.035685,-0.002262,-0.492138,-0.030713,0.001147,-0.492138,0.577453,0.938776,0.571783,2.293686,1.497411,-10.685784
1790543668.1287,-0.048945,-0.018592,-0.484235,-0.043475,-0.012670,-0.484235,1.156599,0.813719,0.762403,1.067191,1.460231,-11.267951
1790543668.1423,-0.065229,-0.026960,-0.490173,-0.058703,-0.022673,-0.490173,0.770502,1.010410,0.910528,1.527127,3.579491,-8.279490
1790543668.1558,-0.080149,-0.032546,-0.488844,-0.073715,-0.029584,-0.488844,0.504605,0.941204,1.005231,1.297159,3.207691,-9.288581
1790543668.1695,-0.080115,-0.041374,-0.479147,-0.078195,-0.037837,-0.479147,0.653944,-0.009469,0.962736,-1.155832,2.278191,-10.142427
1790543668.1835,-0.071951,-0.046771,-0.462247,-0.073824,-0.044091,-0.462247,0.282417,-0.651750,0.887460,-0.005993,0.382011,-12.548721
1790543668.1974,-0.060288,-0.045831,-0.447116,-0.064349,-0.045309,-0.447116,-0.160745,-0.890936,0.719908,-0.082648,0.270471,-12.742777
1790543668.2115,-0.057950,-0.045966,-0.429281,-0.059870,-0.045769,-0.429281,-0.202026,-0.475700,0.803684,4.708349,-2.294948,-10.491728
1790543668.2259,-0.051099,-0.039881,-0.413699,-0.053730,-0.041647,-0.413699,-0.569911,-0.729455,0.815825,2.485326,-0.733389,-7.813756
1790543668.2411,-0.041982,-0.028142,-0.404877,-0.045507,-0.032194,-0.404877,-0.832166,-0.801090,0.602136,2.446998,0.456371,-9.793126
1790543668.2559,-0.024985,-0.009670,-0.399178,-0.031142,-0.016427,-0.399178,-1.295968,-1.325599,0.313170,2.791950,0.790991,-12.238231
1790543668.2703,-0.012544,0.012258,-0.405888,-0.018123,0.003653,-0.405888,-1.554580,-1.192043,0.098267,4.631693,0.605091,-8.046623
1790543668.2850,0.002779,0.033116,-0.412084,-0.003492,0.024277,-0.412084,-1.388243,-1.260035,0.035132,1.718767,1.199971,-5.329839
1790543668.2998,-0.014956,0.025516,-0.403824,-0.011516,0.025144,-0.403824,0.345552,1.153679,-0.217410,1.987063,-0.844929,-10.258860
1790543668.3139,-0.021451,0.014490,-0.414119,-0.018470,0.017686,-0.414119,0.814211,0.806434,-0.837836,-5.448566,3.876931,-16.002917
1790543668.3282,-0.006189,0.010922,-0.427638,-0.009874,0.012951,-0.427638,0.260562,-0.790162,-1.211792,-2.688951,3.133331,-15.964105
1790543668.3423,-0.009382,0.011586,-0.455095,-0.009529,0.011996,-0.455095,0.032303,0.143513,-0.755275,3.175230,2.612811,-8.784035
1790543668.3563,-0.002206,0.006810,-0.453678,-0.004403,0.008366,-0.453678,0.281203,-0.225586,-0.717636,-3.225543,0.939711,-10.375294
1790543668.3702,0.007262,-0.001275,-0.465949,0.003763,0.001617,-0.465949,0.607807,-0.399209,-0.965321,-2.765607,2.352551,-10.336483
1790543668.3838,0.015112,-0.007780,-0.484105,0.011707,-0.004961,-0.484105,0.532530,-0.317861,-1.047883,-1.424128,1.869211,-6.532986
1790543668.3975,0.015213,-0.008774,-0.518771,0.014161,-0.007630,-0.518771,0.286059,0.074307,-0.981105,0.453943,3.728211,-6.532986
1790543668.4115,0.022039,-0.014809,-0.530834,0.019676,-0.012655,-0.530834,0.395332,-0.292364,-0.973820,-1.462456,1.423051,-10.220049
1790543668.4255,0.031195,-0.022768,-0.544120,0.027739,-0.019734,-0.544120,0.558027,-0.499982,-0.897329,-1.194160,1.794851,-10.297672
1790543668.4395,0.012865,-0.027390,-0.559719,0.017327,-0.025093,-0.559719,0.288487,1.278736,-0.972606,3.060246,1.757671,-12.509909
1790543668.4535,0.004030,-0.012635,-0.569112,0.008019,-0.016372,-0.569112,-1.036142,0.964273,-0.659357,-5.486894,2.538451,-11.850119
1790543668.4675,-0.001902,0.004454,-0.563641,0.001075,-0.001794,-0.563641,-1.326322,0.787008,-0.454167,-4.605350,0.010211,-8.357112
1790543668.4814,-0.007160,0.015740,-0.556305,-0.004690,0.010480,-0.556305,-1.003360,0.663166,-0.446883,-2.497311,-0.993649,-6.843476
1790543668.4955,-0.013089,0.026450,-0.555998,-0.010569,0.021659,-0.555998,-0.862519,0.544180,-0.313327,-0.504256,0.121751,-4.941727
1790543668.5094,-0.010131,0.025820,-0.559817,-0.010262,0.024572,-0.559817,0.028661,0.020884,-0.479664,-3.647151,2.241011,-13.984735
1790543668.5232,-0.012997,0.024459,-0.553351,-0.012177,0.024493,-0.553351,0.105152,0.023313,0.615492,1.680439,2.575631,-14.217602
1790543668.5371,-0.022368,0.016313,-0.541227,-0.019311,0.018767,-0.541227,0.525245,0.456761,0.882603,1.373815,0.865351,-11.888930
1790543668.5512,-0.024994,0.007208,-0.525185,-0.023289,0.010676,-0.525185,0.530102,0.113159,0.732049,-0.580912,-0.175689,-8.395923
1790543668.5659,-0.041267,-0.002234,-0.528248,-0.035874,0.001639,-0.528248,0.685512,0.858642,0.585138,2.523654,1.683311,-7.386832
1790543668.5801,-0.056979,-0.015376,-0.523431,-0.050648,-0.010272,-0.523431,0.908914,0.888996,0.744191,1.680439,1.051251,-7.192776
1790543668.5941,-0.072117,-0.023913,-0.522488,-0.065676,-0.019821,-0.522488,0.719508,0.924206,0.922670,1.105519,2.947431,-7.969000
1790543668.6077,-0.086693,-0.031859,-0.514920,-0.080388,-0.028247,-0.514920,0.604164,0.939990,1.017373,0.875551,2.426911,-10.103616
1790543668.6214,-0.092617,-0.037742,-0.507873,-0.088949,-0.034893,-0.507873,0.470609,0.336561,0.993090,0.338959,2.464091,-8.357112
1790543668.6354,-0.094440,-0.044909,-0.498421,-0.092793,-0.041905,-0.498421,0.494892,0.050024,0.855892,0.568927,2.017931,-11.151518
1790543668.6493,-0.086917,-0.046180,-0.488346,-0.088680,-0.044898,-0.488346,0.052944,-0.626253,0.739334,1.067191,1.943571,-13.945924
1790543668.6634,-0.074812,-0.044225,-0.473945,-0.078973,-0.044427,-0.473945,-0.260305,-0.938288,0.586352,0.722239,-0.175689,-11.151518
1790543668.6773,-0.062609,-0.039579,-0.457867,-0.067518,-0.041033,-0.457867,-0.476422,-1.102197,0.677413,2.600310,-0.547489,-8.745224
1790543668.6913,-0.054527,-0.033303,-0.440897,-0.058424,-0.035622,-0.440897,-0.625762,-0.860583,0.651916,3.366870,-1.179549,-8.473546
1790543668.7056,-0.044226,-0.021413,-0.429654,-0.048485,-0.025676,-0.429654,-0.971792,-1.001423,0.474651,3.405198,-0.696209,-8.318301
1790543668.7198,-0.033734,-0.005814,-0.426081,-0.038160,-0.011773,-0.426081,-1.176982,-1.013565,0.275532,3.865134,0.121751,-9.094525
1790543668.7340,-0.020368,0.013992,-0.428362,-0.025706,0.006263,-0.428362,-1.423453,-1.192043,0.059415,3.251886,0.865351,-7.969000
1790543668.7480,-0.006724,0.035505,-0.434430,-0.012419,0.026732,-0.434430,-1.510871,-1.166547,-0.069284,2.906934,1.943571,-9.210958
1790543668.7621,-0.027299,0.028252,-0.430506,-0.022835,0.027796,-0.430506,0.367407,1.481497,-0.370392,2.715294,-0.733389,-18.991378
1790543668.7764,-0.018778,0.016877,-0.441072,-0.019995,0.020153,-0.441072,0.771716,-0.277794,-1.283426,-3.033903,2.501271,-18.680889
1790543668.7905,-0.014383,0.015828,-0.494217,-0.016067,0.017125,-0.494217,0.351623,-0.382211,-1.123160,2.983590,3.914111,-5.679140
1790543668.8051,-0.015959,0.010816,-0.510846,-0.015991,0.012709,-0.510846,0.389261,0.145941,-0.672713,0.875551,1.646131,-6.804665
1790543668.8195,0.001964,-0.001768,-0.510344,-0.003422,0.002575,-0.510344,0.803284,-0.956500,-0.977463,-3.148887,0.753811,-11.384385
1790543668.8332,0.016436,-0.014478,-0.534869,0.010478,-0.009362,-0.534869,1.030328,-0.884866,-1.085521,-0.695896,2.910251,-8.589979
1790543668.8469,0.019960,-0.020698,-0.567809,0.017115,-0.017297,-0.567809,0.634518,-0.183091,-1.102519,0.530599,2.947431,-5.950818
1790543668.8606,0.022926,-0.024814,-0.593863,0.021183,-0.022559,-0.593863,0.403831,-0.076247,-1.045455,-0.504256,3.393591,-9.637881
1790543668.8746,0.033759,-0.030874,-0.618294,0.029986,-0.028379,-0.618294,0.556813,-0.633538,-0.930111,-0.964192,3.691031,-9.443825
1790543668.8885,0.003691,-0.031978,-0.617538,0.011580,-0.030898,-0.617538,-0.093967,2.216053,-0.916756,1.488799,-0.770569,-14.101168
1790543668.9025,0.003086,-0.015806,-0.622884,0.005634,-0.020334,-0.622884,-1.159984,0.386341,-0.768630,-7.249981,2.649991,-15.537182
1790543668.9165,-0.007531,-0.001239,-0.614255,-0.003581,-0.006967,-0.614255,-1.200051,0.975200,-0.514875,-2.152360,-0.696209,-8.939280
1790543668.9305,-0.011269,0.013396,-0.600698,-0.008962,0.007287,-0.600698,-1.153913,0.698376,-0.472380,-3.838791,-0.026969,-5.446273
1790543668.9445,-0.016358,0.029425,-0.609300,-0.014140,0.022783,-0.609300,-1.116275,0.751798,-0.608363,-2.650623,1.237151,-5.096972
1790543668.9584,-0.018751,0.032619,-0.609011,-0.017368,0.029668,-0.609011,-0.378077,0.533252,-0.721279,-1.960720,-0.324409,-5.135783
1790543668.9724,-0.008835,0.034880,-0.618700,-0.011395,0.033316,-0.618700,-0.080612,-0.614112,-0.525802,-0.350944,4.285911,-12.820399
1790543668.9864,-0.009007,0.033248,-0.614138,-0.009724,0.033269,-0.614138,0.130649,-0.049536,0.359308,-0.235960,2.352551,-11.384385
1790543669.0002,-0.016917,0.029928,-0.596734,-0.014759,0.030930,-0.596734,0.201069,0.162939,1.061082,4.670021,1.311511,-12.393476
1790543669.0142,-0.020459,0.017790,-0.576761,-0.018749,0.021732,-0.576761,0.770502,-0.087174,1.023443,2.370342,0.084571,-8.745224
1790543669.0280,-0.025434,0.007919,-0.572067,-0.023428,0.012063,-0.572067,0.745005,0.221218,0.569354,0.645583,1.683311,-7.697322
1790543669.0420,-0.045240,-0.002125,-0.570155,-0.038696,0.002132,-0.570155,0.758360,1.230170,0.602136,1.872079,2.055111,-8.939280
1790543669.0564,-0.059106,-0.014227,-0.560712,-0.052983,-0.009319,-0.560712,0.816639,0.891424,0.755118,-0.044320,1.460231,-11.112707
1790543669.0706,-0.071237,-0.020148,-0.557979,-0.065761,-0.016899,-0.557979,0.499748,0.751798,0.847393,0.453943,3.319231,-10.025993
1790543669.0843,-0.072760,-0.026578,-0.548526,-0.070660,-0.023674,-0.548526,0.474251,0.062165,0.931169,-0.619240,2.092291,-9.831937
1790543669.0983,-0.065681,-0.028736,-0.537002,-0.067175,-0.027217,-0.537002,0.154932,-0.601970,0.984591,-0.044320,2.426911,-11.345574
1790543669.1123,-0.062703,-0.027380,-0.517735,-0.064045,-0.027331,-0.517735,-0.226309,-0.348215,0.937239,0.798895,-0.101329,-11.966553
1790543669.1263,-0.057783,-0.026239,-0.494754,-0.059661,-0.026567,-0.494754,-0.238450,-0.583758,1.040441,2.446998,-0.659029,-12.121798
1790543669.1403,-0.052990,-0.019878,-0.475142,-0.054992,-0.021885,-0.475142,-0.594194,-0.628682,0.902029,3.098574,-0.398769,-9.793126
1790543669.1542,-0.050672,-0.012654,-0.455874,-0.051968,-0.015423,-0.455874,-0.713180,-0.434419,0.653130,3.136902,-1.328269,-9.327392
1790543669.1681,-0.038753,-0.002275,-0.444419,-0.042718,-0.006220,-0.444419,-0.850378,-1.083985,0.481936,2.217030,0.084571,-8.512357
1790543669.1820,-0.031348,0.013085,-0.441262,-0.034759,0.007294,-0.441262,-1.166055,-0.801090,0.276746,3.136902,0.456371,-7.969000
1790543669.1959,-0.019707,0.031463,-0.438144,-0.024222,0.024212,-0.438144,-1.390671,-1.075486,0.098267,3.136902,0.530731,-8.706413
1790543669.2098,-0.017513,0.044604,-0.441042,-0.019526,0.038486,-0.441042,-0.973006,-0.260797,-0.139705,2.293686,1.683311,-11.035084
1790543669.2239,-0.025820,0.040482,-0.445234,-0.023932,0.039883,-0.445234,0.193784,0.720230,-0.778343,1.220503,0.716631,-16.779140
1790543669.2379,-0.009150,0.023566,-0.459050,-0.013585,0.028461,-0.459050,1.288941,-0.689389,-1.043026,-6.176798,3.133331,-9.133336
1790543669.2519,-0.021031,0.029463,-0.536651,-0.018797,0.029162,-0.536651,0.156146,0.793079,-0.584081,1.565455,5.029511,-1.720399
1790543669.2659,-0.019410,0.025984,-0.541766,-0.019226,0.026937,-0.541766,0.238708,-0.118742,-0.556155,1.680439,1.646131,-9.754315
1790543669.2797,-0.009875,0.017933,-0.545482,-0.012680,0.020634,-0.545482,0.544671,-0.461130,-0.704281,-2.573967,1.683311,-13.324944
1790543669.2934,-0.000081,0.006426,-0.555425,-0.003861,0.010689,-0.555425,0.797213,-0.461130,-1.103733,-1.615768,1.199971,-10.608161
1790543669.3070,0.004903,0.007145,-0.584458,0.002274,0.008208,-0.584458,0.265419,-0.200089,-0.932539,-0.235960,3.021791,-3.583336
1790543669.3211,0.005373,0.005349,-0.598056,0.004443,0.006206,-0.598056,0.136720,0.097375,-0.786842,-0.274288,1.794851,-8.706413
1790543669.3351,0.009053,-0.000592,-0.611254,0.007670,0.001448,-0.611254,0.447540,-0.068962,-0.724921,-1.424128,1.832031,-8.395923
1790543669.3491,0.017018,-0.004857,-0.628637,0.014213,-0.002966,-0.628637,0.494892,-0.387067,-0.603507,-2.497311,6.256450,-11.694875
1790543669.3631,0.000483,-0.000071,-0.645390,0.004602,-0.000939,-0.645390,-0.304014,1.338229,-0.663000,-1.424128,3.839751,-15.149070
1790543669.3769,-0.000610,0.008797,-0.651994,0.000954,0.005876,-0.651994,-0.650044,0.335347,-0.484521,-5.218598,2.724351,-16.119350
1790543669.3908,-0.002994,0.012974,-0.640007,-0.001810,0.010845,-0.640007,-0.423000,0.546608,-0.450525,-5.371910,-0.250049,-9.210958
1790543669.4047,-0.009958,0.021897,-0.649045,-0.007514,0.018581,-0.649045,-0.541986,0.677735,-0.221052,-1.079176,1.608951,-4.475993
1790543669.4187,-0.016984,0.034503,-0.655384,-0.014143,0.029727,-0.655384,-0.827309,0.784580,-0.264761,-1.615768,1.311511,-3.893825
1790543669.4328,-0.018735,0.032578,-0.657637,-0.017357,0.031723,-0.657637,0.080869,0.204220,-0.241693,-0.925864,1.646131,-17.322497
1790543669.4466,-0.013251,0.026121,-0.651019,-0.014483,0.027801,-0.651019,0.426900,-0.395566,0.390875,-2.114032,1.757671,-15.498371
1790543669.4606,-0.021262,0.019448,-0.633762,-0.019228,0.021954,-0.633762,0.423257,0.326848,0.756332,2.715294,1.125611,-13.596623
1790543669.4745,-0.020883,0.010504,-0.617488,-0.020386,0.013939,-0.617488,0.511890,-0.000970,0.718694,-2.190688,-0.435949,-8.706413
1790543669.4884,-0.032957,-0.000605,-0.610881,-0.029186,0.003758,-0.610881,0.774144,0.795507,0.554785,0.070663,0.753811,-6.610609
1790543669.5023,-0.047178,-0.011459,-0.606032,-0.041780,-0.006894,-0.606032,0.804498,0.954560,0.559641,0.185647,1.646131,-8.318301
1790543669.5162,-0.060277,-0.022642,-0.599499,-0.054728,-0.017918,-0.599499,0.829995,0.841645,0.633704,0.722239,1.906391,-9.249770
1790543669.5297,-0.077675,-0.032119,-0.592413,-0.070791,-0.027859,-0.592413,0.730435,1.188889,0.763617,0.722239,2.092291,-9.443825
1790543669.5434,-0.085066,-0.039770,-0.584691,-0.080783,-0.036197,-0.584691,0.600522,0.512612,0.815825,-0.389272,2.687171,-10.336483
1790543669.5576,-0.078431,-0.046077,-0.572956,-0.079136,-0.043113,-0.572956,0.373477,-0.485413,0.818253,-0.772552,0.902531,-11.267951
1790543669.5720,-0.068437,-0.046119,-0.560305,-0.071647,-0.045217,-0.560305,-0.066042,-0.764665,0.772116,0.300631,0.828171,-12.005364
1790543669.5861,-0.061439,-0.044200,-0.542094,-0.064501,-0.044505,-0.542094,-0.274874,-0.629896,0.937239,0.913879,-0.473129,-10.530539
1790543669.6002,-0.055636,-0.042332,-0.517185,-0.058296,-0.042984,-0.517185,-0.317369,-0.656607,0.906886,2.638638,-1.328269,-9.521448
1790543669.6142,-0.050374,-0.036330,-0.494825,-0.052750,-0.038326,-0.494825,-0.608764,-0.632324,0.708981,2.906934,-1.291089,-8.822846
1790543669.6283,-0.039739,-0.025186,-0.478262,-0.043643,-0.029128,-0.478262,-0.920798,-1.017207,0.479508,3.788478,-0.659029,-10.491728
1790543669.6421,-0.030398,-0.006356,-0.468641,-0.034372,-0.013187,-0.468641,-1.400384,-0.964999,0.265819,4.478381,0.790991,-9.754315
1790543669.6561,-0.018889,0.017630,-0.461053,-0.023534,0.008384,-0.461053,-1.774340,-1.108268,0.063057,4.133430,0.716631,-8.745224
1790543669.6700,-0.004265,0.041164,-0.455982,-0.010046,0.031330,-0.455982,-1.714847,-1.318314,0.021776,3.328542,1.237151,-7.969000
1790543669.6838,-0.018635,0.037326,-0.444907,-0.016058,0.035528,-0.444907,0.061443,0.956988,-0.111779,3.635166,-2.555208,-17.206063
1790543669.6978,-0.009169,0.021235,-0.451446,-0.011235,0.025523,-0.451446,1.126245,-0.156380,-0.837836,-8.131525,1.311511,-10.220049
1790543669.7118,-0.005764,0.019387,-0.468868,-0.007406,0.021228,-0.468868,0.245992,0.111945,-0.796556,-4.068759,3.839751,-9.443825
1790543669.7255,-0.009291,0.020534,-0.481542,-0.008725,0.020742,-0.481542,-0.046616,0.307422,-0.658143,0.798895,1.943571,-7.774944
1790543669.7394,0.002290,0.015868,-0.485030,-0.001015,0.017330,-0.485030,0.265419,-0.620183,-0.663000,-2.535639,0.828171,-12.199420
1790543669.7530,0.017114,0.003689,-0.495086,0.011675,0.007781,-0.495086,0.913771,-0.775593,-0.823267,-2.190688,1.311511,-5.873196
1790543669.7666,0.026474,-0.005131,-0.517727,0.022034,-0.001258,-0.517727,0.839708,-0.501197,-1.015101,-0.465928,2.241011,-3.893825
1790543669.7803,0.030183,-0.007810,-0.537445,0.027738,-0.005844,-0.537445,0.379548,-0.175807,-0.875475,0.032335,3.728211,-6.688231
1790543669.7942,0.034246,-0.013539,-0.552817,0.032294,-0.011231,-0.552817,0.430542,-0.161237,-0.945895,-0.504256,2.687171,-10.491728
1790543669.8081,0.038063,-0.020058,-0.570308,0.036332,-0.017410,-0.570308,0.595665,-0.102958,-0.811125,-2.075704,5.252591,-12.044175
1790543669.8225,0.013172,-0.013448,-0.583583,0.020120,-0.014637,-0.583583,-0.487349,1.775320,-0.778343,1.335487,2.538451,-14.838581
1790543669.8366,0.013669,-0.001631,-0.588153,0.015604,-0.005532,-0.588153,-0.948723,0.149584,-0.454167,-3.493839,-0.101329,-14.993826
1790543669.8506,0.011802,0.008366,-0.590623,0.012943,0.004197,-0.590623,-0.838236,0.493186,-0.313327,-5.103614,-0.473129,-8.124245
1790543669.8648,0.010172,0.017950,-0.596816,0.011004,0.013824,-0.596816,-0.713180,0.470117,-0.332753,-3.685479,0.753811,-6.067252
1790543669.8787,0.004883,0.031112,-0.606677,0.006719,0.025926,-0.606677,-0.864948,0.653452,-0.468737,-1.960720,1.943571,-5.407462
1790543669.8927,-0.000820,0.040912,-0.614279,0.001441,0.036416,-0.614279,-0.660972,0.517469,-0.431099,-0.465928,2.501271,-8.784035
1790543669.9066,0.006341,0.033684,-0.612999,0.004871,0.034504,-0.612999,0.464538,-0.464772,0.080055,-2.382327,1.385871,-15.808861
1790543669.9206,0.002972,0.029914,-0.601020,0.003542,0.031291,-0.601020,0.242350,-0.024039,0.589995,3.098574,1.460231,-12.781588
1790543669.9348,-0.002085,0.026693,-0.591189,-0.000397,0.028072,-0.591189,0.164645,0.218790,0.685912,0.108991,0.493551,-9.133336
1790543669.9488,-0.011416,0.013906,-0.585336,-0.008111,0.018156,-0.585336,0.774144,0.601244,0.426086,-0.082648,-0.473129,-7.115154
1790543669.9628,-0.025825,0.002346,-0.579441,-0.020510,0.007089,-0.579441,0.815425,0.835574,0.464938,2.255358,1.385871,-9.909560
1790543669.9767,-0.040070,-0.008181,-0.572027,-0.034202,-0.003600,-0.572027,0.797213,0.880497,0.678627,1.105519,2.129471,-9.560259
1790543669.9904,-0.057053,-0.017802,-0.563819,-0.050198,-0.013541,-0.563819,0.737720,1.112398,0.796399,0.722239,2.166651,-9.366203
1790543670.0040,-0.063984,-0.026663,-0.553561,-0.059848,-0.022726,-0.553561,0.687940,0.416695,0.892316,0.147319,2.761531,-11.267951
1790543670.0181,-0.070900,-0.032069,-0.542301,-0.067584,-0.029266,-0.542301,0.402617,0.383913,0.906886,0.492271,2.017931,-9.133336
1790543670.0321,-0.072179,-0.035479,-0.532639,-0.070801,-0.033615,-0.532639,0.226566,0.034240,0.747833,-0.005993,2.166651,-13.829490
1790543670.0462,-0.057848,-0.039857,-0.517288,-0.061734,-0.037985,-0.517288,0.156146,-1.168975,0.759975,1.680439,-1.030829,-13.092077
1790543670.0603,-0.051471,-0.034070,-0.503103,-0.054550,-0.035245,-0.503103,-0.500705,-0.708815,0.665272,3.175230,0.047391,-9.327392
1790543670.0746,-0.041616,-0.026486,-0.488541,-0.045496,-0.029114,-0.488541,-0.679184,-0.877581,0.614278,2.370342,-1.142369,-11.267951
1790543670.0888,-0.034788,-0.014669,-0.479413,-0.038000,-0.019002,-0.479413,-0.928083,-0.809589,0.310742,4.248414,-0.212869,-7.697322
1790543670.1027,-0.025855,0.002831,-0.475537,-0.029499,-0.003719,-0.475537,-1.277756,-0.909148,0.158974,3.136902,0.939711,-7.348021
1790543670.1166,-0.014826,0.021485,-0.472496,-0.019228,0.013924,-0.472496,-1.389457,-1.029348,-0.029218,3.213558,0.828171,-8.201867
1790543670.1306,-0.002749,0.037976,-0.472526,-0.007692,0.030760,-0.472526,-1.208550,-1.069415,-0.210125,3.673494,1.348691,-9.482637
1790543670.1445,-0.024293,0.032902,-0.473803,-0.019313,0.032260,-0.473803,0.188928,1.466928,-0.476022,6.241469,-1.774428,-17.477742
1790543670.1584,-0.001990,0.026087,-0.503982,-0.007186,0.027939,-0.503982,0.743791,-1.168975,-1.108590,-4.720334,5.921830,-7.930189
1790543670.1723,-0.009259,0.020802,-0.522997,-0.008637,0.022943,-0.522997,0.511890,0.427622,-0.802626,3.366870,3.244871,-7.192776
1790543670.1861,-0.013919,0.010801,-0.536468,-0.012334,0.014444,-0.536468,0.735292,0.453119,-0.835408,0.338959,1.423051,-7.231588
1790543670.2000,0.003544,0.002969,-0.545199,-0.001219,0.006411,-0.545199,0.521603,-1.017207,-0.932539,-1.884064,1.014071,-9.560259
1790543670.2136,0.010086,-0.011782,-0.556671,0.006695,-0.006324,-0.556671,1.004831,-0.270510,-1.107376,-1.002520,0.605091,-9.405014
1790543670.2274,0.023544,-0.021813,-0.579452,0.018489,-0.017166,-0.579452,0.810569,-0.717314,-1.230004,-1.615768,2.538451,-7.464455
1790543670.2414,0.032593,-0.030015,-0.597508,0.028362,-0.026160,-0.597508,0.607807,-0.532764,-1.114661,-0.082648,1.832031,-7.542077
1790543670.2554,0.038510,-0.040928,-0.615385,0.035465,-0.036498,-0.615385,0.805712,-0.311790,-1.024814,-0.350944,1.980751,-8.007811
1790543670.2694,0.026887,-0.047705,-0.636727,0.029461,-0.044343,-0.636727,0.678227,0.964273,-0.667856,-1.424128,5.215411,-9.715504
1790543670.2833,0.005017,-0.039787,-0.653994,0.012350,-0.041154,-0.653994,-0.523774,1.862738,-0.637503,-6.215126,3.691031,-15.226693
1790543670.2973,-0.000174,-0.023421,-0.661387,0.003583,-0.028741,-0.661387,-1.286255,0.681378,-0.698210,-6.176798,-0.696209,-14.916203
1790543670.3117,-0.001965,-0.006477,-0.664462,-0.000300,-0.013156,-0.664462,-1.316608,0.499256,-0.625361,-4.260399,-0.770569,-7.348021
1790543670.3296,-0.008397,0.015011,-0.674697,-0.005968,0.006561,-0.674697,-1.258330,0.479830,-0.554941,-0.427600,0.493551,-6.571797
1790543670.3447,-0.015709,0.025421,-0.681218,-0.012786,0.019763,-0.681218,-0.776315,0.891424,-0.575582,-3.877119,0.010211,-6.222497
1790543670.3590,-0.008118,0.026425,-0.689291,-0.009518,0.024426,-0.689291,-0.092753,-0.294792,-0.563440,-2.650623,1.534591,-10.414105
1790543670.3737,-0.000543,0.026481,-0.688834,-0.003236,0.025865,-0.688834,-0.075755,-0.462344,-0.043787,-1.769080,0.865351,-15.925294
1790543670.3883,-0.002106,0.024368,-0.679793,-0.002445,0.024817,-0.679793,0.137934,-0.019182,0.608207,0.185647,2.092291,-14.101168
1790543670.4022,-0.002529,0.020154,-0.671269,-0.002504,0.021553,-0.671269,0.211996,-0.078675,0.543857,0.032335,0.084571,-9.288581
1790543670.4162,-0.009769,0.011081,-0.665516,-0.007590,0.014222,-0.665516,0.624805,0.420337,0.467366,0.147319,0.679451,-5.523895
1790543670.4304,-0.019234,-0.003310,-0.656638,-0.015741,0.001950,-0.656638,0.986619,0.495614,0.637346,1.335487,0.939711,-9.987182
1790543670.4440,-0.033223,-0.012725,-0.646091,-0.027979,-0.008323,-0.646091,0.740148,0.813719,0.832823,1.603783,1.980751,-8.628791
1790543670.4576,-0.046371,-0.018184,-0.634508,-0.040853,-0.015225,-0.634508,0.502176,0.824647,0.996732,0.415615,2.947431,-8.667602
1790543670.4716,-0.052787,-0.022877,-0.621086,-0.049207,-0.020582,-0.621086,0.368621,0.354774,1.072009,-0.235960,2.389731,-9.948371
1790543670.4856,-0.057292,-0.026099,-0.609833,-0.054867,-0.024444,-0.609833,0.245992,0.250357,0.899601,-0.312616,2.055111,-9.909560
1790543670.4995,-0.051832,-0.027308,-0.596631,-0.052742,-0.026449,-0.596631,-0.104895,-0.512124,0.623991,1.220503,-2.071868,-13.557812
1790543670.5135,-0.044559,-0.026604,-0.587586,-0.047014,-0.026557,-0.587586,-0.035688,-0.682104,0.478294,2.561982,2.352551,-13.053266
1790543670.5278,-0.034495,-0.016742,-0.577278,-0.038250,-0.019686,-0.577278,-0.708323,-0.899435,0.463724,2.446998,1.385871,-10.646972
1790543670.5419,-0.029157,-0.008921,-0.558960,-0.031885,-0.012150,-0.558960,-0.719250,-0.727027,0.463724,4.516709,-1.291089,-8.473546
1790543670.5563,-0.018905,0.004603,-0.550017,-0.022799,-0.000423,-0.550017,-0.999717,-0.981997,0.241536,2.561982,0.344831,-6.338930
1790543670.5706,-0.007379,0.019242,-0.543043,-0.012005,0.013343,-0.543043,-1.056782,-1.074272,0.177186,3.290214,0.902531,-8.279490
1790543670.5854,0.001660,0.036872,-0.541237,-0.002440,0.029813,-0.541237,-1.214620,-0.826587,-0.106923,4.018446,1.460231,-10.064805
1790543670.5996,-0.010138,0.033254,-0.543217,-0.007828,0.032222,-0.543217,0.091796,0.757869,-0.578010,6.509765,-1.365448,-19.030189
1790543670.6139,0.006948,0.024033,-0.565021,0.002515,0.026490,-0.565021,0.747433,-0.708815,-1.186295,-5.371910,3.691031,-8.667602
1790543670.6281,0.007289,0.023950,-0.587469,0.005857,0.024712,-0.587469,0.156146,-0.102958,-0.958036,2.638638,2.947431,-5.562707
1790543670.6424,0.000407,0.014914,-0.602634,0.002042,0.017854,-0.602634,0.670942,0.484687,-0.843907,1.335487,1.497411,-5.407462
1790543670.6565,0.021652,0.005280,-0.612477,0.015769,0.009052,-0.612477,0.626019,-1.256393,-1.018744,-2.114032,1.088431,-10.181238
1790543670.6705,0.031904,-0.008484,-0.631397,0.027063,-0.003223,-0.631397,0.958694,-0.536407,-1.310138,-0.465928,1.608951,-8.124245
1790543670.6842,0.041557,-0.018248,-0.652387,0.037209,-0.013741,-0.652387,0.720722,-0.521837,-1.305281,-0.542584,1.980751,-7.658511
1790543670.6978,0.048992,-0.026403,-0.670144,0.045457,-0.022604,-0.670144,0.588381,-0.425920,-1.159584,-0.159304,1.608951,-7.153965
1790543670.7117,0.054653,-0.037083,-0.687499,0.051894,-0.032739,-0.687499,0.771716,-0.310576,-1.049097,-0.235960,1.980751,-8.395923
1790543670.7257,0.039307,-0.043582,-0.712629,0.043083,-0.040329,-0.712629,0.583524,1.241097,-0.978677,-1.117504,5.066691,-11.423196
1790543670.7388,0.028009,-0.035671,-0.726652,0.032531,-0.037068,-0.726652,-0.662186,1.236241,-0.802626,-9.626316,1.683311,-17.943476
1790543670.7520,0.022051,-0.019401,-0.734955,0.025195,-0.024701,-0.734955,-1.394313,0.738442,-0.802626,-4.107087,-0.696209,-12.354665
1790543670.7651,0.022177,-0.008980,-0.733562,0.023082,-0.013696,-0.733562,-1.028857,0.313493,-0.537943,-4.528694,-2.109048,-9.676693
1790543670.7791,0.018283,0.007420,-0.738581,0.019723,0.001085,-0.738581,-1.321465,0.511398,-0.511232,-1.730752,-0.324409,-5.912007
1790543670.7928,0.008689,0.017417,-0.743930,0.011999,0.012517,-0.743930,-0.860091,0.873212,-0.432313,-1.232488,-0.138509,-6.804665
1790543670.8068,-0.006101,0.031915,-0.752216,-0.000671,0.026095,-0.752216,-1.076208,1.201031,-0.403173,-0.695896,1.014071,-7.037532
1790543670.8207,-0.001007,0.025458,-0.749514,-0.000906,0.025649,-0.749514,0.243564,-0.248655,-0.240478,-2.918919,-3.744968,-19.728791
1790543670.8351,-0.000190,0.026117,-0.740944,-0.000405,0.025977,-0.740944,-0.057543,-0.314219,0.496506,4.248414,2.203831,-15.614805
1790543670.8494,-0.003565,0.024891,-0.732283,-0.002617,0.025217,-0.732283,0.078441,0.046381,0.605779,1.680439,1.980751,-13.286133
1790543670.8633,-0.011870,0.017368,-0.726536,-0.009094,0.019723,-0.726536,0.626019,0.222432,0.535358,2.446998,1.460231,-4.475993
1790543670.8774,-0.022029,0.010279,-0.724002,-0.018148,0.013112,-0.724002,0.554385,0.499256,0.353237,1.910407,1.608951,-6.261308
1790543670.8913,-0.034151,-0.001149,-0.718322,-0.029350,0.003129,-0.718322,0.862777,0.630384,0.588781,2.408670,1.943571,-8.357112
1790543670.9050,-0.049146,-0.010912,-0.715409,-0.043207,-0.006700,-0.715409,0.823924,0.953346,0.733264,0.990535,3.021791,-8.667602
1790543670.9186,-0.058969,-0.016172,-0.710318,-0.054241,-0.013330,-0.710318,0.497320,0.602459,0.903243,0.415615,3.728211,-9.987182
1790543670.9326,-0.060214,-0.018376,-0.700342,-0.058422,-0.016862,-0.700342,0.186500,-0.013112,0.957880,-0.044320,2.649991,-10.685784
1790543670.9466,-0.065760,-0.019020,-0.690411,-0.063559,-0.018373,-0.690411,0.073584,0.228503,0.887460,1.335487,2.426911,-9.909560
1790543670.9605,-0.053925,-0.017344,-0.684724,-0.056815,-0.017652,-0.684724,-0.053901,-0.927361,0.597280,0.147319,3.058971,-10.258860
1790543670.9745,-0.037077,-0.016196,-0.673730,-0.042999,-0.016633,-0.673730,-0.135248,-1.200542,0.583924,-1.654096,0.976891,-11.772497
1790543670.9883,-0.027696,-0.007032,-0.659837,-0.032287,-0.009912,-0.659837,-0.699824,-0.903078,0.478294,3.328542,1.274331,-12.781588
1790543671.0023,-0.024131,0.001623,-0.637103,-0.026578,-0.001837,-0.637103,-0.775101,-0.559475,0.447940,4.708349,-1.105189,-11.423196
1790543671.0162,-0.013508,0.011711,-0.623440,-0.017429,0.007646,-0.623440,-0.857663,-0.967427,0.067914,2.600310,-0.473129,-8.318301
1790543671.0304,-0.006173,0.026135,-0.620023,-0.009550,0.020588,-0.620023,-1.015501,-0.810803,0.065485,3.558510,1.348691,-7.192776
1790543671.0445,0.001595,0.038813,-0.616150,-0.001748,0.033345,-0.616150,-0.929297,-0.759809,-0.058357,2.715294,1.125611,-7.852567
1790543671.0586,-0.014132,0.036832,-0.617642,-0.010417,0.035786,-0.617642,0.068728,1.033479,-0.276903,3.980118,1.348691,-15.226693
1790543671.0728,-0.002496,0.035407,-0.643762,-0.004872,0.035521,-0.643762,0.207140,-0.351857,-1.126802,-7.326637,5.475671,-13.402567
1790543671.0870,0.002700,0.027811,-0.662020,0.000428,0.030124,-0.662020,0.588381,-0.178235,-0.943467,-0.542584,3.393591,-11.112707
1790543671.1010,-0.001008,0.017187,-0.671764,-0.000577,0.021068,-0.671764,0.736506,0.249143,-0.843907,2.102047,1.311511,-7.736133
1790543671.1151,0.019968,0.006233,-0.679533,0.013804,0.010684,-0.679533,0.684298,-1.182330,-1.067309,-2.842263,0.419191,-9.521448
1790543671.1290,0.031773,-0.008186,-0.695962,0.026382,-0.002525,-0.695962,0.981763,-0.662678,-1.302853,-0.427600,1.423051,-9.793126
1790543671.1426,0.037650,-0.018667,-0.728854,0.034270,-0.013824,-0.728854,0.924698,-0.242584,-1.347776,-0.350944,2.984611,-5.717951
1790543671.1562,0.047359,-0.027703,-0.747221,0.043432,-0.023539,-0.747221,0.643017,-0.569189,-1.227576,-0.427600,1.534591,-7.736133
1790543671.1702,0.056433,-0.038681,-0.764666,0.052533,-0.034138,-0.764666,0.764431,-0.523051,-1.074594,-0.657568,1.720491,-8.706413
1790543671.1841,0.039331,-0.051169,-0.770451,0.043292,-0.046060,-0.770451,0.759575,1.299376,-0.694568,-0.619240,-0.287229,-14.217602
1790543671.1979,0.023941,-0.046929,-0.787608,0.029746,-0.046668,-0.787608,-0.306442,1.364940,-0.712780,-6.253454,3.244871,-18.603266
1790543671.2119,0.022269,-0.033544,-0.797135,0.024512,-0.037481,-0.797135,-1.043426,0.431264,-0.678784,-7.134997,0.382011,-15.498371
1790543671.2259,0.024142,-0.025847,-0.793756,0.024253,-0.029338,-0.793756,-0.786028,0.187222,-0.552513,-3.877119,-2.034688,-7.348021
1790543671.2398,0.007666,-0.007464,-0.794787,0.012642,-0.014026,-0.794787,-1.376101,1.075974,-0.240478,0.683911,0.270471,-2.884734
1790543671.2537,-0.001464,0.009715,-0.802616,0.002768,0.002593,-0.802616,-1.323893,1.067475,-0.486949,-3.263871,0.047391,-4.980539
1790543671.2677,-0.020963,0.024042,-0.814723,-0.013844,0.017607,-0.814723,-1.021572,1.593198,-0.519731,-0.887536,1.199971,-6.144874
1790543671.2817,-0.012115,0.014480,-0.822799,-0.012634,0.015418,-0.822799,0.643017,-0.336073,-0.621719,-2.803935,0.790991,-8.046623
1790543671.2956,-0.006108,0.008756,-0.816070,-0.008065,0.010754,-0.816070,0.385619,-0.472057,0.376306,-1.040848,2.166651,-18.525644
1790543671.3095,-0.013263,0.008760,-0.807936,-0.011703,0.009358,-0.807936,0.012877,0.335347,0.603350,1.718767,2.129471,-12.005364
1790543671.3234,-0.008927,0.004850,-0.793103,-0.009760,0.006203,-0.793103,0.130649,-0.401637,0.708981,-0.504256,-0.882109,-8.939280
1790543671.3378,-0.018155,-0.013597,-0.776729,-0.015637,-0.007657,-0.776729,0.998761,0.592745,0.710195,-0.197632,-0.807749,-2.108511
1790543671.3518,-0.033863,-0.022920,-0.772432,-0.028395,-0.018341,-0.772432,0.735292,0.846501,0.727193,2.332014,1.720491,-6.649420
1790543671.3655,-0.049051,-0.034681,-0.764383,-0.042855,-0.029779,-0.764383,0.923484,0.984913,0.905672,0.530599,2.166651,-8.473546
1790543671.3792,-0.065891,-0.042536,-0.755330,-0.058980,-0.038709,-0.755330,0.622377,1.150037,0.966379,0.147319,2.464091,-10.181238
1790543671.3931,-0.073017,-0.046439,-0.746135,-0.068806,-0.044120,-0.746135,0.366193,0.481044,0.978520,-0.849208,3.988471,-11.772497
1790543671.4070,-0.063034,-0.048665,-0.730403,-0.064765,-0.047302,-0.730403,0.086940,-0.782878,1.024658,-0.504256,1.014071,-13.713056
1790543671.4210,-0.049770,-0.042650,-0.716845,-0.054269,-0.044046,-0.716845,-0.459424,-1.071843,0.859534,0.913879,1.423051,-11.850119
1790543671.4349,-0.041822,-0.036454,-0.697361,-0.045556,-0.038732,-0.697361,-0.628190,-0.961356,0.875318,5.436581,-1.737248,-9.754315
1790543671.4492,-0.036971,-0.028408,-0.679355,-0.039546,-0.031505,-0.679355,-0.722893,-0.673605,0.915385,3.711822,-1.142369,-8.939280
1790543671.4637,-0.027688,-0.015089,-0.665441,-0.031246,-0.020014,-0.665441,-1.000931,-0.949215,0.790328,3.366870,-0.026969,-8.939280
1790543671.4777,-0.014863,0.002959,-0.658220,-0.019778,-0.003933,-0.658220,-1.319037,-1.213898,0.501362,3.136902,0.939711,-8.667602
1790543671.4917,-0.004407,0.022802,-0.653833,-0.009018,0.014781,-0.653833,-1.444093,-1.077914,0.319241,4.248414,0.976891,-9.016902
1790543671.5057,-0.009179,0.027857,-0.643399,-0.009131,0.023934,-0.643399,-0.499491,0.111945,0.314384,5.244941,-0.993649,-17.788231
1790543671.5197,-0.014323,0.026474,-0.652970,-0.012765,0.025712,-0.652970,0.123364,0.657095,-0.650858,-3.608823,2.984611,-12.703965
1790543671.5337,0.012400,0.022902,-0.671548,0.004850,0.023745,-0.671548,0.330982,-1.365666,-1.436408,-7.748245,4.323091,-11.462007
1790543671.5477,0.003452,0.015895,-0.691630,0.003871,0.018250,-0.691630,0.517960,0.482258,-0.797770,4.056774,1.757671,-7.270399
1790543671.5616,0.008386,0.010172,-0.692696,0.007032,0.012596,-0.692696,0.300629,-0.163665,-0.636289,-2.343999,0.196111,-13.829490
1790543671.5759,0.023727,0.003792,-0.700961,0.018719,0.006433,-0.700961,0.418401,-0.897007,-0.817196,-1.769080,1.869211,-12.354665
1790543671.5903,0.025804,-0.012136,-0.713247,0.023678,-0.006565,-0.713247,1.014544,0.046381,-1.055168,-0.695896,0.530731,-7.037532
1790543671.6044,0.035904,-0.014928,-0.742805,0.032236,-0.012419,-0.742805,0.405045,-0.434419,-1.140158,-2.075704,4.137191,-6.300119
1790543671.6186,0.036412,-0.019212,-0.765070,0.035160,-0.017174,-0.765070,0.384405,0.091305,-1.060024,-0.197632,2.761531,-7.270399
1790543671.6328,0.039324,-0.024940,-0.784606,0.038075,-0.022611,-0.784606,0.447540,0.014814,-1.018744,-1.730752,2.501271,-8.085434
1790543671.6469,0.043950,-0.030636,-0.801412,0.042188,-0.028228,-0.801412,0.441469,-0.126027,-0.909471,-2.267343,2.835891,-10.181238
1790543671.6612,0.032390,-0.029491,-0.815290,0.035329,-0.029112,-0.815290,-0.106109,1.001911,-0.741919,-4.107087,3.133331,-19.146623
1790543671.6753,0.030618,-0.017496,-0.821767,0.032031,-0.020981,-0.821767,-0.891659,0.457976,-0.512446,-7.134997,1.460231,-12.975644
1790543671.6892,0.028421,-0.008159,-0.822865,0.029504,-0.012005,-0.822865,-0.790885,0.515040,-0.384961,-6.445094,-0.473129,-10.297672
1790543671.7033,0.025040,0.002308,-0.826090,0.026379,-0.001986,-0.826090,-0.724107,0.617028,-0.268404,-2.458983,0.790991,-3.350469
1790543671.7172,0.013345,0.010400,-0.830077,0.017255,0.006684,-0.830077,-0.637903,0.823432,-0.233194,0.300631,0.382011,-3.971448
1790543671.7314,-0.003141,0.024912,-0.834834,0.002978,0.019444,-0.834834,-0.971792,1.322445,-0.060785,-1.654096,1.869211,-6.571797
1790543671.7453,0.005505,0.021784,-0.830375,0.004747,0.021082,-0.830375,0.059015,-0.603185,0.131049,-2.075704,-2.146228,-19.612357
1790543671.7592,0.008598,0.017627,-0.814678,0.007442,0.018664,-0.814678,0.300629,-0.456273,1.046512,0.760567,1.980751,-15.614805
1790543671.7734,0.005725,0.011887,-0.799005,0.006240,0.013920,-0.799005,0.357694,-0.112671,1.005231,1.872079,0.307651,-8.395923
1790543671.7877,0.004937,0.006219,-0.783960,0.005328,0.008529,-0.783960,0.352837,-0.096887,0.994304,-0.312616,0.344831,-7.309210
1790543671.8017,-0.007414,-0.000570,-0.773706,-0.003591,0.002160,-0.773706,0.602950,0.770010,0.900815,-0.159304,1.497411,-4.514804
1790543671.8157,-0.023732,-0.009357,-0.762338,-0.017690,-0.005902,-0.762338,0.681869,0.926634,0.960308,1.833751,2.352551,-9.948371
1790543671.8297,-0.039682,-0.017200,-0.750007,-0.033084,-0.013810,-0.750007,0.609021,0.930277,1.045298,1.373815,2.315371,-9.599070
1790543671.8437,-0.052094,-0.023459,-0.737180,-0.046391,-0.020565,-0.737180,0.504605,0.699590,1.072009,1.258831,2.910251,-10.530539
1790543671.8579,-0.053200,-0.029761,-0.723302,-0.051157,-0.027002,-0.723302,0.482750,-0.053178,1.058654,0.377287,3.133331,-12.509909
1790543671.8719,-0.043381,-0.027427,-0.710003,-0.045714,-0.027299,-0.710003,-0.153460,-0.870296,0.842536,1.642111,2.612811,-13.363756
1790543671.8860,-0.038418,-0.017965,-0.698976,-0.040607,-0.020765,-0.698976,-0.679184,-0.533978,0.639775,1.948735,1.683311,-11.035084
1790543671.9000,-0.031738,-0.008690,-0.681433,-0.034398,-0.012312,-0.681433,-0.765388,-0.791377,0.736906,3.290214,-0.101329,-8.939280
1790543671.9138,-0.019642,0.000521,-0.664438,-0.024069,-0.003329,-0.664438,-0.794527,-1.150763,0.650702,2.485326,-0.510309,-8.589979
1790543671.9277,-0.008068,0.011871,-0.648780,-0.012868,0.007311,-0.648780,-0.958436,-1.124052,0.551142,2.408670,-0.621849,-7.736133
1790543671.9417,-0.000864,0.024647,-0.639043,-0.004465,0.019446,-0.639043,-0.988790,-0.875152,0.450368,3.865134,0.233291,-8.201867
1790543671.9557,-0.000315,0.031556,-0.633774,-0.001560,0.027923,-0.633774,-0.531058,-0.286293,0.309528,3.213558,1.162791,-10.569350
1790543671.9696,-0.002184,0.028707,-0.632522,-0.001997,0.028472,-0.632522,0.079655,0.116802,-0.314541,1.565455,-0.101329,-13.868301
1790543671.9835,0.007399,0.024934,-0.643068,0.004580,0.025995,-0.643068,0.236279,-0.376140,-0.994461,-3.225543,1.943571,-12.315854
1790543671.9974,0.016369,0.018415,-0.662693,0.012833,0.020689,-0.662693,0.578667,-0.416207,-0.971392,-1.347472,3.542311,-8.551168
1790543672.0113,0.020007,0.009231,-0.671599,0.017855,0.012668,-0.671599,0.662443,-0.314219,-0.537943,1.450471,1.460231,-7.503266
1790543672.0257,0.036443,0.001008,-0.676959,0.030866,0.004506,-0.676959,0.503391,-0.944359,-0.735848,-2.650623,1.014071,-11.927742
1790543672.0398,0.049625,-0.009089,-0.689400,0.043997,-0.005011,-0.689400,0.696439,-0.803518,-0.905828,-0.925864,2.241011,-11.617252
1790543672.0540,0.053742,-0.016070,-0.710010,0.050819,-0.012752,-0.710010,0.522817,-0.122384,-1.081879,-0.657568,1.980751,-6.183686
1790543672.0678,0.058328,-0.016745,-0.734611,0.056075,-0.015547,-0.734611,0.158574,-0.136954,-1.120731,-1.002520,2.947431,-6.183686
1790543672.0820,0.060584,-0.019751,-0.753513,0.059231,-0.018490,-0.753513,0.272704,0.009957,-0.886402,-1.155832,2.464091,-6.765853
1790543672.0964,0.065928,-0.025516,-0.766043,0.063919,-0.023408,-0.766043,0.378334,-0.184306,-0.724921,-2.343999,1.720491,-9.210958
1790543672.1104,0.057435,-0.027752,-0.777205,0.059380,-0.026449,-0.777205,0.218067,0.685020,-0.415315,-1.730752,4.285911,-14.411658
1790543672.1245,0.040294,-0.018330,-0.784435,0.046020,-0.020766,-0.784435,-0.691325,1.343085,-0.233194,-3.340527,2.612811,-17.438931
1790543672.1385,0.039998,-0.008972,-0.777349,0.041804,-0.012510,-0.777349,-0.772673,0.292852,0.206326,-7.020013,-0.844929,-10.841028
1790543672.1525,0.039545,0.000226,-0.768990,0.040223,-0.003595,-0.768990,-0.792099,0.264927,0.298601,-5.256926,-1.216729,-8.939280
1790543672.1665,0.033029,0.009298,-0.759015,0.035187,0.005430,-0.759015,-0.810311,0.495614,0.541429,-1.615768,-1.068009,-6.804665
1790543672.1803,0.025077,0.025879,-0.755665,0.028110,0.019744,-0.755665,-1.036142,0.759083,0.361736,-2.343999,2.203831,-4.514804
1790543672.1942,0.016348,0.036030,-0.755210,0.019876,0.031144,-0.755210,-0.851592,0.887782,0.144405,-4.107087,-0.250049,-7.658511
1790543672.2081,0.009247,0.050091,-0.753376,0.012436,0.044407,-0.753376,-0.957222,0.748156,0.166259,-3.378855,2.017931,-6.494175
1790543672.2220,0.019733,0.045551,-0.744708,0.017544,0.045208,-0.744708,0.318841,-0.873938,0.497720,-0.580912,2.315371,-15.381938
1790543672.2359,0.019202,0.038911,-0.728729,0.018704,0.040800,-0.728729,0.500962,-0.315433,1.064724,2.523654,2.055111,-12.703965
1790543672.2499,0.004936,0.031116,-0.713580,0.009066,0.034021,-0.713580,0.572597,0.660737,1.183710,3.136902,2.055111,-13.441378
1790543672.2637,-0.002173,0.022228,-0.699208,0.001199,0.025766,-0.699208,0.704938,0.234573,1.046512,1.028863,1.832031,-7.231588
1790543672.2776,-0.016109,0.014091,-0.684489,-0.010917,0.017593,-0.684489,0.696439,0.601244,1.012516,2.906934,2.315371,-6.455364
1790543672.2913,-0.032910,0.003188,-0.670799,-0.026312,0.007509,-0.670799,0.879775,0.916921,1.108433,2.102047,2.501271,-7.969000
1790543672.3050,-0.044482,-0.008192,-0.655608,-0.039031,-0.003481,-0.655608,0.885845,0.608529,1.237132,1.412143,3.244871,-11.617252
1790543672.3190,-0.057996,-0.013885,-0.640088,-0.052307,-0.010764,-0.640088,0.463324,0.695947,1.205565,2.408670,3.244871,-10.685784
1790543672.3329,-0.059955,-0.016627,-0.627286,-0.057661,-0.014868,-0.627286,0.287273,-0.039823,1.059868,0.952207,3.319231,-9.016902
1790543672.3474,-0.047848,-0.016829,-0.609611,-0.050792,-0.016241,-0.609611,-0.030832,-1.073058,0.878961,3.060246,1.646131,-13.596623
1790543672.3614,-0.043409,-0.010621,-0.594085,-0.045624,-0.012307,-0.594085,-0.528630,-0.564332,0.695625,2.753622,0.344831,-10.220049
1790543672.3754,-0.034661,-0.004937,-0.572487,-0.037950,-0.007148,-0.572487,-0.585695,-0.997781,0.789114,4.286742,-1.291089,-9.405014
1790543672.3893,-0.020796,0.010283,-0.558020,-0.025942,0.005054,-0.558020,-1.156342,-1.297674,0.609421,2.753622,0.530731,-8.201867
1790543672.4044,-0.009013,0.027969,-0.543358,-0.014091,0.021095,-0.543358,-1.271685,-1.110696,0.498934,3.443526,-0.064149,-8.124245
1790543672.4194,-0.011880,0.032410,-0.533745,-0.012543,0.029015,-0.533745,-0.375648,-0.061677,0.403017,4.785005,0.493551,-14.799770
1790543672.4342,-0.016131,0.028435,-0.539763,-0.015055,0.028609,-0.539763,0.281203,0.362058,-0.280545,-0.389272,2.352551,-11.229140
1790543672.4487,0.004484,0.024323,-0.563819,-0.001378,0.025609,-0.563819,0.373477,-0.921290,-0.913113,-6.675061,3.133331,-7.969000
1790543672.4641,-0.002464,0.016949,-0.578255,-0.002138,0.019547,-0.578255,0.572597,0.315921,-0.537943,2.561982,2.092291,-5.329839
1790543672.4782,0.001295,0.010268,-0.582063,0.000265,0.013052,-0.582063,0.426900,-0.201304,-0.473594,-0.044320,1.088431,-10.763406
1790543672.4920,0.013884,0.003368,-0.589253,0.009798,0.006273,-0.589253,0.479108,-0.819302,-0.689711,-0.312616,1.980751,-13.363756
1790543672.5059,0.022225,-0.007878,-0.600766,0.018497,-0.003632,-0.600766,0.719508,-0.410136,-1.081879,-0.887536,0.605091,-9.560259
1790543672.5195,0.025974,-0.011229,-0.618710,0.023731,-0.008950,-0.618710,0.305485,-0.141811,-0.966535,-0.274288,2.092291,-6.843476
1790543672.5331,0.028545,-0.014503,-0.629475,0.027100,-0.012837,-0.629475,0.170716,-0.060463,-0.907042,-0.350944,0.679451,-7.037532
1790543672.5472,0.032001,-0.021981,-0.637482,0.030531,-0.019238,-0.637482,0.445112,-0.099316,-0.737063,-1.232488,0.456371,-9.405014
1790543672.5612,0.036127,-0.027174,-0.644745,0.034448,-0.024793,-0.644745,0.309128,-0.161237,-0.612006,-1.769080,0.902531,-11.850119
1790543672.5751,0.040552,-0.031840,-0.653995,0.038721,-0.029726,-0.653995,0.418401,-0.226801,-0.320612,-1.845736,3.505131,-12.121798
1790543672.5892,0.015838,-0.026954,-0.661015,0.022703,-0.027786,-0.661015,-0.277303,1.734039,-0.057143,0.453943,3.691031,-13.868301
1790543672.6043,0.010453,-0.015566,-0.663412,0.014128,-0.019232,-0.663412,-0.790885,0.668022,0.106766,-8.476477,0.567911,-11.500819
1790543672.6188,0.003848,-0.008164,-0.659223,0.006932,-0.011485,-0.659223,-0.665828,0.776081,0.229395,-5.410238,-1.402628,-6.959909
1790543672.6330,0.000041,0.003483,-0.656316,0.002108,-0.001007,-0.656316,-0.795741,0.490757,0.420015,-2.573967,0.902531,-4.592427
1790543672.6469,-0.011033,0.013256,-0.652589,-0.007090,0.008977,-0.652589,-0.753246,0.942418,0.479508,-3.263871,0.605091,-8.589979
1790543672.6609,-0.013540,0.015606,-0.647505,-0.011605,0.013617,-0.647505,-0.234808,0.315921,0.467366,-4.145415,0.530731,-11.035084
1790543672.6749,0.000993,0.013023,-0.633718,-0.002787,0.013201,-0.633718,0.130649,-1.108268,0.861963,-2.458983,0.790991,-14.256413
1790543672.6888,-0.007089,0.006858,-0.616686,-0.005799,0.008761,-0.616686,0.402617,0.153226,1.251702,4.708349,0.605091,-12.238231
1790543672.7027,-0.021118,0.002922,-0.598211,-0.016522,0.004674,-0.598211,0.323698,0.655881,1.436252,1.987063,1.869211,-8.667602
1790543672.7166,-0.030204,-0.007472,-0.583550,-0.026100,-0.003829,-0.583550,0.729221,0.551465,1.138787,-0.695896,0.939711,-7.037532
1790543672.7305,-0.046535,-0.015114,-0.569880,-0.040405,-0.011729,-0.569880,0.612663,0.845287,1.085365,2.906934,2.166651,-7.813756
1790543672.7441,-0.065643,-0.023777,-0.556040,-0.058072,-0.020163,-0.556040,0.653944,1.134253,1.171569,2.638638,2.315371,-10.375294
1790543672.7577,-0.081536,-0.035054,-0.541710,-0.074497,-0.030587,-0.541710,0.863991,0.941204,1.222563,1.910407,2.538451,-9.172147
1790543672.7716,-0.081263,-0.044335,-0.524849,-0.079233,-0.040210,-0.524849,0.615092,-0.147881,1.233490,0.530599,1.980751,-12.742777
1790543672.7855,-0.077570,-0.041574,-0.508641,-0.078069,-0.041165,-0.508641,-0.223881,-0.453845,1.124217,2.025391,2.315371,-12.354665
1790543672.7995,-0.069182,-0.032720,-0.493600,-0.071848,-0.035253,-0.493600,-0.687683,-0.771950,0.965165,1.757095,1.683311,-12.898021
1790543672.8133,-0.056854,-0.025656,-0.474860,-0.061352,-0.028535,-0.474860,-0.697396,-1.124052,0.932383,2.332014,-1.142369,-10.996273
1790543672.8273,-0.041188,-0.013303,-0.458281,-0.047237,-0.017873,-0.458281,-1.002146,-1.363238,0.814611,2.025391,-0.138509,-8.706413
1790543672.8414,-0.034365,0.000517,-0.442049,-0.038227,-0.005000,-0.442049,-1.127202,-0.839942,0.793971,3.750150,-0.733389,-8.667602
1790543672.8559,-0.020866,0.016049,-0.427934,-0.026074,0.009735,-0.427934,-1.206121,-1.221183,0.575425,2.715294,-0.473129,-8.434735
1790543672.8700,-0.012819,0.030718,-0.420876,-0.016795,0.024423,-0.420876,-1.111418,-0.852084,0.356879,3.405198,0.493551,-9.521448
1790543672.8847,-0.013118,0.033103,-0.423070,-0.014221,0.030499,-0.423070,-0.182600,0.250357,-0.307256,-3.915447,1.943571,-12.432287
1790543672.8989,0.004133,0.024923,-0.431726,-0.001373,0.026596,-0.431726,0.536172,-0.884866,-0.994461,-4.873646,2.055111,-15.653616
1790543672.9136,0.012052,0.029872,-0.453201,0.008025,0.028889,-0.453201,-0.053901,-0.246227,-0.652073,-3.302199,6.293630,-6.727042
1790543672.9284,0.006118,0.025005,-0.458984,0.006690,0.026170,-0.458984,0.255706,0.539323,-0.427456,-1.194160,0.790991,-10.181238
1790543672.9423,0.021739,0.020461,-0.464352,0.017224,0.022173,-0.464352,0.247207,-0.888508,-0.706709,-3.340527,0.902531,-13.053266
1790543672.9559,0.030246,0.011748,-0.477417,0.026339,0.014875,-0.477417,0.611449,-0.285079,-1.060024,-2.382327,1.385871,-7.153965
1790543672.9693,0.028470,0.010955,-0.495529,0.027831,0.012131,-0.495529,0.162217,0.239430,-1.102519,0.492271,2.687171,-6.067252
1790543672.9824,0.033171,0.011329,-0.511684,0.031569,0.011570,-0.511684,0.069942,-0.053178,-1.056382,-1.654096,2.464091,-5.756762
1790543672.9961,0.036487,0.005607,-0.524613,0.035012,0.007396,-0.524613,0.310342,-0.004613,-0.973820,-1.385800,0.493551,-7.386832
1790543673.0101,0.037832,-0.000117,-0.536909,0.036986,0.002137,-0.536909,0.362550,0.092519,-0.854834,-1.577440,1.683311,-10.569350
1790543673.0243,0.045922,-0.004317,-0.545500,0.043241,-0.002380,-0.545500,0.244778,-0.376140,-0.650858,-2.612295,1.311511,-10.802217
1790543673.0385,0.038821,-0.002621,-0.550104,0.040147,-0.002549,-0.550104,-0.101252,0.538109,-0.240478,-0.695896,2.873071,-13.208511
1790543673.0526,0.026412,0.006622,-0.554318,0.030532,0.003871,-0.554318,-0.652473,1.050477,-0.086282,-5.065286,2.984611,-16.274595
1790543673.0665,0.020689,0.021041,-0.555815,0.023642,0.015890,-0.555815,-1.044641,0.659523,0.076413,-5.640206,1.832031,-11.112707
