t,imu_roll,imu_pitch,imu_yaw,lpf_roll,lpf_pitch,lpf_yaw,gyro_x,gyro_y,gyro_z,acc_x,acc_y,acc_z
1790545680.1675,0.023574,-0.028311,0.012025,0.016501,-0.019818,0.012025,-0.006224,-0.009726,0.003194,-0.005993,1.311511,-9.909560
1790545680.1828,0.012192,-0.030947,0.007684,0.013485,-0.027608,0.007684,0.022916,0.007272,0.009265,0.223975,1.274331,-9.831937
1790545680.1965,0.014652,-0.032935,0.009357,0.014302,-0.031337,0.009357,0.005918,0.004844,0.012908,0.032335,1.274331,-10.103616
1790545680.2102,0.010294,-0.032639,0.007328,0.011496,-0.032249,0.007328,-0.011080,-0.000013,0.008051,0.262303,1.311511,-10.025993
1790545680.2243,0.015152,-0.034131,0.010285,0.014055,-0.033566,0.010285,-0.029292,-0.000013,0.003194,-0.120976,1.237151,-10.220049
1790545680.2383,0.013791,-0.033347,0.009742,0.013870,-0.033413,0.009742,-0.040220,0.020628,0.008051,0.147319,1.311511,-10.025993
1790545680.2525,0.014810,-0.034400,0.011631,0.014528,-0.034104,0.011631,-0.048719,0.067979,0.045689,-0.044320,1.237151,-10.491728
1790545680.2667,0.018167,-0.033257,0.016201,0.017076,-0.033511,0.016201,-0.080286,0.108046,0.100326,-0.312616,1.311511,-10.103616
1790545680.2805,0.019866,-0.030286,0.020841,0.019029,-0.031253,0.020841,-0.156777,0.095904,0.169532,-0.235960,1.385871,-9.948371
1790545680.2947,0.020483,-0.027728,0.025083,0.020047,-0.028786,0.025083,-0.211414,0.042482,0.256950,-0.120976,1.237151,-9.405014
1790545680.3088,0.020599,-0.022445,0.032243,0.020434,-0.024347,0.032243,-0.224769,-0.128712,0.413574,0.108991,1.534591,-9.443825
1790545680.3229,0.015644,-0.022427,0.036874,0.017081,-0.023003,0.036874,-0.161634,-0.032795,0.571413,0.568927,1.199971,-10.375294
1790545680.3368,0.005490,-0.026154,0.038666,0.008967,-0.025209,0.038666,-0.087571,0.025484,0.638191,1.067191,0.679451,-8.822846
1790545680.3509,0.005511,-0.017863,0.044941,0.006548,-0.020066,0.044941,-0.059646,0.127472,0.601766,-0.197632,2.278191,-9.172147
1790545680.3648,0.009020,-0.018188,0.053439,0.008278,-0.018752,0.053439,-0.132494,-0.111714,0.483995,-0.274288,1.162791,-10.025993
1790545680.3788,0.012754,-0.021723,0.059922,0.011411,-0.020831,0.059922,-0.080286,-0.151781,0.356510,-0.274288,0.790991,-10.996273
1790545680.3926,0.010260,-0.019294,0.061154,0.010605,-0.019755,0.061154,-0.094856,-0.054649,0.283661,0.568927,1.646131,-10.103616
1790545680.4066,0.008183,-0.019161,0.063013,0.008910,-0.019339,0.063013,0.054483,-0.082574,0.312801,0.568927,1.534591,-9.560259
1790545680.4202,-0.000173,-0.021360,0.061741,0.002552,-0.020754,0.061741,0.088479,0.166325,0.231453,1.028863,1.014071,-8.163056
1790545680.4339,0.000368,-0.022958,0.065852,0.001023,-0.022297,0.065852,0.133403,0.129900,0.147677,-0.235960,1.311511,-9.016902
1790545680.4479,-0.001501,-0.022863,0.065604,-0.000744,-0.022693,0.065604,0.066625,0.091048,0.095469,0.338959,1.646131,-10.181238
1790545680.4617,0.000400,-0.019504,0.066011,0.000057,-0.020461,0.066011,-0.100927,-0.099572,0.116110,0.070663,1.906391,-10.220049
1790545680.4756,0.002852,-0.013393,0.065348,0.002014,-0.015513,0.065348,-0.160420,-0.356971,0.176817,0.722239,2.538451,-10.608161
1790545680.4894,0.004347,-0.007671,0.067758,0.003647,-0.010024,0.067758,-0.250266,-0.377611,0.203528,0.990535,2.203831,-10.452916
1790545680.5036,0.002025,-0.003498,0.072160,0.002512,-0.005456,0.072160,-0.222341,-0.112928,0.191386,1.182175,2.092291,-11.190329
1790545680.5183,-0.001400,-0.007535,0.053180,-0.000227,-0.006911,0.053180,0.620274,0.503856,-0.093937,-0.810880,3.430771,-12.044175
1790545680.5323,0.003824,-0.006173,0.025584,0.002609,-0.006395,0.025584,0.632415,0.207606,-0.386545,-1.884064,4.657711,-10.414105
1790545680.5463,0.013089,-0.003677,0.002923,0.009945,-0.004493,0.002923,0.155257,-0.262267,-0.856418,-0.810880,2.575631,-8.978091
1790545680.5602,0.019319,-0.005157,-0.014709,0.016506,-0.004958,-0.014709,0.070267,-0.246484,-1.172095,-0.044320,1.460231,-10.336483
1790545680.5742,0.008836,0.000826,0.026226,0.011137,-0.000909,0.026226,-0.064503,0.390941,-1.197592,1.680439,2.389731,-7.425644
1790545680.5881,0.009847,0.001426,-0.000950,0.010234,0.000725,-0.000950,-0.113068,0.256171,-1.213376,-0.312616,1.125611,-8.784035
1790545680.6021,0.021431,-0.005524,-0.051150,0.018072,-0.003649,-0.051150,0.126118,-0.190633,-1.294723,-1.730752,-0.064149,-9.909560
1790545680.6160,0.019939,-0.010518,-0.065506,0.019379,-0.008457,-0.065506,0.167399,0.200321,-1.419780,0.683911,0.790991,-11.733686
1790545680.6299,0.018693,-0.004718,-0.080546,0.018899,-0.005839,-0.080546,-0.236911,0.263456,-1.623756,0.377287,2.389731,-9.948371
1790545680.6436,0.010669,0.000551,-0.091135,0.013138,-0.001366,-0.091135,-0.331614,0.662909,-1.599473,0.913879,1.757671,-9.560259
1790545680.6572,0.009468,0.000373,-0.119028,0.010569,-0.000149,-0.119028,-0.040220,0.451648,-1.385784,-0.427600,1.199971,-9.249770
1790545680.6708,0.006511,0.000562,-0.123642,0.007728,0.000348,-0.123642,-0.029292,0.219747,-1.088319,0.875551,1.311511,-8.784035
1790545680.6848,0.003113,0.004022,-0.133478,0.004497,0.002920,-0.133478,-0.155563,0.333876,-0.955978,0.453943,1.720491,-8.357112
1790545680.6993,-0.001263,0.011433,-0.143095,0.000465,0.008879,-0.143095,-0.377751,0.395798,-0.852776,0.492271,2.166651,-9.055714
1790545680.7133,0.001877,0.017465,-0.172673,0.001453,0.014889,-0.172673,-0.354682,0.182109,-0.898913,-1.232488,2.464091,-11.617252
1790545680.7272,0.010541,0.001271,-0.174570,0.007815,0.005356,-0.174570,0.908025,-0.620439,-0.473963,0.760567,0.344831,-15.459560
1790545680.7412,0.000321,-0.004359,-0.108474,0.002569,-0.001444,-0.108474,0.787825,-0.137211,0.130679,3.520182,2.724351,-6.144874
1790545680.7554,-0.007700,-0.009238,-0.106539,-0.004620,-0.006900,-0.106539,0.288813,0.569420,0.314015,0.070663,1.385871,-11.112707
1790545680.7701,-0.008449,-0.011129,-0.095656,-0.007300,-0.009860,-0.095656,-0.014723,-0.010940,0.464568,0.300631,0.902531,-12.199420
1790545680.7843,-0.006789,-0.018764,-0.070746,-0.006942,-0.016093,-0.070746,0.347092,-0.352114,1.019431,0.683911,0.456371,-9.055714
1790545680.7984,-0.006757,-0.025909,-0.074952,-0.006813,-0.022964,-0.074952,0.203823,0.177252,1.156629,-1.424128,-0.250049,-8.046623
1790545680.8123,-0.000221,-0.027325,-0.078643,-0.002198,-0.026016,-0.078643,-0.007438,-0.235556,1.070425,-1.845736,0.753811,-8.667602
1790545680.8262,0.006746,-0.031318,-0.076582,0.004063,-0.029727,-0.076582,0.013203,-0.380039,0.794815,-1.424128,-0.324409,-11.112707
1790545680.8401,-0.000927,-0.037301,-0.070555,0.000570,-0.035029,-0.070555,0.156471,0.330234,0.751106,1.105519,-0.435949,-10.646972
1790545680.8541,-0.009136,-0.043217,-0.060894,-0.006225,-0.040760,-0.060894,0.305811,0.363016,0.865235,1.105519,0.567911,-9.948371
1790545680.8679,-0.014762,-0.050449,-0.047024,-0.012201,-0.047543,-0.047024,0.481861,0.347232,0.991506,0.032335,1.088431,-10.103616
1790545680.8815,-0.016628,-0.051394,-0.032099,-0.015300,-0.050239,-0.032099,0.164970,0.286525,0.889518,-1.194160,1.906391,-9.599070
1790545680.8950,-0.012759,-0.049280,-0.018262,-0.013522,-0.049567,-0.018262,-0.005010,-0.049793,0.770532,-1.539112,1.980751,-8.279490
1790545680.9090,-0.014576,-0.049702,-0.007112,-0.014260,-0.049662,-0.007112,0.053269,0.007272,0.638191,0.722239,1.423051,-9.793126
1790545680.9230,-0.015994,-0.050539,0.004722,-0.015474,-0.050276,0.004722,0.172255,0.025484,0.507063,0.568927,2.203831,-10.646972
1790545680.9368,-0.013942,-0.048981,0.014884,-0.014401,-0.049369,0.014884,0.019273,-0.190633,0.396576,0.415615,2.687171,-12.160609
1790545680.9507,-0.009588,-0.041631,0.026878,-0.011032,-0.043953,0.026878,-0.436030,-0.576730,0.168318,2.638638,2.464091,-12.471098
1790545680.9647,-0.008776,-0.028822,0.031081,-0.009452,-0.033362,0.031081,-0.983608,-0.553662,0.001980,4.593365,0.865351,-10.724595
1790545680.9786,-0.003414,-0.016174,0.033767,-0.005225,-0.021330,0.033767,-1.043101,-0.825629,-0.127933,3.481854,0.344831,-8.978091
1790545680.9925,0.007833,-0.007843,0.036266,0.003916,-0.011889,0.036266,-0.682501,-1.147377,-0.191068,1.603783,0.493551,-5.446273
1790545681.0066,-0.004281,-0.014580,0.039050,-0.001822,-0.013773,0.039050,0.385944,0.626485,-0.119434,2.830278,0.902531,-12.121798
1790545681.0212,-0.000334,-0.023659,0.036357,-0.000780,-0.020693,0.036357,0.565637,-0.117785,-0.619660,-0.427600,1.199971,-14.334035
1790545681.0355,0.007958,-0.020221,-0.006426,0.005336,-0.020363,-0.006426,0.004704,-0.469886,-1.212162,0.683911,3.505131,-10.879840
1790545681.0494,0.001554,-0.025874,-0.009181,0.002689,-0.024220,-0.009181,0.286385,0.295024,-1.286224,2.638638,0.233291,-8.434735
1790545681.0633,0.000618,-0.028893,-0.034478,0.001240,-0.027491,-0.034478,0.271815,-0.193061,-1.002115,1.948735,0.828171,-5.291028
1790545681.0773,0.024175,-0.038094,-0.047457,0.017295,-0.034913,-0.047457,0.560781,-1.153448,-0.997259,-2.918919,0.233291,-8.085434
1790545681.0924,0.027300,-0.053631,-0.055906,0.024298,-0.048016,-0.055906,0.968732,-0.200346,-1.121101,1.143847,0.642271,-10.802217
1790545681.1068,0.039383,-0.058809,-0.101071,0.034858,-0.055571,-0.101071,0.551068,-0.763708,-1.232802,0.338959,2.501271,-9.210958
1790545681.1215,0.044010,-0.062947,-0.125339,0.041265,-0.060735,-0.125339,0.361661,-0.383682,-1.167239,1.488799,1.869211,-9.948371
1790545681.1357,0.045094,-0.067757,-0.143109,0.043945,-0.065650,-0.143109,0.382302,-0.061934,-0.856418,0.415615,1.534591,-10.530539
1790545681.1506,0.031003,-0.068789,-0.152459,0.034885,-0.067847,-0.152459,0.058126,0.974943,-0.671869,0.377287,1.199971,-12.548721
1790545681.1646,0.023525,-0.062455,-0.161738,0.026933,-0.064073,-0.161738,-0.507664,0.801321,-0.563810,-2.650623,0.679451,-13.790679
1790545681.1786,0.019813,-0.056653,-0.137294,0.021949,-0.058879,-0.137294,-0.711640,0.585204,-0.460608,-2.573967,-1.588528,-10.297672
1790545681.1928,0.012739,-0.044234,-0.141976,0.015502,-0.048628,-0.141976,-1.066170,0.949446,-0.409614,-2.688951,-0.547489,-6.959909
1790545681.2068,0.003549,-0.026469,-0.150169,0.007135,-0.033117,-0.150169,-1.316283,0.989513,-0.312483,-1.539112,0.567911,-6.261308
1790545681.2208,-0.009370,-0.012086,-0.151573,-0.004418,-0.018395,-0.151573,-1.140232,1.126711,-0.257846,-1.117504,0.270471,-9.443825
1790545681.2348,-0.010194,-0.003910,-0.152300,-0.008462,-0.008255,-0.152300,-0.727424,0.341161,-0.178927,-2.803935,0.196111,-13.635434
1790545681.2488,-0.007706,-0.005685,-0.147808,-0.007933,-0.006456,-0.147808,-0.126424,-0.108071,0.314015,-1.462456,-1.291089,-17.206063
1790545681.2628,-0.010803,-0.003556,-0.138689,-0.009942,-0.004426,-0.138689,-0.187131,0.089834,0.737750,0.453943,1.348691,-9.094525
1790545681.2774,-0.008433,-0.008497,-0.127484,-0.008886,-0.007276,-0.127484,0.285170,-0.281694,0.738965,0.262303,1.014071,-7.969000
1790545681.2916,-0.011237,-0.014434,-0.116021,-0.010531,-0.012286,-0.116021,0.479433,0.228246,0.533775,-0.619240,1.943571,-8.589979
1790545681.3056,-0.027165,-0.022406,-0.117509,-0.022175,-0.019370,-0.117509,0.568066,0.917879,0.609051,2.025391,1.720491,-10.685784
1790545681.3197,-0.039240,-0.031351,-0.108610,-0.034120,-0.027757,-0.108610,0.653055,0.727258,0.839738,0.952207,2.129471,-11.035084
1790545681.3334,-0.054044,-0.038532,-0.105488,-0.048067,-0.035299,-0.105488,0.673696,0.874170,0.929585,1.565455,2.835891,-8.434735
1790545681.3469,-0.064255,-0.043474,-0.098631,-0.059398,-0.041021,-0.098631,0.529213,0.698119,0.921086,0.300631,2.984611,-8.201867
1790545681.3606,-0.064949,-0.049021,-0.093686,-0.063284,-0.046621,-0.093686,0.603276,0.121401,0.751106,-0.580912,3.096151,-7.891378
1790545681.3745,-0.060082,-0.054582,-0.082021,-0.061043,-0.052194,-0.082021,0.389587,-0.451674,0.735322,1.450471,2.352551,-14.139979
1790545681.3884,-0.052082,-0.053498,-0.070387,-0.054770,-0.053107,-0.070387,-0.143422,-0.734569,0.509492,2.561982,1.237151,-13.984735
1790545681.4025,-0.049009,-0.051476,-0.054163,-0.050737,-0.051965,-0.054163,-0.321901,-0.553662,0.521633,4.325070,-0.473129,-11.384385
1790545681.4165,-0.045406,-0.044157,-0.047251,-0.047006,-0.046499,-0.047251,-0.615723,-0.732140,0.437857,3.520182,0.307651,-6.106063
1790545681.4305,-0.039019,-0.033463,-0.035844,-0.041415,-0.037374,-0.035844,-0.860980,-0.717571,0.371079,2.523654,0.493551,-8.589979
1790545681.4445,-0.026618,-0.020624,-0.024881,-0.031057,-0.025649,-0.024881,-1.016390,-1.100025,0.207170,2.217030,0.456371,-8.861658
1790545681.4584,-0.015353,-0.006446,-0.031162,-0.020065,-0.012207,-0.031162,-1.029745,-1.124308,0.059045,3.635166,1.423051,-9.637881
1790545681.4729,-0.007872,0.009729,-0.046154,-0.011530,0.003148,-0.046154,-1.067384,-0.840199,-0.120648,3.520182,1.757671,-7.891378
1790545681.4873,-0.021817,0.002915,-0.009773,-0.018731,0.002985,-0.009773,0.222035,0.910594,-0.464250,3.136902,-1.476988,-14.023546
1790545681.5012,-0.019995,-0.000207,-0.033157,-0.019616,0.000751,-0.033157,0.319166,0.212462,-1.036111,-2.075704,2.873071,-13.713056
1790545681.5157,-0.012402,-0.002109,-0.087998,-0.014566,-0.001251,-0.087998,0.392015,-0.400680,-1.019113,0.492271,2.575631,-6.494175
1790545681.5299,-0.011067,-0.012134,-0.075164,-0.012117,-0.008869,-0.075164,0.602061,-0.082574,-0.495818,0.952207,0.307651,-8.784035
1790545681.5440,0.001641,-0.026067,-0.075310,-0.002487,-0.020908,-0.075310,0.949306,-0.602227,-0.668226,-2.612295,0.902531,-11.733686
1790545681.5582,0.019016,-0.032902,-0.116275,0.012565,-0.029304,-0.116275,0.659126,-0.917904,-1.061608,-2.114032,3.282051,-10.452916
1790545681.5721,0.024242,-0.041230,-0.143025,0.020739,-0.037652,-0.143025,0.678552,-0.212488,-1.275297,-0.082648,1.832031,-9.094525
1790545681.5859,0.032017,-0.044253,-0.183245,0.028634,-0.042272,-0.183245,0.435724,-0.404322,-1.118673,-0.235960,2.352551,-6.377742
1790545681.6002,0.028838,-0.050671,-0.210848,0.028777,-0.048152,-0.210848,0.566851,0.386084,-0.829707,-0.695896,2.166651,-8.628791
1790545681.6141,0.012416,-0.046507,-0.223338,0.017324,-0.047000,-0.223338,-0.313402,1.489740,-0.749574,-3.838791,1.460231,-15.459560
1790545681.6281,0.015085,-0.035091,-0.215173,0.015757,-0.038664,-0.215173,-0.898618,0.242816,-0.778713,-6.215126,0.307651,-14.683336
1790545681.6427,0.016944,-0.025355,-0.209592,0.016588,-0.029348,-0.209592,-0.860980,0.196678,-0.731362,-3.340527,-1.365448,-11.772497
1790545681.6567,0.004963,-0.007098,-0.221898,0.008450,-0.013773,-0.221898,-1.287144,0.973729,-0.727719,0.070663,0.828171,-5.174595
1790545681.6706,-0.009202,0.009443,-0.230915,-0.003907,0.002478,-0.230915,-1.225222,1.121855,-0.669440,0.147319,0.270471,-2.496623
1790545681.6847,-0.016864,0.019738,-0.237786,-0.012977,0.014560,-0.237786,-0.830626,0.832889,-0.631802,-1.884064,0.307651,-11.772497
1790545681.6989,-0.010075,0.007976,-0.236195,-0.010945,0.009951,-0.236195,0.708906,-0.414035,-0.135218,-0.427600,0.530731,-19.961658
1790545681.7129,-0.015416,0.005565,-0.229064,-0.014075,0.006881,-0.229064,0.239033,0.318092,0.596910,-0.005993,4.174371,-14.993826
1790545681.7270,-0.021180,0.001244,-0.216579,-0.019048,0.002935,-0.216579,0.209894,0.281668,0.904088,0.185647,0.790991,-8.861658
1790545681.7414,-0.023873,-0.012987,-0.205303,-0.022426,-0.008210,-0.205303,0.764757,0.149327,0.577484,-0.159304,-1.030829,-9.560259
1790545681.7554,-0.034252,-0.024533,-0.201344,-0.030704,-0.019636,-0.201344,0.779326,0.721188,0.348011,0.300631,0.976891,-9.948371
1790545681.7696,-0.054186,-0.034591,-0.195632,-0.047141,-0.030105,-0.195632,0.730761,1.296691,0.626049,1.373815,2.203831,-11.190329
1790545681.7838,-0.065597,-0.045896,-0.183417,-0.060061,-0.041158,-0.183417,0.807252,0.807392,0.786316,-0.312616,2.166651,-10.569350
1790545681.7975,-0.074225,-0.051567,-0.169753,-0.069976,-0.048445,-0.169753,0.474577,0.599773,0.867664,0.147319,2.649991,-9.327392
1790545681.8112,-0.075507,-0.054985,-0.156949,-0.073847,-0.053023,-0.156949,0.242675,0.144470,0.864021,-0.734224,1.869211,-9.172147
1790545681.8253,-0.067340,-0.060429,-0.145618,-0.069292,-0.058207,-0.145618,0.240247,-0.582801,0.950225,-0.427600,0.419191,-11.112707
1790545681.8393,-0.061257,-0.060418,-0.136511,-0.063668,-0.059755,-0.136511,-0.143422,-0.489312,0.816670,0.607255,0.233291,-12.859210
1790545681.8534,-0.055712,-0.059435,-0.128458,-0.058098,-0.059531,-0.128458,-0.280620,-0.664148,0.879805,3.328542,-0.807749,-10.763406
1790545681.8673,-0.050028,-0.054948,-0.119428,-0.052449,-0.056323,-0.119428,-0.517378,-0.723641,0.804528,3.136902,-0.584669,-8.201867
1790545681.8813,-0.044111,-0.047493,-0.111338,-0.046612,-0.050142,-0.111338,-0.729852,-0.683575,0.619979,2.600310,-0.696209,-8.240679
1790545681.8954,-0.032807,-0.033958,-0.108004,-0.036949,-0.038813,-0.108004,-1.050386,-1.045389,0.437857,3.060246,0.567911,-10.297672
1790545681.9094,-0.019800,-0.016661,-0.106639,-0.024945,-0.023306,-0.106639,-1.298071,-1.164375,0.227811,3.213558,0.828171,-10.452916
1790545681.9239,-0.009104,0.003561,-0.102534,-0.013856,-0.004499,-0.102534,-1.459552,-1.097597,0.159819,3.635166,0.642271,-7.076343
1790545681.9381,0.004351,0.024279,-0.110198,-0.001111,0.015646,-0.110198,-1.404915,-1.147377,0.086970,1.565455,1.571771,-6.106063
1790545681.9524,-0.014652,0.016293,-0.076205,-0.010590,0.016099,-0.076205,0.300954,1.307618,-0.260274,2.830278,-2.518028,-15.110259
1790545681.9663,-0.009277,0.006811,-0.083907,-0.009671,0.009597,-0.083907,0.770827,-0.078932,-0.924410,-2.152360,3.244871,-12.898021
1790545681.9803,-0.000247,0.006537,-0.135016,-0.003075,0.007455,-0.135016,0.294884,-0.599799,-1.022756,1.220503,3.430771,-6.610609
1790545681.9941,-0.002531,0.002797,-0.153618,-0.002694,0.004194,-0.153618,0.341021,0.122616,-0.658513,2.332014,2.352551,-9.948371
1790545682.0082,0.010067,-0.005509,-0.139579,0.006239,-0.002598,-0.139579,0.563209,-0.537878,-0.851562,-3.187215,1.199971,-10.608161
1790545682.0223,0.024748,-0.016716,-0.156180,0.019195,-0.012481,-0.156180,0.897098,-0.767351,-1.049467,-1.730752,2.687171,-9.599070
1790545682.0365,0.034980,-0.025437,-0.181197,0.030244,-0.021550,-0.181197,0.725904,-0.547591,-1.134457,-0.312616,2.575631,-8.434735
1790545682.0504,0.038594,-0.028846,-0.207992,0.036089,-0.026657,-0.207992,0.415084,-0.131140,-1.057966,-0.005993,2.389731,-6.144874
1790545682.0645,0.048906,-0.039652,-0.224315,0.045061,-0.035753,-0.224315,0.772041,-0.546377,-1.079820,-0.887536,1.423051,-9.055714
1790545682.0787,0.034934,-0.047173,-0.244206,0.037972,-0.043747,-0.244206,0.559567,1.120640,-0.983903,-0.657568,3.951291,-21.281238
1790545682.0927,0.022608,-0.033097,-0.248937,0.027217,-0.036292,-0.248937,-1.017604,1.212915,-0.809067,-4.796990,1.869211,-15.071448
1790545682.1067,0.023820,-0.019587,-0.227032,0.024839,-0.024599,-0.227032,-1.106236,0.350874,-0.671869,-5.601878,-0.807749,-10.608161
1790545682.1206,0.013852,-0.002231,-0.232202,0.017148,-0.008942,-0.232202,-1.372134,1.183776,-0.546812,-2.842263,-0.212869,-5.019350
1790545682.1346,-0.001124,0.014178,-0.241586,0.004358,0.007242,-0.241586,-1.126877,1.345257,-0.631802,-0.350944,0.419191,-1.875644
1790545682.1485,-0.008246,0.024675,-0.247304,-0.004465,0.019445,-0.247304,-0.540446,0.696905,-0.819994,-0.044320,2.129471,-4.514804
1790545682.1624,0.007467,0.012153,-0.254572,0.003887,0.014341,-0.254572,0.951734,-0.881480,-0.543170,-2.995575,3.282051,-13.674245
1790545682.1764,-0.004614,0.014263,-0.242285,-0.002063,0.014286,-0.242285,0.001061,0.651982,0.267877,3.481854,4.806431,-11.462007
1790545682.1903,-0.006336,0.008699,-0.249276,-0.005054,0.010375,-0.249276,0.254817,0.168753,0.589625,-2.190688,-0.026969,-12.665154
1790545682.2043,-0.006288,0.004536,-0.238032,-0.005918,0.006288,-0.238032,0.285170,-0.169993,0.675829,0.990535,1.757671,-9.793126
1790545682.2186,-0.006653,-0.002223,-0.239676,-0.006433,0.000330,-0.239676,0.360447,0.065551,0.539845,-0.849208,0.121751,-5.601518
1790545682.2325,-0.023352,-0.012261,-0.224852,-0.018276,-0.008484,-0.224852,0.689480,0.838959,0.952654,2.217030,0.865351,-5.834385
1790545682.2460,-0.029633,-0.023716,-0.212265,-0.026226,-0.019147,-0.212265,0.815751,0.386084,0.997577,-0.312616,1.608951,-9.870749
1790545682.2602,-0.041214,-0.029610,-0.194129,-0.036717,-0.026471,-0.194129,0.435724,0.666551,1.115349,0.798895,2.538451,-10.258860
1790545682.2740,-0.041858,-0.032170,-0.179067,-0.040315,-0.030460,-0.179067,0.257245,0.065551,1.001219,-1.270816,2.761531,-8.279490
1790545682.2883,-0.042483,-0.033405,-0.165357,-0.041833,-0.032521,-0.165357,0.053269,-0.057077,0.889518,0.453943,1.683311,-10.103616
1790545682.3025,-0.036678,-0.037423,-0.164285,-0.038225,-0.035953,-0.164285,0.117619,-0.446817,0.768104,-0.389272,-0.435949,-12.703965
1790545682.3166,-0.030347,-0.033124,-0.151198,-0.032711,-0.033973,-0.151198,-0.375323,-0.632581,0.774175,1.987063,1.125611,-11.694875
1790545682.3306,-0.024137,-0.026357,-0.142091,-0.026709,-0.028642,-0.142091,-0.593868,-0.639866,0.640619,1.987063,0.307651,-10.064805
1790545682.3445,-0.016387,-0.016843,-0.131154,-0.019484,-0.020383,-0.131154,-0.761420,-0.830486,0.476710,2.830278,0.530731,-8.357112
1790545682.3586,-0.006196,-0.006414,-0.123285,-0.010182,-0.010605,-0.123285,-0.818485,-0.956757,0.317657,2.370342,0.530731,-8.240679
1790545682.3726,0.004356,0.007068,-0.117421,-0.000005,0.001766,-0.117421,-0.996964,-0.993181,0.170746,2.791950,1.125611,-8.706413
1790545682.3865,0.013037,0.020015,-0.115108,0.009124,0.014541,-0.115108,-0.933828,-0.794062,0.004409,2.293686,1.646131,-9.249770
1790545682.4005,0.005959,0.018681,-0.118034,0.006909,0.017439,-0.118034,0.005918,0.388513,-0.448466,4.286742,0.493551,-13.092077
1790545682.4145,0.010315,0.013529,-0.134458,0.009293,0.014702,-0.134458,0.422368,0.007272,-1.042182,-2.229015,2.761531,-11.811308
1790545682.4285,0.025862,0.003195,-0.148108,0.020892,0.006647,-0.148108,0.682195,-0.683575,-1.315364,-2.957247,0.642271,-9.094525
1790545682.4425,0.029991,-0.004354,-0.158279,0.027261,-0.001054,-0.158279,0.563209,-0.196704,-0.707079,0.070663,1.237151,-6.222497
1790545682.4565,0.033503,-0.016245,-0.165461,0.031631,-0.011687,-0.165461,0.806037,-0.118999,-0.618446,-0.849208,1.199971,-12.665154
1790545682.4704,0.053600,-0.023423,-0.180319,0.047009,-0.019903,-0.180319,0.585064,-1.170446,-1.144170,-2.765607,3.282051,-12.044175
1790545682.4840,0.060639,-0.032773,-0.198125,0.056550,-0.028912,-0.198125,0.693122,-0.275623,-1.323863,-1.347472,1.980751,-9.831937
1790545682.4976,0.061361,-0.037991,-0.214396,0.059918,-0.035267,-0.214396,0.520714,-0.015797,-1.192736,0.875551,2.687171,-6.571797
1790545682.5116,0.070632,-0.045845,-0.228303,0.067418,-0.042672,-0.228303,0.534070,-0.533021,-1.034897,-0.504256,1.125611,-8.163056
1790545682.5258,0.061621,-0.056304,-0.239425,0.063360,-0.052214,-0.239425,0.691908,0.684763,-0.798139,0.377287,1.608951,-16.352217
1790545682.5400,0.048941,-0.046576,-0.256682,0.053267,-0.048267,-0.256682,-0.718925,1.121855,-0.767786,-4.222071,1.869211,-17.710609
1790545682.5540,0.052155,-0.031007,-0.273111,0.052489,-0.036185,-0.273111,-1.236150,0.065551,-0.728933,-5.180270,-0.324409,-14.916203
1790545682.5679,0.051498,-0.015005,-0.290476,0.051795,-0.021359,-0.290476,-1.311426,0.376371,-0.856418,-2.497311,-0.547489,-7.115154
1790545682.5818,0.028032,0.002478,-0.294442,0.035161,-0.004673,-0.294442,-1.453481,1.357398,-0.527386,2.293686,-0.510309,-2.768301
1790545682.5958,0.021632,0.018066,-0.298998,0.025691,0.011244,-0.298998,-1.105022,0.817105,-0.731362,-0.925864,0.530731,-2.651867
1790545682.6097,0.013541,0.027740,-0.310296,0.017186,0.022791,-0.310296,-0.700713,0.790394,-0.759287,-0.887536,2.278191,-12.665154
1790545682.6237,0.018174,0.023558,-0.319613,0.017877,0.023328,-0.319613,0.224463,-0.296263,-0.438753,1.105519,1.162791,-15.808861
1790545682.6378,0.005396,0.021975,-0.316286,0.009140,0.022381,-0.316286,0.203823,0.738186,0.448785,2.638638,4.955151,-14.566903
1790545682.6515,-0.003525,0.019186,-0.309215,0.000275,0.020144,-0.309215,0.164970,0.356945,0.848237,2.370342,1.460231,-9.715504
1790545682.6654,-0.002145,0.011136,-0.294683,-0.001419,0.013839,-0.294683,0.557138,-0.194275,0.894375,-0.657568,1.571771,-8.900469
1790545682.6794,-0.005083,0.002852,-0.288003,-0.003984,0.006148,-0.288003,0.381088,0.193036,0.448785,-0.350944,-0.844929,-6.028441
1790545682.6932,-0.026890,-0.007633,-0.286777,-0.020018,-0.003499,-0.286777,0.722262,1.373182,0.736536,2.446998,1.385871,-11.151518
1790545682.7071,-0.035729,-0.019231,-0.274133,-0.031016,-0.014511,-0.274133,0.863102,0.549994,0.845809,0.070663,2.315371,-9.055714
1790545682.7210,-0.047942,-0.025504,-0.264581,-0.042864,-0.022206,-0.264581,0.520714,0.726044,0.854308,1.450471,3.319231,-10.258860
1790545682.7348,-0.053338,-0.030552,-0.249557,-0.050196,-0.028048,-0.249557,0.400514,0.296238,1.018217,0.185647,3.282051,-10.879840
1790545682.7488,-0.047880,-0.030887,-0.234277,-0.048575,-0.030035,-0.234277,-0.018365,-0.516023,1.006076,0.607255,2.055111,-10.918651
1790545682.7628,-0.043226,-0.029233,-0.221756,-0.044831,-0.029474,-0.221756,-0.219913,-0.500239,0.874948,1.680439,0.902531,-12.005364
1790545682.7770,-0.038124,-0.027048,-0.210946,-0.040136,-0.027776,-0.210946,-0.202915,-0.581587,0.774175,2.063719,1.199971,-8.434735
1790545682.7921,-0.032498,-0.026183,-0.197373,-0.034789,-0.026661,-0.197373,-0.246624,-0.534235,0.661259,1.603783,-1.068009,-9.870749
1790545682.8057,-0.022796,-0.014515,-0.193040,-0.026394,-0.018159,-0.193040,-0.915616,-0.942187,0.476710,3.175230,1.088431,-11.112707
1790545682.8198,-0.013875,-0.001704,-0.187861,-0.017631,-0.006641,-0.187861,-1.023675,-0.869338,0.275162,4.056774,0.010211,-12.199420
1790545682.8339,0.002755,0.015226,-0.186902,-0.003361,0.008666,-0.186902,-1.251933,-1.381706,0.119752,2.485326,1.014071,-9.016902
1790545682.8477,0.013191,0.030535,-0.181208,0.008226,0.023974,-0.181208,-1.225222,-0.933688,-0.029587,2.906934,0.196111,-10.763406
1790545682.8616,0.004364,0.025987,-0.171879,0.005522,0.025383,-0.171879,0.158900,0.694477,-0.435111,1.220503,-1.068009,-15.071448
1790545682.8756,0.008932,0.016525,-0.174034,0.007909,0.019183,-0.174034,0.668839,-0.018225,-1.045824,-1.999048,1.757671,-12.199420
1790545682.8896,0.018534,0.018674,-0.348169,0.015346,0.018827,-0.348169,0.489146,-0.766136,-0.999687,1.680439,4.100011,-0.905364
1790545682.9036,0.020706,0.013338,-0.334755,0.019098,0.014984,-0.334755,0.362876,-0.186991,-0.654871,1.488799,1.051251,-6.416553
1790545682.9176,0.034894,0.001036,-0.320071,0.030155,0.005220,-0.320071,0.799967,-0.733355,-0.901341,-2.497311,0.753811,-11.151518
1790545682.9315,0.047356,-0.012615,-0.334958,0.042196,-0.007264,-0.334958,1.070720,-0.655649,-1.105317,-1.347472,2.910251,-8.978091
1790545682.9452,0.056732,-0.018060,-0.351815,0.052371,-0.014821,-0.351815,0.530427,-0.522094,-1.316578,-0.005993,3.170511,-7.542077
1790545682.9587,0.060680,-0.019813,-0.347567,0.058187,-0.018316,-0.347567,0.339807,-0.210059,-1.237659,0.722239,3.988471,-6.532986
1790545682.9726,0.064669,-0.030390,-0.359737,0.062724,-0.026768,-0.359737,0.666411,-0.059506,-1.173309,-1.309144,0.567911,-8.978091
1790545682.9866,0.058457,-0.037221,-0.381200,0.059737,-0.034085,-0.381200,0.571708,0.617986,-0.983903,-1.079176,3.356411,-10.375294
1790545683.0005,0.036440,-0.032890,-0.393922,0.043429,-0.033249,-0.393922,-0.341327,1.684002,-0.873416,0.645583,2.649991,-20.660259
1790545683.0145,0.040877,-0.020287,-0.364789,0.041643,-0.024176,-0.364789,-1.055242,0.069193,-0.778713,-6.445094,-1.142369,-12.354665
1790545683.0286,0.034284,-0.001613,-0.370440,0.036492,-0.008382,-0.370440,-1.425556,0.787965,-0.707079,-2.190688,0.084571,-6.261308
1790545683.0429,0.023234,0.014510,-0.374342,0.027212,0.007643,-0.374342,-1.266503,1.035650,-0.552883,-1.194160,-0.212869,-4.708860
1790545683.0568,0.013084,0.025685,-0.377950,0.017322,0.020273,-0.377950,-0.876764,1.206844,-0.718006,-2.612295,0.158931,-4.475993
1790545683.0709,0.015250,0.033033,-0.387815,0.015872,0.029205,-0.387815,-0.426317,0.080121,-0.810281,-0.925864,2.612811,-7.503266
1790545683.0849,0.028258,0.026507,-0.391233,0.024542,0.027316,-0.391233,0.407799,-0.832914,-0.244491,-1.692424,1.571771,-15.964105
1790545683.0989,0.019194,0.031691,-0.387895,0.020798,0.030378,-0.387895,-0.346183,0.620414,0.326156,-0.465928,3.021791,-12.898021
1790545683.1129,0.015344,0.033820,-0.380733,0.016980,0.032787,-0.380733,-0.253909,0.078906,0.641833,1.335487,0.456371,-10.879840
1790545683.1269,0.013918,0.026760,-0.371729,0.014837,0.028568,-0.371729,0.366518,-0.102001,0.770532,0.683911,-0.138509,-7.348021
1790545683.1408,0.010506,0.018430,-0.365676,0.011805,0.021471,-0.365676,0.477005,0.087405,0.571413,0.798895,0.010211,-8.395923
1790545683.1546,-0.005035,0.010959,-0.356648,0.000017,0.014113,-0.356648,0.648199,0.874170,0.731680,2.025391,2.798711,-7.503266
1790545683.1685,-0.012359,0.001627,-0.346180,-0.008646,0.005373,-0.346180,0.712548,0.469860,0.765676,-0.619240,2.501271,-9.405014
1790545683.1836,-0.021698,-0.002978,-0.333699,-0.017783,-0.000473,-0.333699,0.348306,0.514783,0.848237,-0.044320,3.096151,-10.491728
1790545683.1978,-0.021662,-0.005571,-0.320296,-0.020498,-0.004041,-0.320296,0.232962,-0.060720,0.864021,-0.772552,2.835891,-9.210958
1790545683.2130,-0.020678,-0.006337,-0.305072,-0.020624,-0.005648,-0.305072,0.059340,-0.195490,0.925942,0.185647,2.575631,-10.414105
1790545683.2276,-0.014530,-0.005777,-0.290789,-0.016358,-0.005739,-0.290789,-0.116711,-0.587658,0.911373,0.875551,1.237151,-13.130889
1790545683.2430,-0.011030,-0.001079,-0.273245,-0.012629,-0.002477,-0.273245,-0.406891,-0.518451,0.840952,3.136902,0.344831,-10.220049
1790545683.2570,-0.004657,0.006372,-0.259203,-0.007048,0.003717,-0.259203,-0.630293,-0.753995,0.697684,2.791950,0.493551,-9.133336
1790545683.2708,0.003513,0.015321,-0.247979,0.000345,0.011840,-0.247979,-0.784489,-0.807417,0.454855,1.910407,-0.175689,-8.706413
1790545683.2852,0.011887,0.027753,-0.243124,0.008424,0.022979,-0.243124,-0.904689,-0.825629,0.271520,2.868606,1.125611,-8.900469
1790545683.2996,0.014956,0.033279,-0.241369,0.012997,0.030189,-0.241369,-0.440887,-0.410393,0.039619,3.711822,1.199971,-11.733686
1790545683.3139,0.017740,0.032128,-0.251088,0.016317,0.031546,-0.251088,0.096978,-0.258625,-0.447252,2.830278,2.464091,-11.267951
1790545683.3279,0.021229,0.025301,-0.262717,0.019755,0.027175,-0.262717,0.475791,0.003630,-1.023970,-1.002520,1.832031,-11.035084
1790545683.3421,0.029006,0.017323,-0.279646,0.026231,0.020279,-0.279646,0.608132,-0.312047,-1.062822,-0.734224,2.241011,-8.628791
1790545683.3562,0.032389,0.011967,-0.284298,0.030542,0.014460,-0.284298,0.320381,-0.089859,-0.686438,-0.465928,0.716631,-8.046623
1790545683.3701,0.043582,0.001902,-0.285990,0.039670,0.005669,-0.285990,0.625130,-0.576730,-0.799354,-1.730752,0.270471,-9.715504
1790545683.3839,0.055701,-0.008332,-0.298235,0.050891,-0.004132,-0.298235,0.714977,-0.709072,-1.037325,-0.695896,2.055111,-13.363756
1790545683.3979,0.064825,-0.015669,-0.320776,0.060645,-0.012208,-0.320776,0.581421,-0.448031,-1.281368,-0.772552,3.096151,-9.948371
1790545683.4114,0.069644,-0.022363,-0.340665,0.066944,-0.019316,-0.340665,0.503716,-0.256197,-1.198806,0.530599,2.092291,-8.900469
1790545683.4250,0.075890,-0.028185,-0.359838,0.073206,-0.025525,-0.359838,0.445437,-0.337544,-1.139313,-0.044320,1.646131,-6.688231
1790545683.4389,0.082500,-0.039152,-0.375989,0.079712,-0.035064,-0.375989,0.797538,-0.431033,-0.977832,0.645583,2.203831,-9.948371
1790545683.4530,0.069343,-0.043372,-0.384692,0.072454,-0.040879,-0.384692,0.218393,0.962802,-0.766572,1.220503,1.125611,-17.206063
1790545683.4669,0.060177,-0.030979,-0.393275,0.063860,-0.033949,-0.393275,-0.950826,0.906951,-0.676725,-4.835318,1.311511,-16.119350
1790545683.4808,0.059477,-0.017628,-0.393485,0.060792,-0.022524,-0.393485,-1.115950,0.348446,-0.611161,-3.302199,-0.659029,-8.434735
1790545683.4947,0.051405,-0.000482,-0.401334,0.054221,-0.007095,-0.401334,-1.349065,0.897238,-0.718006,-1.615768,0.084571,-4.592427
1790545683.5086,0.028052,0.014650,-0.428924,0.035903,0.008127,-0.428924,-1.125663,1.412035,-0.591735,1.220503,0.196111,-1.603965
1790545683.5227,0.017199,0.025135,-0.444883,0.022810,0.020033,-0.444883,-0.598725,1.040507,-0.645157,-1.462456,2.761531,-6.106063
1790545683.5368,0.026737,0.018415,-0.444362,0.025559,0.018900,-0.444362,0.401728,-0.509952,-0.410828,-2.765607,1.051251,-17.050819
1790545683.5511,0.027438,0.020579,-0.443284,0.026874,0.020076,-0.443284,-0.069359,-0.116570,0.259378,0.377287,4.508991,-13.868301
1790545683.5651,0.016341,0.016679,-0.428736,0.019501,0.017698,-0.428736,0.192896,0.491715,0.820312,3.175230,0.456371,-11.656063
1790545683.5791,0.014954,0.009369,-0.410276,0.016318,0.011868,-0.410276,0.440581,-0.157851,1.071639,0.798895,0.382011,-6.882287
1790545683.5930,0.013198,0.000536,-0.388678,0.014134,0.003935,-0.388678,0.456364,0.190608,0.566556,-2.075704,-1.068009,-8.628791
1790545683.6069,-0.003752,-0.005888,-0.389283,0.001614,-0.002941,-0.389283,0.455150,0.973729,0.674615,2.408670,1.460231,-9.055714
1790545683.6209,-0.018667,-0.013570,-0.384077,-0.012583,-0.010382,-0.384077,0.570494,0.911808,0.823954,1.105519,2.278191,-10.297672
1790545683.6345,-0.029859,-0.021948,-0.379041,-0.024676,-0.018478,-0.379041,0.668839,0.621628,1.044928,1.603783,3.207691,-10.802217
1790545683.6482,-0.038088,-0.026510,-0.373597,-0.034065,-0.024100,-0.373597,0.433296,0.496571,1.072854,0.032335,3.542311,-8.939280
1790545683.6622,-0.040408,-0.033661,-0.363790,-0.038505,-0.030793,-0.363790,0.564423,0.091048,1.081353,-0.389272,2.724351,-8.085434
1790545683.6761,-0.033930,-0.036833,-0.346385,-0.035303,-0.035021,-0.346385,0.120047,-0.573088,0.996363,0.223975,0.753811,-13.480189
1790545683.6899,-0.029478,-0.035091,-0.328745,-0.031225,-0.035070,-0.328745,-0.256337,-0.533021,0.787530,2.906934,-0.101329,-12.781588
1790545683.7039,-0.026750,-0.035369,-0.307125,-0.028093,-0.035280,-0.307125,-0.165276,-0.490526,0.720752,4.363398,-1.328269,-10.996273
1790545683.7179,-0.016730,-0.029356,-0.297559,-0.020139,-0.031133,-0.297559,-0.507664,-1.000466,0.697684,2.446998,0.419191,-6.921098
1790545683.7320,-0.012957,-0.018979,-0.288000,-0.015112,-0.022625,-0.288000,-0.831840,-0.565803,0.562914,3.826806,0.158931,-9.288581
1790545683.7464,-0.006159,-0.003834,-0.281160,-0.008845,-0.009471,-0.281160,-1.131733,-0.764922,0.419645,4.248414,0.382011,-9.909560
1790545683.7606,0.006783,0.014519,-0.281921,0.002095,0.007322,-0.281921,-1.325996,-1.146163,0.086970,3.903462,1.199971,-10.336483
1790545683.7747,0.015103,0.032293,-0.283562,0.011200,0.024802,-0.283562,-1.305356,-0.819559,-0.051442,3.405198,1.125611,-8.706413
1790545683.7893,0.008418,0.030792,-0.276554,0.009253,0.028995,-0.276554,-0.011080,0.417652,-0.487319,3.750150,0.121751,-13.984735
1790545683.8035,0.025444,0.018107,-0.257979,0.020587,0.021374,-0.257979,0.806037,-0.717571,-1.043396,-4.873646,0.493551,-9.172147
1790545683.8175,0.030221,0.020086,-0.383494,0.027330,0.020473,-0.383494,0.344663,-0.286550,-0.821208,0.645583,4.285911,-3.583336
1790545683.8316,0.032770,0.012723,-0.385207,0.031138,0.015048,-0.385207,0.519500,-0.212488,-0.376832,1.872079,2.278191,-12.665154
1790545683.8457,0.045672,0.002935,-0.391061,0.041312,0.006569,-0.391061,0.690694,-0.701787,-0.782356,-2.382327,2.464091,-13.557812
1790545683.8596,0.059076,-0.006409,-0.412703,0.053747,-0.002516,-0.412703,0.739260,-0.751567,-1.030041,-1.347472,2.947431,-9.793126
1790545683.8731,0.061896,-0.014416,-0.436328,0.059451,-0.010846,-0.436328,0.655484,-0.102001,-1.128386,0.415615,2.055111,-6.610609
1790545683.8867,0.067423,-0.020266,-0.462400,0.065031,-0.017440,-0.462400,0.512215,-0.251340,-1.132028,-0.197632,1.869211,-5.523895
1790545683.9007,0.073323,-0.028885,-0.482734,0.070835,-0.025452,-0.482734,0.620274,-0.287764,-1.091962,-0.197632,1.571771,-7.231588
1790545683.9147,0.060167,-0.040254,-0.489296,0.063368,-0.035813,-0.489296,0.753829,1.013796,-0.694937,0.070663,1.571771,-17.904665
1790545683.9286,0.044592,-0.035148,-0.496413,0.050225,-0.035348,-0.496413,-0.374109,1.385323,-0.776285,-5.563550,3.058971,-18.409210
1790545683.9425,0.041952,-0.017945,-0.478757,0.044434,-0.023165,-0.478757,-1.311426,0.534210,-0.699794,-7.441621,1.274331,-16.313406
1790545683.9564,0.045755,-0.004193,-0.431042,0.045359,-0.009884,-0.431042,-1.118378,0.189393,-0.608733,-3.647151,-0.175689,-4.631238
1790545683.9703,0.028548,0.015662,-0.451728,0.033591,0.007998,-0.451728,-1.225222,1.249339,-0.517673,0.415615,1.460231,-2.574245
1790545683.9842,0.007414,0.031289,-0.479585,0.015267,0.024302,-0.479585,-0.803915,1.691287,-0.747145,0.070663,2.055111,-2.341378
1790545683.9981,0.005948,0.031942,-0.486430,0.008744,0.029650,-0.486430,-0.153135,0.411581,-0.849133,-3.340527,-0.064149,-16.158161
1790545684.0120,0.011179,0.025491,-0.488071,0.010449,0.026738,-0.488071,0.541354,-0.407964,-0.181355,2.025391,5.735931,-17.710609
1790545684.0259,-0.004346,0.029317,-0.479835,0.000093,0.028543,-0.479835,-0.182274,0.926378,0.428144,3.980118,5.847470,-15.614805
1790545684.0400,-0.005273,0.021718,-0.463722,-0.003664,0.023766,-0.463722,0.429653,-0.040079,0.817884,-0.542584,0.456371,-10.297672
1790545684.0542,-0.010930,0.012213,-0.442216,-0.008750,0.015678,-0.442216,0.534070,0.228246,0.691613,0.798895,-0.026969,-7.425644
1790545684.0683,-0.026916,0.003057,-0.433673,-0.021466,0.006843,-0.433673,0.634843,1.002869,0.672187,0.722239,1.088431,-6.338930
1790545684.0823,-0.040214,-0.011585,-0.422866,-0.034590,-0.006056,-0.422866,0.979660,0.847458,0.871306,0.185647,1.125611,-9.676693
1790545684.0959,-0.055369,-0.024852,-0.414570,-0.049135,-0.019213,-0.414570,0.977231,0.947018,0.968437,1.297159,2.092291,-8.939280
1790545684.1095,-0.065472,-0.031069,-0.415308,-0.060571,-0.027512,-0.415308,0.538926,0.644697,0.986649,0.568927,4.137191,-10.646972
1790545684.1235,-0.067179,-0.035932,-0.406695,-0.065196,-0.033406,-0.406695,0.310667,0.020628,1.020645,0.530599,2.426911,-11.384385
1790545684.1374,-0.056911,-0.033346,-0.390131,-0.059397,-0.033364,-0.390131,-0.275763,-0.897264,1.026716,1.450471,1.794851,-12.703965
1790545684.1514,-0.052745,-0.025562,-0.366949,-0.054741,-0.027902,-0.366949,-0.664289,-0.522094,0.949011,2.600310,1.051251,-11.306763
1790545684.1654,-0.049232,-0.018785,-0.332128,-0.050884,-0.021520,-0.332128,-0.630293,-0.596157,0.881019,4.401726,0.307651,-9.870749
1790545684.1793,-0.036926,-0.005175,-0.307431,-0.041113,-0.010079,-0.307431,-1.098952,-1.160733,0.776603,2.638638,0.605091,-8.667602
1790545684.1932,-0.024737,0.008488,-0.282138,-0.029650,0.002918,-0.282138,-1.135376,-1.127951,0.556843,2.868606,-0.026969,-9.987182
1790545684.2072,-0.010842,0.023228,-0.263943,-0.016485,0.017135,-0.263943,-1.179085,-1.285789,0.440286,2.830278,0.233291,-7.774944
1790545684.2212,0.001426,0.037922,-0.257502,-0.003947,0.031686,-0.257502,-1.086810,-1.170446,0.406290,2.715294,1.162791,-7.386832
1790545684.2352,-0.002675,0.035051,-0.241582,-0.003057,0.034042,-0.241582,0.062982,0.160254,0.050546,3.251886,-0.212869,-13.713056
1790545684.2492,0.002635,0.026509,-0.255986,0.000928,0.028769,-0.255986,0.637272,-0.135997,-0.651228,-2.727279,3.096151,-14.993826
1790545684.2632,0.015003,0.019494,-0.281449,0.010780,0.022277,-0.281449,0.602061,-0.675076,-0.921982,-0.887536,3.542311,-11.229140
1790545684.2772,0.009501,0.017200,-0.317916,0.009885,0.018723,-0.317916,0.290027,0.160254,-0.403543,4.018446,2.278191,-6.183686
1790545684.2913,0.027783,0.007144,-0.313833,0.022413,0.010617,-0.313833,0.611775,-0.985896,-0.555311,-4.030431,0.010211,-9.831937
1790545684.3060,0.040151,-0.015134,-0.315547,0.034829,-0.007409,-0.315547,1.432535,-0.667791,-0.898913,-1.040848,0.382011,-11.966553
1790545684.3205,0.054235,-0.026432,-0.362242,0.048413,-0.020725,-0.362242,0.948092,-0.804989,-1.243730,-0.197632,3.765391,-8.279490
1790545684.3343,0.061300,-0.031841,-0.387949,0.057434,-0.028506,-0.387949,0.477005,-0.465029,-1.065251,0.798895,2.166651,-6.843476
1790545684.3480,0.066035,-0.044674,-0.402751,0.063455,-0.039824,-0.402751,0.898312,-0.220987,-1.054323,-0.350944,1.348691,-10.414105
1790545684.3621,0.063391,-0.055758,-0.414485,0.063410,-0.050977,-0.414485,0.768399,0.228246,-0.856418,0.645583,1.646131,-12.121798
1790545684.3760,0.038450,-0.052448,-0.430835,0.045938,-0.052007,-0.430835,-0.225983,1.845483,-0.767786,1.028863,3.096151,-18.137532
1790545684.3899,0.040285,-0.039892,-0.449017,0.041981,-0.043526,-0.449017,-0.918044,0.245244,-0.867345,-7.058341,1.460231,-13.635434
1790545684.4039,0.036065,-0.028116,-0.438341,0.037840,-0.032739,-0.438341,-1.035816,0.641054,-0.662155,-2.995575,-1.105189,-6.338930
1790545684.4178,0.027160,-0.011680,-0.447177,0.030364,-0.017998,-0.447177,-1.295643,1.019867,-0.711935,-3.455511,-0.287229,-7.115154
1790545684.4317,0.010231,0.006995,-0.452962,0.016271,-0.000502,-0.452962,-1.369705,1.274836,-0.472749,0.568927,1.051251,-8.473546
1790545684.4456,0.004457,0.022289,-0.459972,0.008001,0.015452,-0.459972,-1.220366,0.819533,-0.510388,-4.260399,-0.473129,-7.930189
1790545684.4596,0.002740,0.033159,-0.464098,0.004318,0.027847,-0.464098,-0.884048,0.400654,-0.418113,-3.072231,-0.064149,-9.987182
1790545684.4741,0.010692,0.032943,-0.457925,0.008780,0.031414,-0.457925,-0.136137,-0.405536,0.099112,-3.570495,-0.844929,-12.509909
1790545684.4883,0.006651,0.033928,-0.448575,0.007289,0.033174,-0.448575,-0.106997,0.031555,0.698898,2.676966,1.832031,-12.238231
1790545684.5021,0.008451,0.030828,-0.432971,0.008103,0.031532,-0.432971,0.149186,-0.265910,0.928371,-0.580912,0.865351,-8.900469
1790545684.5161,-0.002068,0.022732,-0.426686,0.000983,0.025372,-0.426686,0.593562,0.482002,0.792387,1.910407,1.794851,-7.658511
1790545684.5302,-0.019868,0.012311,-0.422347,-0.013612,0.016229,-0.422347,0.776898,0.943376,0.884662,2.945262,2.278191,-8.046623
1790545684.5443,-0.032869,0.000386,-0.414150,-0.027092,0.005139,-0.414150,0.883742,0.710260,1.087423,1.143847,2.835891,-9.094525
1790545684.5582,-0.050934,-0.009743,-0.407842,-0.043781,-0.005279,-0.407842,0.807252,1.042935,1.197910,1.948735,3.356411,-8.318301
1790545684.5718,-0.059945,-0.018645,-0.399361,-0.055096,-0.014635,-0.399361,0.672482,0.534210,1.239191,-0.005993,3.096151,-9.327392
1790545684.5859,-0.068113,-0.027735,-0.385758,-0.064208,-0.023805,-0.385758,0.585064,0.427365,1.186983,0.798895,1.757671,-9.249770
1790545684.5996,-0.074017,-0.034567,-0.377443,-0.071074,-0.031338,-0.377443,0.501288,0.305951,1.031573,1.067191,3.579491,-12.315854
1790545684.6136,-0.064901,-0.040705,-0.362594,-0.066753,-0.037895,-0.362594,0.328880,-0.745496,0.991506,0.377287,1.497411,-14.566903
1790545684.6276,-0.052073,-0.036148,-0.349007,-0.056477,-0.036672,-0.349007,-0.388678,-1.067244,0.738965,2.370342,2.017931,-14.489280
1790545684.6415,-0.049076,-0.026654,-0.316343,-0.051296,-0.029659,-0.316343,-0.829412,-0.574302,0.774175,5.014973,-0.064149,-9.366203
1790545684.6554,-0.045023,-0.012547,-0.295432,-0.046905,-0.017681,-0.295432,-1.129305,-0.655649,0.581126,5.436581,0.382011,-9.366203
1790545684.6693,-0.028237,0.004657,-0.281608,-0.033837,-0.002044,-0.281608,-1.329639,-1.363494,0.216883,2.255358,0.530731,-9.599070
1790545684.6832,-0.013987,0.021988,-0.276894,-0.019942,0.014779,-0.276894,-1.295643,-1.357424,0.222954,3.596838,0.902531,-6.688231
1790545684.6972,0.005742,0.039333,-0.281913,-0.001963,0.031967,-0.281913,-1.157230,-1.619678,0.286090,1.220503,1.794851,-4.980539
1790545684.7110,0.004855,0.042011,-0.278671,0.002809,0.038998,-0.278671,-0.194416,-0.069219,0.191386,1.757095,2.129471,-10.025993
1790545684.7250,-0.001521,0.037302,-0.296435,-0.000222,0.037811,-0.296435,0.432082,0.556064,-0.293056,-0.389272,5.029511,-14.877392
1790545684.7390,0.006867,0.034400,-0.309594,0.004741,0.035423,-0.309594,0.242675,-0.384896,-0.747145,-1.500784,3.207691,-13.868301
1790545684.7530,0.012304,0.031633,-0.311057,0.010035,0.032770,-0.311057,0.141902,-0.228271,-0.748360,-0.274288,1.051251,-10.841028
1790545684.7668,0.016839,0.022505,-0.311791,0.014798,0.025585,-0.311791,0.593562,-0.026724,-0.569881,-2.229015,0.493551,-6.843476
1790545684.7808,0.030410,0.011457,-0.322598,0.025726,0.015695,-0.322598,0.773256,-0.662934,-0.912269,-1.999048,1.051251,-7.270399
1790545684.7946,0.042474,0.000927,-0.341363,0.037450,0.005357,-0.341363,0.809680,-0.713928,-1.072535,-0.005993,2.055111,-7.852567
1790545684.8089,0.052401,-0.005447,-0.366582,0.047915,-0.002206,-0.366582,0.534070,-0.550019,-1.141742,0.185647,2.835891,-8.124245
1790545684.8230,0.054252,-0.009151,-0.388451,0.052351,-0.007068,-0.388451,0.311882,-0.019439,-1.169667,0.875551,2.947431,-9.870749
1790545684.8370,0.054805,-0.012074,-0.405558,0.054069,-0.010572,-0.405558,0.211108,0.094690,-1.042182,0.108991,2.501271,-12.005364
1790545684.8510,0.044195,-0.007419,-0.421714,0.047157,-0.008365,-0.421714,-0.386250,0.957945,-1.122315,-0.810880,1.980751,-16.002917
1790545684.8648,0.033389,0.007119,-0.437084,0.037520,0.002474,-0.437084,-1.096523,1.080574,-0.874630,-3.877119,1.980751,-15.770049
1790545684.8788,0.033043,0.021050,-0.432960,0.034386,0.015477,-0.432960,-1.146303,0.484430,-0.736218,-4.605350,-0.659029,-7.115154
1790545684.8928,0.027791,0.035049,-0.439747,0.029769,0.029177,-0.439747,-1.145089,0.797679,-0.685224,-3.608823,-0.398769,-6.998721
1790545684.9068,0.025380,0.051455,-0.458311,0.026697,0.044772,-0.458311,-1.108665,0.580347,-0.809067,-1.500784,1.125611,-3.428091
1790545684.9207,0.034376,0.044762,-0.465303,0.032072,0.044765,-0.465303,0.508573,-0.507524,-0.510388,-0.964192,2.947431,-11.267951
1790545684.9347,0.026067,0.037701,-0.452479,0.027869,0.039820,-0.452479,0.599633,0.279240,0.356510,6.011501,4.880791,-12.703965
1790545684.9487,0.012601,0.029425,-0.441540,0.017181,0.032544,-0.441540,0.571708,0.783109,0.817884,0.913879,2.166651,-13.169700
1790545684.9627,0.012841,0.022092,-0.426223,0.014143,0.025227,-0.426223,0.439366,-0.151781,0.972080,-0.657568,0.567911,-8.978091
1790545684.9765,0.006165,0.015966,-0.413393,0.008558,0.018745,-0.413393,0.353162,0.333876,0.760819,0.415615,0.456371,-9.482637
1790545684.9905,-0.010359,0.007276,-0.398848,-0.004684,0.010716,-0.398848,0.523142,0.886311,0.854308,2.906934,0.307651,-9.482637
1790545685.0044,-0.028630,-0.007404,-0.386051,-0.021446,-0.001968,-0.386051,1.020941,0.937305,1.132347,3.366870,1.311511,-7.969000
1790545685.0182,-0.042841,-0.015091,-0.383783,-0.036423,-0.011154,-0.383783,0.659126,0.885097,1.180912,0.300631,3.244871,-7.619700
1790545685.0318,-0.055006,-0.020961,-0.375891,-0.049431,-0.018019,-0.375891,0.456364,0.752755,1.233120,0.300631,3.021791,-9.482637
1790545685.0458,-0.053494,-0.024925,-0.362808,-0.052275,-0.022853,-0.362808,0.191681,-0.140853,1.075282,-1.347472,1.423051,-11.267951
1790545685.0608,-0.048013,-0.028658,-0.343991,-0.049291,-0.026916,-0.343991,0.124904,-0.508738,1.001219,0.990535,0.716631,-13.092077
1790545685.0748,-0.040813,-0.024972,-0.326279,-0.043357,-0.025555,-0.326279,-0.380179,-0.701787,0.862807,2.255358,0.716631,-13.480189
1790545685.0887,-0.033381,-0.018783,-0.303630,-0.036374,-0.020815,-0.303630,-0.603582,-0.838985,0.748678,3.711822,-0.398769,-9.366203
1790545685.1028,-0.028187,-0.009104,-0.284589,-0.030643,-0.012617,-0.284589,-0.858551,-0.719999,0.643047,4.401726,-0.696209,-8.667602
1790545685.1168,-0.015950,0.004233,-0.268765,-0.020358,-0.000822,-0.268765,-1.095309,-1.124308,0.485209,2.140375,-0.138509,-6.921098
1790545685.1307,-0.004134,0.017403,-0.258525,-0.009001,0.011935,-0.258525,-1.052814,-1.148591,0.492494,2.983590,0.233291,-7.969000
1790545685.1446,0.008257,0.032561,-0.253518,0.003080,0.026373,-0.253518,-1.141447,-1.171660,0.406290,3.213558,1.237151,-9.754315
1790545685.1586,0.007104,0.039362,-0.248667,0.005897,0.035465,-0.248667,-0.558658,-0.104429,0.165889,4.325070,1.348691,-15.614805
1790545685.1725,0.008327,0.039180,-0.251362,0.007598,0.038066,-0.251362,0.018059,0.138399,-0.368333,-2.535639,2.166651,-10.530539
1790545685.1865,0.022060,0.036915,-0.255921,0.017721,0.037260,-0.255921,0.122475,-0.653221,-1.028826,-2.727279,1.534591,-11.850119
1790545685.2004,0.030038,0.033686,-0.268704,0.026343,0.034758,-0.268704,0.304597,-0.382468,-0.497032,-1.539112,2.687171,-8.357112
1790545685.2144,0.029107,0.023009,-0.267423,0.028278,0.026534,-0.267423,0.718619,0.093476,-0.175284,0.070663,1.051251,-8.628791
1790545685.2285,0.042898,0.013396,-0.277077,0.038512,0.017337,-0.277077,0.696765,-0.689645,-0.748360,-3.148887,2.129471,-9.948371
1790545685.2421,0.048950,0.004192,-0.302381,0.045818,0.008136,-0.302381,0.773256,-0.248912,-1.084677,-0.504256,3.058971,-8.551168
1790545685.2557,0.051504,-0.003809,-0.327248,0.049799,-0.000226,-0.327248,0.636057,-0.034009,-1.210948,0.300631,2.166651,-7.348021
1790545685.2709,0.061521,-0.009800,-0.344517,0.058004,-0.006927,-0.344517,0.389587,-0.502668,-1.044610,-0.312616,1.534591,-7.619700
1790545685.2855,0.071646,-0.019509,-0.362656,0.067554,-0.015734,-0.362656,0.677338,-0.552447,-1.013043,-0.504256,2.203831,-9.715504
1790545685.3006,0.060625,-0.023855,-0.387293,0.062704,-0.021419,-0.387293,0.362876,0.845030,-0.798139,-0.350944,4.471811,-13.053266
1790545685.3153,0.034878,-0.011780,-0.398155,0.043226,-0.014672,-0.398155,-0.885263,1.840627,-0.788426,0.913879,1.385871,-15.925294
1790545685.3304,0.035843,0.002449,-0.401411,0.038058,-0.002687,-0.401411,-1.032174,0.322949,-0.741075,-5.831846,0.047391,-10.608161
1790545685.3444,0.023875,0.012774,-0.403191,0.028130,0.008135,-0.403191,-0.909545,1.293049,-0.639087,-2.535639,-0.621849,-4.243126
1790545685.3581,0.007023,0.023857,-0.419480,0.013355,0.019141,-0.419480,-0.723782,1.306404,-0.631802,0.722239,1.980751,-6.106063
1790545685.3722,0.000056,0.033360,-0.433204,0.004045,0.029094,-0.433204,-0.565943,0.673836,-0.477606,-0.657568,2.166651,-5.873196
1790545685.3861,0.011843,0.022942,-0.432767,0.009504,0.024788,-0.432767,0.649413,-0.666577,-0.357406,-3.148887,0.233291,-16.080539
1790545685.4001,0.008854,0.022319,-0.425428,0.009049,0.023060,-0.425428,0.052055,0.044911,0.589625,1.680439,3.021791,-14.295224
1790545685.4140,-0.001048,0.018477,-0.412542,0.001981,0.019851,-0.412542,0.222035,0.562135,0.939298,0.070663,1.460231,-12.277042
1790545685.4280,-0.005889,0.009583,-0.399453,-0.003528,0.012664,-0.399453,0.532855,0.188179,0.776603,0.453943,0.233291,-6.610609
1790545685.4420,-0.015432,-0.000404,-0.395563,-0.011861,0.003517,-0.395563,0.662769,0.409153,0.511920,1.028863,0.270471,-2.729490
1790545685.4561,-0.036996,-0.010662,-0.393093,-0.029455,-0.006408,-0.393093,0.762328,1.284550,0.808171,2.676966,2.278191,-8.745224
1790545685.4700,-0.050155,-0.022077,-0.382459,-0.043945,-0.017377,-0.382459,0.784183,0.842602,0.963581,0.262303,1.571771,-9.133336
1790545685.4836,-0.058794,-0.028538,-0.374290,-0.054339,-0.025189,-0.374290,0.481861,0.583990,0.972080,-0.427600,2.575631,-9.909560
1790545685.4972,-0.058309,-0.034514,-0.363320,-0.057118,-0.031717,-0.363320,0.423583,-0.092288,1.041286,-0.504256,2.575631,-10.569350
1790545685.5112,-0.047808,-0.037146,-0.346684,-0.050601,-0.035517,-0.346684,0.087265,-0.876623,1.035215,0.607255,1.237151,-12.082986
1790545685.5252,-0.042385,-0.034790,-0.328777,-0.044850,-0.035008,-0.328777,-0.308545,-0.621653,0.907730,2.983590,0.047391,-11.500819
1790545685.5391,-0.037405,-0.033875,-0.307166,-0.039639,-0.034215,-0.307166,-0.262408,-0.679932,0.976936,3.826806,-0.956469,-9.599070
1790545685.5533,-0.031159,-0.027807,-0.290780,-0.033703,-0.029730,-0.290780,-0.573228,-0.770993,0.940512,3.520182,-0.212869,-8.395923
1790545685.5674,-0.020287,-0.017465,-0.274019,-0.024311,-0.021144,-0.274019,-0.857337,-0.927617,0.677043,1.258831,0.084571,-9.560259
1790545685.5814,-0.013476,-0.002810,-0.268933,-0.016727,-0.008310,-0.268933,-1.151160,-0.785563,0.465783,4.708349,0.121751,-11.073895
1790545685.5955,-0.002157,0.016063,-0.266084,-0.006528,0.008751,-0.266084,-1.418271,-1.070886,0.260593,3.941790,0.605091,-10.064805
1790545685.6095,0.009208,0.035158,-0.269461,0.004487,0.027236,-0.269461,-1.393988,-1.103668,0.162247,3.251886,0.976891,-7.153965
1790545685.6234,0.010853,0.043284,-0.265692,0.008943,0.038470,-0.265692,-0.647291,-0.214916,-0.055084,1.833751,1.014071,-9.754315
1790545685.6375,0.002631,0.035815,-0.265737,0.004524,0.036612,-0.265737,0.504930,0.800107,-0.524957,-2.075704,2.389731,-16.196973
1790545685.6514,0.016563,0.023494,-0.266157,0.012952,0.027429,-0.266157,0.849746,-0.729712,-0.932909,-2.037376,1.534591,-12.393476
1790545685.6654,0.018412,0.027627,-0.324055,0.016774,0.027568,-0.324055,0.052055,-0.064362,-0.551669,0.300631,4.434631,-5.135783
1790545685.6793,0.019457,0.021127,-0.319471,0.018652,0.023059,-0.319471,0.430867,0.098333,-0.314911,-1.999048,1.423051,-10.918651
1790545685.6932,0.035219,0.012562,-0.322658,0.030249,0.015712,-0.322658,0.609346,-0.832914,-0.846705,-2.803935,1.832031,-9.987182
1790545685.7069,0.041434,0.005413,-0.348757,0.038079,0.008503,-0.348757,0.672482,-0.292621,-0.935337,-0.235960,2.798711,-6.377742
1790545685.7205,0.045438,-0.000499,-0.372370,0.043230,0.002201,-0.372370,0.548639,-0.162708,-0.954764,0.108991,2.761531,-7.231588
1790545685.7346,0.049600,-0.002336,-0.396745,0.047689,-0.000975,-0.396745,0.257245,-0.148138,-0.971762,-0.120976,2.798711,-6.688231
1790545685.7486,0.053700,-0.009170,-0.414328,0.051897,-0.006711,-0.414328,0.529213,-0.110500,-0.868560,-0.887536,2.055111,-7.852567
1790545685.7625,0.044935,-0.014665,-0.422739,0.047024,-0.012279,-0.422739,0.385944,0.688406,-0.505531,0.300631,2.612811,-16.235784
1790545685.7765,0.022142,-0.003536,-0.435251,0.029607,-0.006159,-0.435251,-0.755349,1.727711,-0.333123,-0.964192,4.434631,-19.107812
1790545685.7904,0.019781,0.012697,-0.427291,0.022729,0.007040,-0.427291,-1.180299,0.526925,-0.482462,-6.598406,2.203831,-13.247322
1790545685.8046,0.015722,0.022484,-0.391926,0.017824,0.017851,-0.391926,-0.894976,0.681121,-0.365905,-2.727279,-0.919289,-4.281937
1790545685.8191,0.004210,0.037954,-0.411735,0.008294,0.031923,-0.411735,-0.835483,0.996798,-0.443610,-0.427600,1.571771,-2.341378
1790545685.8330,-0.000260,0.040948,-0.415319,0.002306,0.038241,-0.415319,-0.289119,0.455291,-0.364691,-0.810880,0.865351,-12.975644
1790545685.8470,0.000331,0.032656,-0.412420,0.000924,0.034331,-0.412420,0.614203,-0.132354,0.157390,2.255358,4.546171,-18.952567
1790545685.8610,-0.012563,0.028246,-0.401398,-0.008517,0.030071,-0.401398,0.333736,0.692048,0.952654,2.178703,4.174371,-15.692427
1790545685.8748,-0.018051,0.020979,-0.384808,-0.015191,0.023707,-0.384808,0.434510,0.315664,1.280472,-1.884064,0.976891,-8.978091
1790545685.8887,-0.025232,0.009130,-0.365204,-0.022220,0.013503,-0.365204,0.654270,0.359373,1.063140,0.032335,-0.733389,-9.133336
1790545685.9027,-0.042809,-0.004393,-0.353948,-0.036632,0.000976,-0.353948,0.884957,1.132782,0.912587,0.415615,0.828171,-8.939280
1790545685.9166,-0.058171,-0.019543,-0.342527,-0.051710,-0.013388,-0.342527,1.019726,0.973729,0.958724,0.722239,1.311511,-9.909560
1790545685.9306,-0.070787,-0.029584,-0.335203,-0.065064,-0.024725,-0.335203,0.795110,0.857172,0.929585,-0.274288,3.467951,-8.784035
1790545685.9442,-0.076494,-0.037229,-0.324652,-0.073065,-0.033478,-0.324652,0.524356,0.390941,0.970866,-0.542584,2.315371,-11.151518
1790545685.9578,-0.073955,-0.044104,-0.310911,-0.073688,-0.040916,-0.310911,0.375017,-0.252554,0.996363,0.070663,0.902531,-12.471098
1790545685.9720,-0.068184,-0.047590,-0.296562,-0.069835,-0.045588,-0.296562,0.096978,-0.524522,0.865235,1.565455,0.158931,-13.596623
1790545685.9860,-0.066725,-0.049212,-0.283600,-0.067658,-0.048125,-0.283600,-0.020793,-0.291407,0.713468,3.213558,-0.064149,-12.005364
1790545686.0001,-0.060207,-0.048030,-0.270070,-0.062442,-0.048059,-0.270070,-0.225983,-0.678718,0.696470,2.753622,-0.138509,-8.939280
1790545686.0140,-0.044289,-0.041057,-0.255987,-0.049735,-0.043158,-0.255987,-0.655790,-1.314929,0.629692,2.178703,-0.435949,-9.676693
1790545686.0280,-0.040229,-0.030454,-0.244857,-0.043081,-0.034265,-0.244857,-0.939899,-0.580373,0.504635,4.248414,-1.142369,-9.172147
1790545686.0419,-0.027857,-0.013807,-0.235543,-0.032424,-0.019945,-0.235543,-1.317497,-1.103668,0.423288,2.600310,-0.064149,-8.628791
1790545686.0559,-0.015769,0.003763,-0.233172,-0.020766,-0.003350,-0.233172,-1.332067,-1.148591,0.276376,3.750150,0.493551,-8.357112
1790545686.0706,0.000434,0.021892,-0.227588,-0.005926,0.014320,-0.227588,-1.318711,-1.376850,0.249665,3.021918,0.419191,-7.425644
1790545686.0848,0.004338,0.030403,-0.214369,0.001259,0.025578,-0.214369,-0.758992,-0.460173,0.190172,2.983590,-0.733389,-11.112707
1790545686.0990,-0.002146,0.021884,-0.213773,-0.001124,0.022992,-0.213773,0.520714,0.523282,-0.413256,0.990535,0.753811,-16.391028
1790545686.1131,0.001945,0.018687,-0.231656,0.001024,0.019978,-0.231656,0.347092,-0.023081,-0.891628,-2.114032,4.360271,-12.315854
1790545686.1270,0.012669,0.019784,-0.258222,0.009175,0.019842,-0.258222,0.092122,-0.741854,-0.628159,0.875551,2.910251,-6.300119
1790545686.1412,0.019843,0.008779,-0.244597,0.016643,0.012098,-0.244597,0.650627,-0.319332,-0.399901,-1.500784,-0.250049,-7.658511
1790545686.1552,0.037160,-0.005422,-0.254405,0.031005,-0.000166,-0.254405,1.071934,-0.942187,-0.843063,-2.688951,2.426911,-8.745224
1790545686.1690,0.050001,-0.019185,-0.276034,0.044302,-0.013479,-0.276034,1.095003,-0.865696,-0.918339,0.492271,2.352551,-7.309210
1790545686.1826,0.058735,-0.025273,-0.303639,0.054405,-0.021735,-0.303639,0.591134,-0.548805,-1.040968,0.300631,3.244871,-7.580888
1790545686.1966,0.062378,-0.032900,-0.320689,0.059986,-0.029550,-0.320689,0.536498,-0.185776,-1.048253,0.683911,1.869211,-10.530539
1790545686.2105,0.048855,-0.040033,-0.341015,0.052195,-0.036888,-0.341015,0.561995,1.079360,-0.853990,-0.159304,3.244871,-12.781588
1790545686.2245,0.028663,-0.034414,-0.355452,0.035723,-0.035156,-0.355452,-0.422674,1.533449,-0.884343,0.837223,2.426911,-20.116903
1790545686.2384,0.024976,-0.021984,-0.334552,0.028200,-0.025936,-0.334552,-1.060099,0.711475,-0.772642,-6.521750,-1.625708,-9.793126
1790545686.2523,0.023959,-0.011933,-0.327741,0.025232,-0.016134,-0.327741,-0.998178,0.535424,-0.612376,-4.413711,-2.518028,-5.407462
1790545686.2667,0.014149,0.008431,-0.336778,0.017474,0.001062,-0.336778,-1.454695,1.079360,-0.590521,-1.692424,0.270471,-3.078790
1790545686.2810,0.000780,0.025416,-0.345455,0.005788,0.018110,-0.345455,-1.266503,1.278479,-0.596592,-2.842263,0.196111,-7.891378
1790545686.2952,-0.006302,0.035233,-0.353694,-0.002675,0.030096,-0.353694,-0.680073,0.750327,-0.673083,-1.385800,1.534591,-8.667602
1790545686.3094,-0.002621,0.028928,-0.354862,-0.002637,0.029278,-0.354862,0.307025,-0.140853,-0.041729,-2.267343,-0.621849,-13.441378
1790545686.3237,-0.005716,0.031138,-0.350354,-0.004792,0.030580,-0.350354,-0.167705,0.100761,0.460926,0.875551,2.166651,-11.229140
1790545686.3378,-0.007574,0.026842,-0.345320,-0.006739,0.027964,-0.345320,0.224463,-0.125069,0.851880,2.025391,1.088431,-11.112707
1790545686.3518,-0.012267,0.016753,-0.339975,-0.010609,0.020116,-0.339975,0.750187,0.224604,0.511920,0.530599,1.794851,-7.153965
1790545686.3657,-0.028714,0.008895,-0.347291,-0.023283,0.012261,-0.347291,0.605704,0.897238,0.585983,3.750150,2.649991,-9.366203
1790545686.3796,-0.047893,-0.001442,-0.346702,-0.040510,0.002669,-0.346702,0.756258,1.152208,0.718324,2.791950,2.352551,-9.793126
1790545686.3932,-0.062457,-0.011782,-0.335807,-0.055873,-0.007447,-0.335807,0.810894,1.007725,0.896803,-0.120976,2.873071,-8.628791
1790545686.4068,-0.074361,-0.017896,-0.324642,-0.068814,-0.014761,-0.324642,0.487932,0.767325,0.969652,0.492271,3.058971,-8.861658
1790545686.4204,-0.076884,-0.022148,-0.311190,-0.074463,-0.019932,-0.311190,0.268172,0.058266,1.012146,0.913879,2.687171,-11.733686
1790545686.4343,-0.066297,-0.021854,-0.296111,-0.068747,-0.021277,-0.296111,-0.037791,-0.868124,0.957510,0.415615,3.319231,-11.539630
1790545686.4484,-0.056714,-0.018202,-0.282814,-0.060324,-0.019125,-0.282814,-0.348612,-0.849912,0.872520,1.565455,1.534591,-11.267951
1790545686.4624,-0.054313,-0.017228,-0.271250,-0.056116,-0.017797,-0.271250,-0.207771,-0.492954,0.945369,4.095102,0.382011,-10.297672
1790545686.4763,-0.046071,-0.013162,-0.261453,-0.049085,-0.014552,-0.261453,-0.355897,-0.887551,0.819098,2.983590,1.311511,-8.318301
1790545686.4902,-0.038934,-0.004258,-0.251619,-0.041979,-0.007346,-0.251619,-0.754135,-0.773421,0.610265,4.171758,0.456371,-12.315854
1790545686.5042,-0.024602,0.012691,-0.244784,-0.029816,0.006680,-0.244784,-1.293214,-1.257864,0.373508,3.635166,1.125611,-11.850119
1790545686.5181,-0.014335,0.028397,-0.239983,-0.018979,0.021882,-0.239983,-1.220366,-1.096383,0.237524,3.750150,0.270471,-6.144874
1790545686.5320,0.000688,0.047403,-0.245144,-0.005212,0.039747,-0.245144,-1.293214,-1.293074,0.119752,1.642111,1.794851,-5.096972
1790545686.5460,-0.000664,0.046297,-0.234142,-0.002028,0.044332,-0.234142,-0.064503,0.077692,-0.129147,1.143847,-0.250049,-10.569350
1790545686.5599,-0.008255,0.036822,-0.245286,-0.006387,0.039075,-0.245286,0.729546,0.727258,-0.605091,-0.657568,3.616671,-14.295224
1790545686.5742,0.005990,0.031605,-0.259991,0.002277,0.033846,-0.259991,0.426011,-0.710286,-1.157525,-1.347472,3.207691,-12.238231
1790545686.5890,0.005144,0.029562,-0.277455,0.004284,0.030847,-0.277455,0.188039,0.060694,-0.730147,2.753622,2.612811,-10.142427
1790545686.6031,0.013471,0.024486,-0.275583,0.010715,0.026394,-0.275583,0.330094,-0.258625,-0.741075,-3.187215,1.199971,-9.521448
1790545686.6172,0.023131,0.009962,-0.281078,0.019406,0.014892,-0.281078,0.978446,-0.364255,-1.056752,-2.114032,0.790991,-9.210958
1790545686.6311,0.038457,-0.000352,-0.294513,0.032742,0.004221,-0.294513,0.795110,-0.736997,-1.180594,-1.807408,1.460231,-5.368651
1790545686.6450,0.046096,-0.005292,-0.322969,0.042090,-0.002438,-0.322969,0.502502,-0.468672,-1.219447,1.143847,3.133331,-6.727042
1790545686.6591,0.051007,-0.010926,-0.343664,0.048332,-0.008380,-0.343664,0.416298,-0.185776,-1.286224,0.223975,2.017931,-8.628791
1790545686.6731,0.056633,-0.016392,-0.366679,0.054143,-0.013988,-0.366679,0.508573,-0.195490,-1.124744,-1.040848,3.839751,-9.249770
1790545686.6871,0.047259,-0.018047,-0.382656,0.049324,-0.016830,-0.382656,0.079980,0.812248,-1.066465,0.185647,2.166651,-15.692427
1790545686.7014,0.038240,-0.003541,-0.393308,0.041566,-0.007527,-0.393308,-1.049172,0.854743,-0.720434,-3.417183,2.278191,-17.438931
1790545686.7154,0.037217,0.010545,-0.389184,0.038522,0.005123,-0.389184,-1.165729,0.522068,-0.745931,-4.030431,-0.733389,-6.338930
1790545686.7294,0.031277,0.025572,-0.396634,0.033451,0.019437,-0.396634,-1.158445,0.768539,-0.663370,-1.845736,0.196111,-4.747672
1790545686.7437,0.007506,0.045361,-0.418049,0.015290,0.037584,-0.418049,-1.267717,1.527378,-0.702222,1.258831,0.865351,-1.836832
1790545686.7578,0.012499,0.033198,-0.416903,0.013336,0.034514,-0.416903,0.616631,-0.106857,-0.690081,-3.685479,-5.157808,-20.699071
1790545686.7717,0.012568,0.026392,-0.416878,0.012798,0.028829,-0.416878,0.534070,-0.154209,0.250879,2.791950,4.248731,-15.498371
1790545686.7858,0.004601,0.028417,-0.409891,0.007060,0.028540,-0.409891,-0.150707,0.355731,0.706183,2.791950,3.356411,-17.128441
1790545686.7997,0.008467,0.024110,-0.388152,0.008045,0.025439,-0.388152,0.181968,-0.212488,0.924728,-2.803935,-0.064149,-6.765853
1790545686.8139,0.009378,0.017213,-0.378571,0.008978,0.019681,-0.378571,0.288813,-0.200346,0.567770,0.492271,-1.105189,-7.852567
1790545686.8286,-0.010286,0.007379,-0.378769,-0.004507,0.011069,-0.378769,0.594777,1.069646,0.703754,3.175230,0.456371,-9.560259
1790545686.8425,-0.024927,-0.004334,-0.369907,-0.018801,0.000287,-0.369907,0.820607,0.904523,0.868878,0.722239,1.720491,-9.793126
1790545686.8563,-0.036381,-0.011035,-0.359534,-0.031107,-0.007638,-0.359534,0.549853,0.715117,1.044928,0.032335,2.910251,-8.434735
1790545686.8699,-0.048333,-0.017054,-0.348230,-0.043165,-0.014230,-0.348230,0.457579,0.717545,1.121419,0.683911,2.798711,-9.754315
1790545686.8839,-0.048267,-0.021938,-0.334485,-0.046737,-0.019626,-0.334485,0.383516,-0.065576,1.007290,-0.695896,3.282051,-10.064805
1790545686.8978,-0.047023,-0.027086,-0.322335,-0.046937,-0.024848,-0.322335,0.341021,-0.229486,0.929585,0.875551,1.980751,-9.870749
1790545686.9118,-0.039963,-0.026976,-0.309938,-0.042055,-0.026338,-0.309938,-0.097284,-0.614369,0.752320,0.837223,1.014071,-12.781588
1790545686.9258,-0.034690,-0.021053,-0.301689,-0.036899,-0.022639,-0.301689,-0.523448,-0.655649,0.679472,4.210086,0.456371,-11.229140
1790545686.9397,-0.031008,-0.011628,-0.293246,-0.032775,-0.014931,-0.293246,-0.812414,-0.577944,0.616336,4.171758,-0.175689,-9.521448
1790545686.9535,-0.021266,0.002167,-0.291497,-0.024719,-0.002963,-0.291497,-1.049172,-1.045389,0.365009,3.711822,0.716631,-6.727042
1790545686.9675,-0.007224,0.015101,-0.285288,-0.012472,0.009682,-0.285288,-0.998178,-1.244508,0.286090,2.217030,0.567911,-6.765853
1790545686.9814,0.006617,0.028711,-0.283521,0.000890,0.023002,-0.283521,-0.986036,-1.231153,0.275162,2.217030,1.385871,-7.270399
1790545686.9953,0.012844,0.040057,-0.278606,0.009258,0.034941,-0.278606,-0.879192,-0.591300,0.082114,3.060246,1.571771,-14.916203
1790545687.0092,0.004391,0.035042,-0.275274,0.005851,0.035012,-0.275274,0.252389,0.622842,-0.322196,2.332014,0.344831,-18.525644
1790545687.0232,0.000596,0.033036,-0.285035,0.002173,0.033628,-0.285035,0.157685,0.522068,-0.894057,-1.232488,2.724351,-14.217602
1790545687.0373,0.009685,0.031452,-0.295268,0.007432,0.032105,-0.295268,0.190467,-0.352114,-0.850347,-1.884064,2.612811,-8.357112
1790545687.0514,0.010057,0.025972,-0.305124,0.009270,0.027812,-0.305124,0.401728,-0.038865,-0.407186,0.990535,1.199971,-6.067252
1790545687.0657,0.014910,0.012224,-0.301677,0.013218,0.016901,-0.301677,0.899526,-0.191847,-0.450895,-0.925864,0.642271,-8.900469
1790545687.0798,0.027585,0.004273,-0.324201,0.023275,0.008061,-0.324201,0.673696,-0.730926,-1.031255,-0.082648,3.356411,-9.405014
1790545687.0936,0.032616,-0.003781,-0.348052,0.029814,-0.000228,-0.348052,0.661554,-0.231914,-1.170881,0.607255,2.426911,-8.318301
1790545687.1071,0.033259,-0.009949,-0.367237,0.032226,-0.007033,-0.367237,0.480647,-0.027938,-1.019113,1.987063,1.906391,-9.094525
1790545687.1212,0.044918,-0.016225,-0.375425,0.041110,-0.013467,-0.375425,0.432082,-0.570660,-0.982689,-1.960720,1.274331,-8.589979
1790545687.1352,0.056448,-0.024675,-0.387329,0.051847,-0.021312,-0.387329,0.583849,-0.739425,-0.890414,0.262303,1.423051,-9.948371
1790545687.1490,0.041220,-0.024644,-0.403993,0.044408,-0.023645,-0.403993,-0.006224,1.152208,-0.835778,1.603783,2.724351,-15.847672
1790545687.1630,0.033295,-0.011226,-0.401195,0.036629,-0.014952,-0.401195,-1.016390,0.922735,-0.680368,-6.636734,1.274331,-14.683336
1790545687.1776,0.026759,0.001587,-0.391315,0.029720,-0.003375,-0.391315,-1.052814,0.755184,-0.625731,-3.455511,-1.328269,-9.521448
1790545687.1915,0.020396,0.013232,-0.388026,0.023193,0.008250,-0.388026,-1.069812,0.955517,-0.589307,-3.225543,-1.328269,-3.855014
1790545687.2055,0.007547,0.034488,-0.432025,0.012241,0.026616,-0.432025,-1.115950,1.140067,-0.597806,-0.695896,3.691031,-2.884734
1790545687.2194,0.014685,0.027230,-0.436275,0.013952,0.027046,-0.436275,0.585064,-0.364255,-0.385331,-0.925864,2.092291,-7.037532
1790545687.2334,0.011947,0.021296,-0.431589,0.012548,0.023021,-0.431589,0.457579,0.105618,0.436643,0.453943,3.691031,-14.838581
1790545687.2473,0.004660,0.017660,-0.415887,0.007027,0.019268,-0.415887,0.138259,0.369086,0.972080,-0.120976,0.010211,-10.608161
1790545687.2613,0.005121,0.015193,-0.399222,0.005693,0.016416,-0.399222,0.092122,-0.146924,0.969652,-0.772552,0.642271,-9.327392
1790545687.2753,0.003247,0.010532,-0.387781,0.003981,0.012297,-0.387781,0.309453,0.042482,0.751106,-0.389272,1.385871,-8.784035
1790545687.2893,-0.017083,-0.000234,-0.382942,-0.010764,0.003525,-0.382942,0.691908,1.130354,0.874948,3.251886,0.493551,-8.589979
1790545687.3032,-0.031314,-0.012479,-0.371796,-0.025149,-0.007678,-0.371796,0.850961,0.876598,0.981793,0.683911,1.720491,-10.414105
1790545687.3171,-0.045293,-0.019365,-0.360506,-0.039250,-0.015859,-0.360506,0.572922,0.898452,1.110492,-0.082648,3.616671,-9.327392
1790545687.3316,-0.049395,-0.024271,-0.343508,-0.046352,-0.021747,-0.343508,0.328880,0.229460,1.150559,-1.155832,2.724351,-10.375294
1790545687.3459,-0.047713,-0.026765,-0.326942,-0.047305,-0.025259,-0.326942,0.158900,-0.228271,1.154201,-0.120976,2.575631,-10.064805
1790545687.3615,-0.041752,-0.027213,-0.311086,-0.043418,-0.026627,-0.311086,-0.066931,-0.550019,0.944155,1.718767,1.088431,-12.859210
1790545687.3761,-0.039183,-0.025649,-0.297537,-0.040454,-0.025943,-0.297537,-0.244196,-0.432247,0.871306,3.328542,-0.064149,-11.035084
1790545687.3908,-0.033422,-0.019685,-0.284981,-0.035532,-0.021562,-0.284981,-0.539232,-0.656864,0.776603,2.868606,-0.064149,-8.784035
1790545687.4055,-0.026320,-0.009554,-0.273984,-0.029083,-0.013157,-0.273984,-0.840339,-0.719999,0.547130,3.481854,-0.696209,-10.879840
1790545687.4207,-0.017495,0.005826,-0.269147,-0.020971,0.000132,-0.269147,-1.105022,-0.842627,0.367437,4.095102,0.270471,-9.987182
1790545687.4350,-0.008894,0.023880,-0.268761,-0.012517,0.016755,-0.268761,-1.317497,-0.882694,0.227811,3.596838,0.865351,-8.046623
1790545687.4489,0.003509,0.041395,-0.266992,-0.001299,0.034003,-0.266992,-1.318711,-1.194729,0.153748,3.328542,0.828171,-7.153965
1790545687.4630,0.003976,0.045987,-0.257554,0.002393,0.042392,-0.257554,-0.467598,-0.214916,0.032334,4.210086,-0.361589,-13.130889
1790545687.4769,-0.006040,0.039980,-0.262058,-0.003510,0.040704,-0.262058,0.428439,0.916665,-0.548026,-0.964192,2.203831,-12.471098
1790545687.4908,0.007067,0.032424,-0.266520,0.003894,0.034908,-0.266520,0.563209,-0.592514,-1.045824,-3.225543,2.724351,-13.324944
1790545687.5046,0.006727,0.031847,-0.292669,0.005877,0.032765,-0.292669,0.118833,-0.014582,-0.756859,2.715294,2.389731,-8.085434
1790545687.5186,0.006427,0.025542,-0.286843,0.006262,0.027709,-0.286843,0.349520,0.089834,-0.345264,0.185647,0.196111,-8.551168
1790545687.5326,0.021435,0.014574,-0.272875,0.016883,0.018514,-0.272875,0.662769,-0.715142,-0.799354,-3.532167,-0.212869,-9.599070
1790545687.5462,0.030086,0.005318,-0.293488,0.026125,0.009277,-0.293488,0.752615,-0.542734,-0.929267,0.760567,2.761531,-9.870749
1790545687.5598,0.031849,0.000395,-0.327170,0.030132,0.003059,-0.327170,0.515857,-0.059506,-1.003329,1.258831,3.765391,-8.706413
1790545687.5739,0.039100,-0.001416,-0.350263,0.036410,-0.000073,-0.350263,0.224463,-0.301120,-1.118673,-0.657568,2.612811,-7.542077
1790545687.5882,0.041525,-0.008193,-0.365223,0.039990,-0.005757,-0.365223,0.462435,-0.002441,-1.034897,-0.274288,1.646131,-9.987182
1790545687.6022,0.051344,-0.015162,-0.375137,0.047938,-0.012340,-0.375137,0.506144,-0.506310,-0.829707,-1.577440,1.869211,-9.831937
1790545687.6162,0.037350,-0.013009,-0.385538,0.040527,-0.012809,-0.385538,-0.162848,1.089073,-0.550454,-0.197632,2.575631,-16.158161
1790545687.6302,0.029823,-0.000824,-0.386672,0.033034,-0.004419,-0.386672,-0.880406,0.819533,-0.498246,-5.831846,2.687171,-16.740329
1790545687.6442,0.026214,0.010264,-0.382724,0.028260,0.005859,-0.382724,-0.842768,0.583990,-0.435111,-4.873646,1.014071,-11.035084
1790545687.6581,0.020110,0.017167,-0.373455,0.022555,0.013774,-0.373455,-0.683715,0.957945,-0.327052,-2.957247,-0.770569,-2.768301
1790545687.6721,0.005284,0.034788,-0.409165,0.010465,0.028484,-0.409165,-0.825770,1.158279,-0.342836,-0.082648,4.620531,-3.156413
1790545687.6861,0.018015,0.026031,-0.404177,0.015750,0.026767,-0.404177,0.444223,-0.800132,-0.201996,-1.845736,-1.588528,-13.286133
1790545687.7000,0.012841,0.020765,-0.397009,0.013714,0.022566,-0.397009,0.371374,0.206391,0.646690,1.450471,2.835891,-15.692427
1790545687.7139,0.005213,0.015189,-0.381969,0.007763,0.017402,-0.381969,0.302168,0.410367,1.004862,-0.465928,0.419191,-11.035084
1790545687.7279,0.006153,0.008069,-0.364043,0.006636,0.010869,-0.364043,0.356805,-0.163922,0.984221,-0.964192,-0.473129,-8.822846
1790545687.7418,-0.001686,0.002874,-0.355603,0.000810,0.005273,-0.355603,0.445437,0.397012,0.832453,0.645583,2.464091,-7.736133
1790545687.7558,-0.020080,-0.010347,-0.348517,-0.013813,-0.005661,-0.348517,0.877672,1.059933,0.958724,2.370342,0.753811,-9.715504
1790545687.7698,-0.033340,-0.023369,-0.335400,-0.027482,-0.018056,-0.335400,0.892241,0.832889,1.009718,0.147319,1.385871,-9.094525
1790545687.7834,-0.047523,-0.030877,-0.322802,-0.041510,-0.027031,-0.322802,0.587492,0.930020,1.088637,0.300631,3.170511,-10.724595
1790545687.7970,-0.050138,-0.036993,-0.305329,-0.047550,-0.034004,-0.305329,0.419940,0.163896,1.114134,-1.270816,2.389731,-11.462007
1790545687.8108,-0.047666,-0.040696,-0.289521,-0.047631,-0.038688,-0.289521,0.232962,-0.352114,1.169985,1.297159,2.315371,-11.073895
1790545687.8249,-0.041114,-0.040271,-0.275400,-0.043069,-0.039796,-0.275400,-0.123995,-0.605870,0.955082,1.143847,0.939711,-11.656063
1790545687.8398,-0.036991,-0.036013,-0.264539,-0.038815,-0.037148,-0.264539,-0.466384,-0.559732,0.891946,4.286742,-1.216729,-11.500819
1790545687.8542,-0.032355,-0.028151,-0.255518,-0.034293,-0.030850,-0.255518,-0.699499,-0.611940,0.788744,4.171758,-0.621849,-10.918651
1790545687.8684,-0.022008,-0.014198,-0.249359,-0.025694,-0.019194,-0.249359,-1.039459,-0.964042,0.617550,2.293686,0.939711,-8.124245
1790545687.8827,-0.021245,0.000284,-0.245544,-0.022580,-0.005559,-0.245544,-1.141447,-0.387324,0.348011,5.091629,-0.547489,-8.784035
1790545687.8968,-0.009441,0.016320,-0.243930,-0.013383,0.009756,-0.243930,-1.208224,-1.058745,0.162247,3.213558,0.716631,-9.405014
1790545687.9108,-0.001069,0.033701,-0.244004,-0.004763,0.026517,-0.244004,-1.302927,-0.870553,0.110039,3.711822,0.716631,-8.163056
1790545687.9251,-0.010105,0.040816,-0.245270,-0.008503,0.036527,-0.245270,-0.574442,0.463790,-0.024731,4.325070,0.753811,-11.927742
1790545687.9392,-0.004059,0.037153,-0.244792,-0.005392,0.036965,-0.244792,0.274243,-0.135997,-0.759287,-3.187215,2.984611,-14.955014
1790545687.9532,-0.007990,0.033238,-0.272773,-0.007210,0.034356,-0.272773,0.460007,0.339947,-0.687652,1.718767,4.769251,-9.987182
1790545687.9672,-0.012472,0.028834,-0.281264,-0.010894,0.030490,-0.281264,0.302168,0.270741,-0.475178,2.523654,1.237151,-8.784035
1790545687.9813,0.000175,0.026967,-0.280053,-0.003146,0.028024,-0.280053,0.150401,-0.638651,-0.673083,-2.114032,1.906391,-9.366203
1790545687.9952,0.004225,0.016764,-0.282698,0.002014,0.020142,-0.282698,0.627558,-0.207631,-0.907412,1.527127,-0.138509,-9.715504
1790545688.0089,0.017825,0.004384,-0.287796,0.013082,0.009112,-0.287796,0.888599,-0.696930,-1.139313,-1.500784,1.125611,-8.706413
1790545688.0226,0.024581,-0.001464,-0.324025,0.021131,0.001709,-0.324025,0.587492,-0.474742,-1.132028,1.603783,2.464091,-5.717951
1790545688.0365,0.030696,-0.009095,-0.343220,0.027827,-0.005854,-0.343220,0.609346,-0.297478,-1.000901,0.032335,2.129471,-8.395923
1790545688.0505,0.040860,-0.019034,-0.360203,0.036950,-0.015080,-0.360203,0.752615,-0.564589,-0.992402,-0.504256,2.129471,-9.172147
1790545688.0645,0.030933,-0.023055,-0.380948,0.032738,-0.020663,-0.380948,0.337379,0.772182,-0.894057,1.603783,3.542311,-14.722147
1790545688.0786,0.019268,-0.014393,-0.391898,0.023309,-0.016274,-0.391898,-0.584155,1.034436,-0.668226,-3.110559,3.839751,-18.680889
1790545688.0931,0.019606,0.000581,-0.372618,0.020717,-0.004476,-0.372618,-1.045529,0.392155,-0.524957,-6.521750,1.534591,-9.715504
1790545688.1073,0.018140,0.007640,-0.354937,0.018913,0.004005,-0.354937,-0.660646,0.384870,-0.194711,-2.267343,-0.621849,-5.252217
1790545688.1213,0.008698,0.022353,-0.364812,0.011763,0.016848,-0.364812,-0.930186,0.835317,-0.283343,-0.810880,1.869211,-4.825294
1790545688.1355,-0.002820,0.032932,-0.373728,0.001555,0.028107,-0.373728,-0.684929,0.983442,-0.381689,-0.695896,1.869211,-6.416553
1790545688.1493,-0.000306,0.028104,-0.369697,0.000252,0.028105,-0.369697,0.245104,0.026698,-0.205638,-4.375383,0.158931,-16.973196
1790545688.1632,0.000561,0.021414,-0.360469,0.000468,0.023421,-0.360469,0.392015,-0.053435,0.380793,-1.845736,0.902531,-16.856763
1790545688.1773,-0.007769,0.016773,-0.346991,-0.005298,0.018768,-0.346991,0.207465,0.522068,0.811813,-1.040848,0.084571,-13.324944
1790545688.1913,-0.009829,0.007790,-0.335797,-0.008470,0.011083,-0.335797,0.468506,0.036412,0.715896,0.070663,-0.584669,-7.309210
1790545688.2052,-0.019501,-0.002408,-0.332245,-0.016192,0.001639,-0.332245,0.752615,0.615557,0.452427,0.607255,2.129471,-9.676693
1790545688.2192,-0.038355,-0.013995,-0.332886,-0.031706,-0.009304,-0.332886,0.799967,1.174063,0.542273,2.140375,1.162791,-8.978091
1790545688.2329,-0.051955,-0.026621,-0.323539,-0.045881,-0.021426,-0.323539,0.922595,0.955517,0.730466,-0.082648,1.906391,-9.599070
1790545688.2465,-0.067851,-0.037556,-0.313729,-0.061260,-0.032717,-0.313729,0.796324,1.113356,0.822740,0.223975,2.017931,-9.793126
1790545688.2602,-0.075543,-0.044750,-0.301854,-0.071258,-0.041140,-0.301854,0.561995,0.564563,0.877377,-0.810880,3.356411,-10.802217
1790545688.2742,-0.067568,-0.050925,-0.286561,-0.068675,-0.047989,-0.286561,0.343449,-0.636223,0.925942,0.262303,1.348691,-12.509909
1790545688.2880,-0.053289,-0.049337,-0.274122,-0.057905,-0.048932,-0.274122,-0.178632,-1.091526,0.720752,0.415615,1.534591,-12.393476
1790545688.3020,-0.048053,-0.049428,-0.268373,-0.051008,-0.049280,-0.268373,-0.240553,-0.585229,0.826383,2.676966,-2.109048,-10.297672
1790545688.3160,-0.042954,-0.045397,-0.265084,-0.045371,-0.046562,-0.265084,-0.443315,-0.633795,0.788744,3.251886,-0.510309,-8.861658
1790545688.3303,-0.039214,-0.034848,-0.266229,-0.041061,-0.038362,-0.266229,-0.859766,-0.569445,0.607837,4.670021,-0.287229,-9.637881
1790545688.3446,-0.028496,-0.018240,-0.266648,-0.032266,-0.024277,-0.266648,-1.251933,-0.998038,0.326156,3.826806,0.158931,-9.482637
1790545688.3587,-0.020361,-0.000154,-0.270674,-0.023932,-0.007391,-0.270674,-1.353921,-0.902120,0.179245,4.899989,0.382011,-8.318301
1790545688.3728,-0.006792,0.018428,-0.273393,-0.011934,0.010682,-0.273393,-1.366063,-1.253007,0.054188,3.136902,0.642271,-6.106063
1790545688.3867,-0.000211,0.029850,-0.271500,-0.003728,0.024100,-0.271500,-0.865836,-0.576730,0.077257,1.718767,1.423051,-11.151518
1790545688.4006,-0.010564,0.022926,-0.273668,-0.008513,0.023278,-0.273668,0.428439,0.786751,-0.410828,1.948735,0.865351,-16.585084
1790545688.4145,-0.000699,0.015910,-0.286107,-0.003043,0.018120,-0.286107,0.604490,-0.531807,-0.767786,-0.619240,3.244871,-10.220049
1790545688.4285,-0.003991,0.016462,-0.310721,-0.003707,0.016959,-0.310721,0.083623,0.223389,-0.696151,2.063719,2.724351,-7.697322
1790545688.4425,-0.002335,0.009005,-0.301858,-0.002747,0.011391,-0.301858,0.446651,0.054624,-0.514030,-0.810880,0.196111,-8.163056
1790545688.4565,0.015719,-0.002934,-0.281296,0.010179,0.001363,-0.281296,0.736831,-0.953114,-0.807853,-2.612295,-0.250049,-7.658511
1790545688.4700,0.024245,-0.013680,-0.303894,0.020025,-0.009167,-0.303894,0.887385,-0.548805,-0.988760,0.568927,1.757671,-6.106063
1790545688.4836,0.031453,-0.019998,-0.327896,0.028024,-0.016749,-0.327896,0.598419,-0.414035,-0.981475,0.147319,2.649991,-7.153965
1790545688.4976,0.042268,-0.027111,-0.342296,0.037995,-0.024002,-0.342296,0.536498,-0.607084,-1.023970,-0.695896,1.832031,-9.133336
1790545688.5115,0.047851,-0.035632,-0.360142,0.044894,-0.032143,-0.360142,0.648199,-0.316904,-0.921982,0.300631,2.278191,-10.491728
1790545688.5255,0.035707,-0.041138,-0.377925,0.038463,-0.038439,-0.377925,0.530427,1.006511,-0.608733,-1.577440,5.215411,-13.635434
1790545688.5395,0.015264,-0.032572,-0.394640,0.022224,-0.034332,-0.394640,-0.567157,1.425390,-0.686438,3.290214,2.873071,-13.596623
1790545688.5534,0.012983,-0.018827,-0.383798,0.015755,-0.023479,-0.383798,-1.067384,0.479573,-0.673083,-4.107087,0.084571,-11.229140
1790545688.5672,0.010259,-0.007435,-0.366789,0.011908,-0.012248,-0.366789,-0.999392,0.529353,-0.580808,-2.957247,-1.105189,-7.503266
1790545688.5812,0.007347,0.010429,-0.367698,0.008716,0.003626,-0.367698,-1.205796,0.562135,-0.358620,-3.493839,1.943571,-6.455364
1790545688.5959,0.001171,0.022389,-0.363419,0.003434,0.016760,-0.363419,-0.983608,0.705404,-0.305198,-2.420655,-0.993649,-6.222497
1790545688.6101,0.001818,0.036848,-0.361660,0.002303,0.030822,-0.361660,-1.040673,0.287739,-0.277272,-4.030431,1.199971,-8.201867
1790545688.6242,0.008915,0.037753,-0.356827,0.006932,0.035674,-0.356827,-0.159206,-0.524522,0.204742,-0.542584,0.753811,-14.838581
1790545688.6382,0.003843,0.035961,-0.356998,0.004770,0.035875,-0.356998,0.065411,0.069193,0.781459,3.136902,1.385871,-12.509909
1790545688.6522,0.000607,0.033880,-0.361827,0.001856,0.034478,-0.361827,0.246318,-0.115356,0.794815,3.673494,4.100011,-9.948371
1790545688.6662,-0.009119,0.029066,-0.365995,-0.005827,0.030690,-0.365995,0.381088,0.438293,0.511920,2.485326,2.129471,-7.658511
1790545688.6802,-0.016412,0.019899,-0.358280,-0.013237,0.023136,-0.358280,0.600847,0.380014,0.646690,0.760567,1.088431,-8.745224
1790545688.6937,-0.031700,0.009561,-0.352281,-0.026161,0.013633,-0.352281,0.750187,0.970087,0.789958,1.067191,1.794851,-9.210958
1790545688.7073,-0.041133,0.001917,-0.342766,-0.036642,0.005432,-0.342766,0.587492,0.548779,0.950225,0.492271,2.947431,-9.870749
1790545688.7210,-0.045506,-0.004341,-0.329765,-0.042846,-0.001409,-0.329765,0.461221,0.213676,0.985435,-0.082648,2.352551,-8.745224
1790545688.7349,-0.053465,-0.010222,-0.318199,-0.050279,-0.007578,-0.318199,0.419940,0.416438,1.037643,0.645583,2.203831,-8.201867
1790545688.7489,-0.056667,-0.014474,-0.308769,-0.054750,-0.012406,-0.308769,0.365304,0.106832,0.890732,0.645583,3.616671,-9.599070
1790545688.7633,-0.035242,-0.014823,-0.284079,-0.041094,-0.014098,-0.284079,-0.132494,-1.518905,1.009718,-2.114032,0.344831,-13.208511
1790545688.7774,-0.024297,-0.005676,-0.275385,-0.029336,-0.008202,-0.275385,-0.661860,-0.989539,0.708611,2.791950,2.873071,-13.402567
1790545688.7914,-0.021825,0.003736,-0.267582,-0.024079,0.000154,-0.267582,-0.789345,-0.535449,0.622407,4.401726,0.047391,-8.628791
1790545688.8055,-0.015020,0.016600,-0.265407,-0.017738,0.011667,-0.265407,-0.939899,-0.825629,0.368651,4.631693,1.311511,-8.357112
1790545688.8196,0.000357,0.029696,-0.266057,-0.005071,0.024287,-0.266057,-0.907117,-1.308858,0.117324,1.718767,1.274331,-5.135783
1790545688.8341,-0.004751,0.025094,-0.263603,-0.004847,0.024852,-0.263603,0.326451,0.216105,0.416003,1.833751,2.873071,-13.247322
1790545688.8483,-0.011728,0.021756,-0.272807,-0.009663,0.022685,-0.272807,0.292455,0.540280,-0.301555,0.798895,3.430771,-13.053266
1790545688.8625,-0.006088,0.021238,-0.284506,-0.007160,0.021672,-0.284506,0.086051,-0.231914,-0.799354,-0.120976,2.575631,-11.229140
1790545688.8765,-0.007174,0.021673,-0.297628,-0.007170,0.021673,-0.297628,-0.007438,0.145684,-0.857632,1.488799,1.460231,-8.007811
1790545688.8905,-0.000636,0.015329,-0.295676,-0.002596,0.017233,-0.295676,0.367732,-0.329045,-0.603877,-0.235960,0.196111,-8.589979
1790545688.9045,0.008990,0.006324,-0.297538,0.005514,0.009596,-0.297538,0.598419,-0.445603,-0.845491,-1.462456,0.679451,-9.288581
1790545688.9185,0.018521,-0.006543,-0.308127,0.014619,-0.001701,-0.308127,0.883742,-0.543948,-1.020327,0.377287,0.790991,-9.094525
1790545688.9322,0.027309,-0.011291,-0.328120,0.023502,-0.008414,-0.328120,0.419940,-0.503882,-1.145384,0.377287,2.315371,-8.551168
1790545688.9457,0.032769,-0.013592,-0.344581,0.029989,-0.012039,-0.344581,0.173469,-0.349686,-1.079820,1.603783,1.683311,-10.181238
1790545688.9597,0.037895,-0.018977,-0.356575,0.035523,-0.016896,-0.356575,0.351948,-0.177277,-1.072535,-0.695896,1.088431,-9.676693
1790545688.9737,0.043188,-0.024290,-0.368395,0.040888,-0.022071,-0.368395,0.371374,-0.190633,-0.959620,-1.117504,1.497411,-9.870749
1790545688.9876,0.031374,-0.026145,-0.384012,0.034228,-0.024923,-0.384012,0.203823,0.877812,-0.557739,0.913879,3.021791,-11.190329
1790545689.0016,0.015821,-0.021551,-0.392903,0.021344,-0.022563,-0.392903,-0.346183,1.285764,-0.669440,-1.385800,1.497411,-13.053266
1790545689.0155,0.008157,-0.010099,-0.396972,0.012113,-0.013838,-0.396972,-0.824555,0.809820,-0.603877,-3.340527,1.683311,-12.548721
1790545689.0295,0.000140,0.000817,-0.388048,0.003732,-0.003580,-0.388048,-0.956897,0.846244,-0.503103,-2.229015,-1.216729,-7.774944
1790545689.0435,-0.006646,0.015869,-0.381423,-0.003533,0.010034,-0.381423,-1.174228,0.779466,-0.199567,-2.420655,-0.064149,-5.912007
1790545689.0575,-0.006258,0.026029,-0.379494,-0.005441,0.021231,-0.379494,-0.775990,0.154183,-0.228707,-3.187215,1.460231,-15.886483
1790545689.0715,-0.003734,0.020885,-0.375384,-0.004246,0.020989,-0.375384,0.268172,-0.307191,0.362580,1.603783,0.493551,-13.868301
1790545689.0856,-0.009530,0.014485,-0.373625,-0.007945,0.016436,-0.373625,0.404156,0.095904,0.840952,3.711822,1.460231,-11.617252
1790545689.0998,-0.012799,0.007379,-0.368393,-0.011343,0.010096,-0.368393,0.498859,-0.076504,0.975722,1.718767,1.385871,-6.222497
1790545689.1138,-0.017141,0.003100,-0.362850,-0.015402,0.005199,-0.362850,0.288813,0.193036,0.539845,0.798895,1.534591,-8.978091
1790545689.1278,-0.030780,-0.002999,-0.365539,-0.026166,-0.000540,-0.365539,0.426011,0.699333,0.589625,3.366870,1.460231,-8.512357
1790545689.1418,-0.044035,-0.018014,-0.361028,-0.038674,-0.012772,-0.361028,1.070720,0.787965,0.752320,1.220503,1.683311,-7.969000
1790545689.1554,-0.058786,-0.025693,-0.357874,-0.052752,-0.021817,-0.357874,0.661554,0.956731,0.930799,0.952207,3.951291,-9.793126
1790545689.1690,-0.065813,-0.029715,-0.350318,-0.061895,-0.027345,-0.350318,0.404156,0.446792,1.002433,-0.120976,3.728211,-7.969000
1790545689.1830,-0.069888,-0.038233,-0.335485,-0.067490,-0.034966,-0.335485,0.520714,0.176038,1.078924,0.568927,1.348691,-9.793126
1790545689.1969,-0.070100,-0.042749,-0.326997,-0.069317,-0.040414,-0.326997,0.409013,-0.057077,0.925942,0.262303,4.137191,-9.870749
1790545689.2108,-0.056584,-0.047481,-0.303122,-0.060404,-0.045361,-0.303122,0.138259,-1.010179,1.042500,-0.925864,-0.659029,-13.790679
1790545689.2248,-0.046034,-0.042696,-0.287141,-0.050345,-0.043495,-0.287141,-0.470026,-0.886336,0.887090,1.373815,0.344831,-12.471098
1790545689.2387,-0.043792,-0.035380,-0.270491,-0.045758,-0.037815,-0.270491,-0.705570,-0.468672,0.770532,4.401726,-0.882109,-9.987182
1790545689.2527,-0.034725,-0.024393,-0.257641,-0.038035,-0.028419,-0.257641,-0.953255,-0.916690,0.453641,3.520182,-0.844929,-8.318301
1790545689.2666,-0.022908,-0.009778,-0.256165,-0.027446,-0.015371,-0.256165,-1.066170,-1.080599,0.368651,3.136902,1.497411,-9.210958
1790545689.2807,-0.012251,0.006133,-0.256416,-0.016809,-0.000318,-0.256416,-1.131733,-1.064815,0.248451,4.516709,1.608951,-8.667602
1790545689.2947,0.005166,0.019675,-0.252590,-0.001426,0.013677,-0.252590,-0.994535,-1.443628,0.153748,2.025391,1.088431,-7.231588
1790545689.3088,0.001374,0.017198,-0.230253,0.000534,0.016142,-0.230253,-0.029292,0.268313,0.005623,0.607255,-1.960328,-13.907112
1790545689.3230,-0.005519,0.011864,-0.244119,-0.003703,0.013148,-0.244119,0.483076,0.683549,-0.569881,-1.539112,4.062831,-12.315854
1790545689.3375,-0.002274,0.010318,-0.258982,-0.002703,0.011167,-0.258982,0.217178,0.078906,-0.932909,-1.922392,2.724351,-8.201867
1790545689.3519,0.004157,0.009485,-0.271792,0.002099,0.009990,-0.271792,0.115191,-0.251340,-0.855204,-0.465928,1.534591,-6.338930
1790545689.3659,0.008542,0.000672,-0.270161,0.006609,0.003467,-0.270161,0.540140,-0.174849,-0.595378,-0.350944,0.047391,-7.037532
1790545689.3798,0.020685,-0.010010,-0.277676,0.016462,-0.005967,-0.277676,0.809680,-0.545163,-0.926838,-3.072231,2.092291,-9.443825
1790545689.3935,0.033158,-0.019386,-0.296418,0.028149,-0.015361,-0.296418,0.801181,-0.752781,-0.987546,-0.427600,2.798711,-8.163056
1790545689.4072,0.040686,-0.024586,-0.321433,0.036925,-0.021819,-0.321433,0.532855,-0.474742,-1.057966,0.722239,3.207691,-7.580888
1790545689.4212,0.042721,-0.030098,-0.337974,0.040982,-0.027614,-0.337974,0.401728,-0.076504,-1.022756,0.913879,1.720491,-9.676693
1790545689.4356,0.029067,-0.035794,-0.357713,0.032642,-0.033340,-0.357713,0.473362,1.067218,-0.830921,-0.120976,3.691031,-13.169700
1790545689.4515,0.012854,-0.029251,-0.373873,0.018790,-0.030478,-0.373873,-0.392321,1.075717,-0.809067,1.527127,2.166651,-13.130889
1790545689.4661,0.012646,-0.018048,-0.369763,0.014489,-0.021777,-0.369763,-0.907117,0.320521,-0.860061,-2.842263,-1.068009,-8.861658
1790545689.4805,0.009783,-0.007475,-0.360458,0.011195,-0.011766,-0.360458,-0.954469,0.542709,-0.631802,-2.497311,-1.514168,-5.717951
1790545689.4949,0.000304,0.007838,-0.366586,0.003571,0.001957,-0.366586,-1.064956,0.787965,-0.430254,-0.427600,1.014071,-6.765853
1790545689.5105,-0.011251,0.020563,-0.369888,-0.006804,0.014981,-0.369888,-0.898618,1.015010,-0.467893,-2.229015,-0.064149,-7.503266
1790545689.5249,-0.016900,0.030038,-0.372315,-0.013871,0.025521,-0.372315,-0.728638,0.579133,-0.380474,-2.343999,0.567911,-16.429840
1790545689.5391,-0.011143,0.026693,-0.367027,-0.011962,0.026341,-0.367027,0.146758,-0.479599,0.266663,0.952207,1.014071,-16.274595
1790545689.5531,-0.016596,0.021369,-0.361417,-0.015206,0.022860,-0.361417,0.298526,0.139614,0.797243,3.290214,1.423051,-15.537182
1790545689.5672,-0.020527,0.017006,-0.370551,-0.018931,0.018762,-0.370551,0.460007,-0.058292,0.792387,2.140375,2.687171,-5.019350
1790545689.5810,-0.025817,0.013901,-0.369337,-0.023751,0.015359,-0.369337,0.246318,0.257385,0.396576,1.182175,1.943571,-8.046623
1790545689.5957,-0.037748,0.005309,-0.372414,-0.033549,0.008324,-0.372414,0.609346,0.502642,0.533775,3.673494,1.794851,-7.153965
1790545689.6102,-0.051688,-0.006836,-0.369282,-0.046246,-0.002288,-0.369282,0.871601,0.762468,0.803314,1.948735,2.649991,-8.900469
1790545689.6241,-0.060457,-0.012949,-0.361785,-0.056194,-0.009751,-0.361785,0.477005,0.565777,0.899231,-0.235960,3.282051,-10.220049
1790545689.6378,-0.063245,-0.014954,-0.356113,-0.061130,-0.013393,-0.356113,0.235391,0.087405,0.929585,0.492271,3.951291,-8.978091
1790545689.6519,-0.067763,-0.017679,-0.347837,-0.065773,-0.016393,-0.347837,0.196538,0.168753,0.896803,1.182175,2.426911,-8.667602
1790545689.6661,-0.070293,-0.020950,-0.341662,-0.068937,-0.019583,-0.341662,0.243890,0.042482,0.702540,1.527127,2.612811,-9.521448
1790545689.6799,-0.058932,-0.026109,-0.332198,-0.061934,-0.024151,-0.332198,0.309453,-0.909405,0.539845,1.258831,1.720491,-13.208511
1790545689.6939,-0.048031,-0.016736,-0.321465,-0.052202,-0.018960,-0.321465,-0.691000,-1.018678,0.439071,4.363398,2.241011,-11.772497
1790545689.7079,-0.044092,-0.006794,-0.303302,-0.046525,-0.010444,-0.303302,-0.836697,-0.530593,0.389292,4.746677,0.047391,-12.121798
1790545689.7217,-0.034190,0.002425,-0.291608,-0.037891,-0.001436,-0.291608,-0.750493,-0.947044,0.226597,2.523654,0.456371,-6.727042
1790545689.7357,-0.022256,0.013673,-0.289448,-0.026946,0.009141,-0.289448,-0.784489,-1.097597,0.148891,2.600310,1.460231,-6.144874
1790545689.7497,-0.005950,0.028073,-0.289214,-0.012249,0.022393,-0.289214,-0.988465,-1.310072,0.174388,1.450471,2.241011,-7.852567
1790545689.7637,-0.008137,0.030463,-0.267036,-0.009370,0.028042,-0.267036,-0.359539,0.067979,0.071186,2.753622,-1.588528,-17.050819
1790545689.7777,-0.014999,0.029711,-0.283186,-0.013310,0.029210,-0.283186,0.137045,0.610701,-0.606305,0.568927,3.319231,-11.539630
1790545689.7918,0.003417,0.026193,-0.291434,-0.001601,0.027098,-0.291434,0.270601,-0.959185,-0.999687,-3.762135,2.389731,-12.742777
1790545689.8057,0.001640,0.019886,-0.307824,0.000668,0.022050,-0.307824,0.521928,0.048553,-0.725291,2.945262,1.980751,-7.153965
1790545689.8196,0.005666,0.009767,-0.317346,0.004166,0.013452,-0.317346,0.750187,-0.082574,-0.671869,-1.155832,1.683311,-8.745224
1790545689.8335,0.016498,-0.000712,-0.331775,0.012798,0.003537,-0.331775,0.790254,-0.556090,-1.028826,-0.964192,1.869211,-9.560259
1790545689.8473,0.025596,-0.014459,-0.348119,0.021757,-0.009060,-0.348119,1.007585,-0.507524,-1.212162,0.415615,1.497411,-9.094525
1790545689.8615,0.031094,-0.026293,-0.369331,0.028293,-0.021123,-0.369331,0.887385,-0.308405,-1.200020,1.182175,1.943571,-8.279490
1790545689.8755,0.041593,-0.034994,-0.391151,0.037603,-0.030833,-0.391151,0.678552,-0.624082,-1.173309,0.185647,1.943571,-7.969000
1790545689.8896,0.034560,-0.047558,-0.387023,0.035473,-0.042541,-0.387023,0.713763,0.590060,-0.935337,0.415615,-1.700068,-13.092077
1790545689.9035,0.020256,-0.043551,-0.403101,0.024821,-0.043248,-0.403101,-0.287905,1.310047,-0.968119,-4.950302,2.315371,-18.448022
1790545689.9175,0.022866,-0.028181,-0.415500,0.023453,-0.032701,-0.415500,-1.112307,0.251315,-1.034897,-8.016541,1.348691,-13.751868
1790545689.9316,0.026015,-0.012413,-0.421560,0.025246,-0.018499,-0.421560,-1.215509,0.359373,-0.993616,-4.950302,-0.361589,-4.670049
1790545689.9455,0.021230,0.003049,-0.425661,0.022435,-0.003416,-0.425661,-1.296857,0.661695,-0.713149,-2.229015,-1.030829,-6.571797
1790545689.9596,0.015872,0.016844,-0.434788,0.017841,0.010766,-0.434788,-1.149946,0.763683,-0.856418,-2.267343,-0.807749,-5.756762
1790545689.9735,0.000044,0.030838,-0.447477,0.005383,0.024817,-0.447477,-1.012747,1.301548,-0.714364,0.108991,1.088431,-6.494175
1790545689.9874,-0.004462,0.046049,-0.459396,-0.001509,0.039680,-0.459396,-0.984822,0.596131,-0.741075,-1.539112,3.207691,-8.900469
1790545690.0014,0.008409,0.036592,-0.457639,0.005433,0.037518,-0.457639,0.483076,-0.732140,-0.067226,-5.256926,-2.294948,-16.623896
1790545690.0157,0.000983,0.036146,-0.454985,0.002318,0.036558,-0.454985,0.007132,0.287739,0.583554,3.213558,2.389731,-13.751868
1790545690.0301,0.005242,0.034827,-0.443856,0.004365,0.035346,-0.443856,0.041128,-0.180920,0.434215,-3.263871,1.162791,-9.366203
1790545690.0439,-0.000194,0.025357,-0.440151,0.001173,0.028354,-0.440151,0.604490,0.370301,0.338298,-0.197632,0.382011,-5.912007
1790545690.0578,-0.013156,0.013256,-0.445763,-0.008857,0.017785,-0.445763,0.864316,0.685978,0.377150,2.753622,1.385871,-7.580888
1790545690.0715,-0.024935,0.001833,-0.440298,-0.020112,0.006619,-0.440298,0.850961,0.722402,0.652760,1.258831,2.389731,-10.685784
1790545690.0851,-0.033976,-0.004122,-0.431078,-0.029817,-0.000900,-0.431078,0.487932,0.577919,0.749892,0.147319,3.393591,-11.151518
1790545690.0988,-0.037720,-0.007008,-0.418885,-0.035349,-0.005176,-0.418885,0.212322,0.197892,0.836096,-0.235960,2.203831,-9.210958
1790545690.1134,-0.044994,-0.013315,-0.407370,-0.042100,-0.010873,-0.407370,0.393229,0.353303,0.881019,0.798895,1.423051,-8.201867
1790545690.1278,-0.045086,-0.016068,-0.395689,-0.044190,-0.014510,-0.395689,0.305811,-0.013368,0.732894,-0.772552,3.876931,-8.512357
1790545690.1418,-0.029339,-0.019921,-0.381350,-0.033794,-0.018298,-0.381350,0.124904,-1.163161,0.853094,-1.500784,-0.064149,-13.713056
1790545690.1556,-0.021151,-0.012542,-0.374112,-0.024944,-0.014269,-0.374112,-0.593868,-0.819559,0.638191,3.673494,1.534591,-14.256413
1790545690.1696,-0.019169,-0.001126,-0.372124,-0.020902,-0.005069,-0.372124,-0.894976,-0.484455,0.547130,4.516709,0.605091,-8.978091
1790545690.1835,-0.013883,0.013820,-0.371901,-0.015989,0.008153,-0.371901,-1.112307,-0.733355,0.318871,3.826806,0.865351,-6.494175
1790545690.1974,-0.002192,0.027223,-0.368836,-0.006331,0.021502,-0.368836,-1.037030,-1.036890,0.102754,2.025391,0.456371,-6.571797
1790545690.2113,0.011535,0.042106,-0.370910,0.006175,0.035925,-0.370910,-0.935042,-1.120666,0.142821,1.335487,3.839751,-8.201867
1790545690.2253,-0.000764,0.037703,-0.367164,0.001317,0.037169,-0.367164,0.139473,0.763683,-0.205638,5.283269,-1.811608,-15.808861
1790545690.2393,-0.004655,0.035991,-0.377513,-0.002863,0.036345,-0.377513,0.160114,0.534210,-0.792069,-1.539112,2.835891,-12.432287
1790545690.2533,0.007808,0.035527,-0.388136,0.004607,0.035772,-0.388136,0.100621,-0.523308,-1.087105,-2.382327,2.464091,-8.667602
1790545690.2672,0.001954,0.030845,-0.400146,0.002750,0.032323,-0.400146,0.300954,0.400654,-0.668226,1.948735,0.753811,-6.727042
1790545690.2811,0.004247,0.020260,-0.403537,0.003798,0.023879,-0.403537,0.676124,-0.046150,-0.626945,0.147319,0.196111,-9.016902
1790545690.2951,0.014269,0.012335,-0.417858,0.011128,0.015798,-0.417858,0.608132,-0.563375,-1.009400,0.338959,2.203831,-9.870749
1790545690.3087,0.021921,0.007277,-0.436341,0.018683,0.009833,-0.436341,0.439366,-0.415249,-1.128386,0.645583,2.575631,-9.288581
1790545690.3224,0.025609,0.005009,-0.456407,0.023531,0.006456,-0.456407,0.265744,-0.093502,-1.117459,0.108991,2.947431,-8.667602
1790545690.3364,0.030617,0.001134,-0.468720,0.028491,0.002731,-0.468720,0.260888,-0.117785,-1.056752,-0.849208,1.014071,-6.959909
1790545690.3506,0.039503,-0.003716,-0.476129,0.036199,-0.001782,-0.476129,0.313096,-0.324189,-0.897699,-2.573967,1.125611,-8.667602
1790545690.3656,0.038541,-0.004059,-0.487864,0.037839,-0.003376,-0.487864,0.106692,0.278026,-0.656085,-2.267343,3.505131,-10.297672
1790545690.3798,0.023609,0.002064,-0.497592,0.027878,0.000432,-0.497592,-0.426317,1.290620,-0.591735,-3.647151,2.873071,-15.808861
1790545690.3940,0.013274,0.010574,-0.503378,0.017655,0.007531,-0.503378,-0.647291,0.976157,-0.467893,-3.455511,1.125611,-13.324944
1790545690.4080,0.005852,0.020892,-0.505288,0.009393,0.016884,-0.505288,-0.837911,0.836531,-0.311268,-3.225543,-0.064149,-8.007811
1790545690.4220,0.003534,0.028110,-0.502339,0.005292,0.024742,-0.502339,-0.567157,0.390941,0.038405,-2.497311,0.679451,-6.649420
1790545690.4360,0.006730,0.026685,-0.497025,0.006299,0.026102,-0.497025,0.062982,-0.161494,0.239952,-1.807408,1.348691,-10.181238
1790545690.4500,0.001140,0.024409,-0.487738,0.002688,0.024917,-0.487738,0.143116,0.155397,0.876163,1.680439,1.906391,-10.414105
1790545690.4639,-0.000133,0.017196,-0.474449,0.000713,0.019512,-0.474449,0.415084,-0.100787,1.071639,0.147319,0.567911,-10.918651
1790545690.4779,-0.006993,0.009354,-0.460073,-0.004681,0.012402,-0.460073,0.537712,0.173610,1.284114,1.527127,1.460231,-7.852567
1790545690.4919,-0.014587,0.005122,-0.447052,-0.011615,0.007306,-0.447052,0.311882,0.383656,0.963581,0.338959,2.017931,-8.473546
1790545690.5058,-0.028492,-0.001338,-0.437280,-0.023429,0.001255,-0.437280,0.441795,0.682335,1.097136,2.945262,1.832031,-9.405014
1790545690.5197,-0.040954,-0.011118,-0.424834,-0.035696,-0.007406,-0.424834,0.619059,0.688406,1.092280,1.297159,1.051251,-9.599070
1790545690.5333,-0.053341,-0.016683,-0.410355,-0.048048,-0.013900,-0.410355,0.439366,0.718759,1.197910,1.067191,2.835891,-8.706413
1790545690.5469,-0.060089,-0.022327,-0.394576,-0.056476,-0.019799,-0.394576,0.394443,0.433436,1.093494,-0.619240,2.389731,-9.715504
1790545690.5606,-0.063365,-0.028090,-0.381133,-0.061299,-0.025603,-0.381133,0.358019,0.148113,0.966009,0.262303,1.646131,-10.336483
1790545690.5745,-0.058348,-0.031462,-0.368436,-0.059233,-0.029704,-0.368436,0.156471,-0.420106,0.820312,-0.044320,1.311511,-11.733686
1790545690.5884,-0.050071,-0.029388,-0.356614,-0.052820,-0.029483,-0.356614,-0.207771,-0.741854,0.783888,1.795423,1.943571,-13.092077
1790545690.6025,-0.043993,-0.025693,-0.347290,-0.046641,-0.026830,-0.347290,-0.381394,-0.616797,0.712253,1.987063,0.270471,-9.560259
1790545690.6167,-0.035355,-0.020138,-0.339381,-0.038740,-0.022146,-0.339381,-0.504022,-0.812274,0.604195,2.217030,0.196111,-8.784035
1790545690.6308,-0.026216,-0.009819,-0.335300,-0.029973,-0.013517,-0.335300,-0.803915,-0.865696,0.365009,2.791950,0.679451,-8.900469
1790545690.6449,-0.014289,0.003755,-0.333349,-0.018994,-0.001427,-0.333349,-1.024889,-1.027177,0.140392,3.251886,0.828171,-11.035084
1790545690.6589,0.001673,0.019771,-0.332957,-0.004527,0.013411,-0.332957,-1.183942,-1.327070,-0.000448,2.868606,1.274331,-9.560259
1790545690.6729,-0.002831,0.028009,-0.338337,-0.003340,0.023630,-0.338337,-0.576870,0.084977,-0.056299,4.401726,1.869211,-8.978091
1790545690.6868,-0.010146,0.025372,-0.352068,-0.008104,0.024850,-0.352068,0.225677,0.519640,-0.677939,2.830278,2.129471,-10.025993
1790545690.7007,0.004582,0.020159,-0.351043,0.000776,0.021566,-0.351043,0.412655,-0.516023,-1.186665,-6.368438,2.129471,-10.142427
1790545690.7146,0.012912,0.013975,-0.357925,0.009271,0.016252,-0.357925,0.452722,-0.220987,-0.955978,-2.305671,1.088431,-6.416553
1790545690.7286,0.011614,0.006637,-0.362706,0.010911,0.009522,-0.362706,0.433296,0.267099,-0.562596,-1.194160,0.047391,-11.035084
1790545690.7425,0.018438,0.002010,-0.365972,0.016180,0.004264,-0.365972,0.213536,-0.102001,-0.802996,-5.026958,-0.733389,-11.073895
1790545690.7565,0.019694,0.001915,-0.374737,0.018640,0.002620,-0.374737,-0.051147,0.200321,-0.891628,-2.612295,0.642271,-11.151518
1790545690.7701,0.019715,0.004075,-0.382378,0.019392,0.003638,-0.382378,-0.140993,0.338733,-0.908626,-2.842263,1.720491,-9.094525
1790545690.7837,0.018760,0.010304,-0.391176,0.018949,0.008304,-0.391176,-0.438458,0.279240,-0.801782,-0.887536,1.608951,-8.085434
1790545690.7978,0.017730,0.015356,-0.400889,0.018096,0.013240,-0.400889,-0.389893,0.217319,-0.662155,-0.350944,1.162791,-9.521448
1790545690.8119,0.020451,0.019315,-0.406109,0.019744,0.017492,-0.406109,-0.269693,-0.019439,-0.571095,-1.079176,1.794851,-9.094525
1790545690.8267,0.020319,0.024775,-0.413477,0.020146,0.022590,-0.413477,-0.368038,0.161468,-0.580808,-0.657568,1.646131,-8.900469
1790545690.8401,0.018144,0.034568,-0.420873,0.018745,0.030974,-0.420873,-0.524662,0.308379,-0.674297,-0.120976,3.988471,-6.921098
1790545690.8536,0.015269,0.041714,-0.428870,0.016312,0.038492,-0.428870,-0.521020,0.403082,-0.622089,-1.079176,2.687171,-12.548721
1790545690.8674,0.016921,0.035170,-0.435582,0.016738,0.036167,-0.435582,0.435724,-0.018225,-0.414470,-0.427600,2.203831,-16.701518
1790545690.8815,0.017938,0.031185,-0.439322,0.017578,0.032679,-0.439322,0.421154,-0.335116,0.286090,3.903462,4.694891,-9.870749
1790545690.8956,0.008930,0.025900,-0.435195,0.011524,0.027934,-0.435195,0.356805,0.354517,0.749892,2.561982,1.608951,-9.443825
1790545690.9096,-0.002635,0.022012,-0.426639,0.001613,0.023789,-0.426639,0.213536,0.520854,1.040072,2.332014,1.051251,-9.987182
1790545690.9235,-0.008892,0.018528,-0.409136,-0.005740,0.020106,-0.409136,0.205037,0.154183,1.386102,0.990535,1.608951,-9.327392
1790545690.9376,-0.005958,0.015183,-0.387622,-0.005893,0.016660,-0.387622,0.218393,-0.291407,1.315682,-2.114032,1.906391,-8.706413
1790545690.9516,-0.001016,0.012789,-0.368220,-0.002479,0.013951,-0.368220,0.105477,-0.494169,1.250118,-1.194160,1.237151,-9.870749
1790545690.9655,-0.010570,0.012036,-0.352878,-0.008143,0.012611,-0.352878,0.033843,0.325377,1.414028,2.332014,2.017931,-9.754315
1790545690.9796,-0.013232,0.009802,-0.331361,-0.011705,0.010645,-0.331361,0.130974,-0.054649,1.501446,0.108991,2.092291,-9.715504
1790545690.9933,-0.016553,0.009093,-0.312269,-0.015098,0.009559,-0.312269,0.056912,-0.020653,1.397030,0.722239,2.426911,-8.939280
1790545691.0070,-0.020808,0.009725,-0.294754,-0.019095,0.009675,-0.294754,-0.086357,0.095904,1.298684,0.338959,1.832031,-9.405014
1790545691.0208,-0.023209,0.008261,-0.281507,-0.021975,0.008685,-0.281507,0.011988,0.041268,0.997577,-0.159304,0.939711,-10.491728
1790545691.0349,-0.022116,0.008417,-0.270434,-0.022074,0.008497,-0.270434,-0.060860,-0.191847,0.759605,0.147319,1.385871,-9.327392
1790545691.0488,-0.020074,0.009688,-0.260713,-0.020674,0.009331,-0.260713,-0.104569,-0.246484,0.632120,0.262303,2.092291,-10.414105
1790545691.0628,-0.014220,0.011704,-0.252198,-0.016156,0.010992,-0.252198,-0.098498,-0.474742,0.441500,-0.082648,3.207691,-10.996273
1790545691.0767,-0.008122,0.015742,-0.246570,-0.010532,0.014317,-0.246570,-0.313402,-0.503882,0.332227,0.338959,1.906391,-11.500819
1790545691.0909,0.003232,0.022172,-0.244697,-0.000897,0.019816,-0.244697,-0.558658,-0.921547,0.214455,1.910407,0.307651,-14.334035
1790545691.1050,0.002871,0.019525,-0.253258,0.001740,0.019612,-0.253258,0.022916,-0.015797,-0.222636,2.102047,-1.439808,-13.441378
1790545691.1189,0.005370,0.017833,-0.259907,0.004281,0.018367,-0.259907,0.083623,-0.000013,-0.597806,-0.925864,0.902531,-9.172147
1790545691.1331,0.001847,0.013907,-0.272159,0.002577,0.015245,-0.272159,0.186825,0.429794,-0.767786,-0.389272,-0.026969,-9.016902
1790545691.1471,0.011347,0.011975,-0.278266,0.008716,0.012956,-0.278266,0.082409,-0.254983,-0.996045,-3.953775,0.344831,-8.900469
1790545691.1610,0.011737,0.016225,-0.286541,0.010830,0.015244,-0.286541,-0.319472,0.219747,-0.800568,-1.424128,1.237151,-8.861658
1790545691.1750,0.012665,0.018777,-0.294179,0.012114,0.017717,-0.294179,-0.241767,0.193036,-0.673083,-2.420655,0.716631,-11.073895
1790545691.1890,0.010498,0.021093,-0.308368,0.010983,0.020080,-0.308368,-0.241767,0.376371,-0.847919,-1.040848,0.456371,-11.539630
1790545691.2030,0.005120,0.023080,-0.325502,0.006879,0.022180,-0.325502,-0.173775,0.598559,-1.023970,-0.120976,1.237151,-11.733686
1790545691.2169,0.003213,0.024272,-0.346688,0.004313,0.023644,-0.346688,-0.179846,0.321735,-1.022756,0.223975,0.010211,-7.037532
1790545691.2305,0.006908,0.024579,-0.363794,0.006129,0.024298,-0.363794,-0.109426,-0.070433,-1.010614,-0.082648,0.158931,-7.930189
1790545691.2441,0.010276,0.024796,-0.383187,0.009032,0.024646,-0.383187,-0.094856,-0.127498,-0.920768,0.722239,0.344831,-8.240679
1790545691.2581,0.014020,0.027217,-0.396728,0.012524,0.026446,-0.396728,-0.181060,-0.144496,-0.818780,0.492271,1.534591,-9.288581
1790545691.2721,0.016433,0.031669,-0.408280,0.015260,0.030102,-0.408280,-0.295190,-0.048578,-0.776285,0.415615,2.166651,-9.482637
1790545691.2861,0.012526,0.037601,-0.419736,0.013346,0.035351,-0.419736,-0.395963,0.397012,-0.681582,0.492271,2.464091,-10.336483
1790545691.3001,0.020076,0.035107,-0.424648,0.018057,0.035181,-0.424648,0.100621,-0.437104,-0.432683,-0.695896,1.014071,-15.886483
1790545691.3141,0.020918,0.029181,-0.432493,0.020060,0.030981,-0.432493,0.473362,-0.223415,0.055403,3.136902,3.542311,-12.199420
1790545691.3282,0.017777,0.023556,-0.432194,0.018462,0.025784,-0.432194,0.578993,-0.078932,0.491280,3.635166,4.806431,-8.551168
