t,imu_roll,imu_pitch,imu_yaw,lpf_roll,lpf_pitch,lpf_yaw,gyro_x,gyro_y,gyro_z,acc_x,acc_y,acc_z
1790544646.9370,0.018063,-0.031130,0.013759,0.012644,-0.021791,0.013759,0.028869,-0.002884,0.005054,-0.159304,1.199971,-10.142427
1790544646.9524,0.005511,-0.027170,0.018965,0.007651,-0.025556,0.018965,-0.023339,-0.004098,0.002626,0.108991,1.237151,-9.987182
1790544646.9662,0.004912,-0.027695,0.019273,0.005734,-0.027053,0.019273,-0.017269,0.001972,-0.002230,-0.005993,1.199971,-10.181238
1790544646.9799,-0.005064,-0.026060,0.023145,-0.001825,-0.026358,0.023145,0.000943,0.009257,0.001412,0.377287,1.237151,-9.793126
1790544646.9939,-0.005137,-0.027125,0.023559,-0.004144,-0.026895,0.023559,-0.009984,0.028683,0.001412,0.070663,1.162791,-10.103616
1790544647.0080,-0.005153,-0.026464,0.023631,-0.004850,-0.026593,0.023631,-0.041552,0.016542,0.017196,0.070663,1.199971,-9.909560
1790544647.0221,-0.000830,-0.023269,0.020931,-0.002036,-0.024266,0.020931,-0.074333,0.051752,0.042693,-0.274288,1.385871,-10.103616
1790544647.0368,-0.000749,-0.018114,0.021076,-0.001135,-0.019960,0.021076,-0.148396,0.063894,0.092473,-0.044320,1.497411,-9.948371
1790544647.0509,0.002948,-0.016355,0.019919,0.001723,-0.017437,0.019919,-0.204247,0.023827,0.154394,-0.350944,1.237151,-10.142427
1790544647.0649,0.008374,-0.013758,0.021557,0.006378,-0.014861,0.021557,-0.141111,-0.121870,0.296449,-0.427600,1.348691,-9.676693
1790544647.0789,0.006693,-0.012993,0.027677,0.006599,-0.013554,0.027677,-0.148396,-0.044165,0.419077,0.108991,1.125611,-9.327392
1790544647.0929,0.011732,-0.013918,0.032041,0.010192,-0.013809,0.032041,-0.056121,-0.186220,0.505281,-0.427600,1.051251,-9.210958
1790544647.1069,-0.000233,-0.017224,0.042673,0.002895,-0.016199,0.042673,0.071364,0.052966,0.562346,1.182175,0.939711,-9.288581
1790544647.1210,0.000128,-0.016041,0.049657,0.000958,-0.016089,0.049657,-0.042766,-0.092731,0.504067,0.032335,1.385871,-9.948371
1790544647.1349,0.006521,-0.021120,0.054924,0.004852,-0.019611,0.054924,-0.033053,-0.245713,0.270952,-0.619240,0.567911,-11.850119
1790544647.1492,0.007956,-0.025565,0.057565,0.007025,-0.023779,0.057565,0.000943,-0.040523,0.184748,-0.235960,0.567911,-10.414105
1790544647.1638,0.006431,-0.028664,0.057488,0.006609,-0.027198,0.057488,0.058008,-0.091517,0.227242,0.377287,0.865351,-10.569350
1790544647.1778,0.000871,-0.032398,0.055420,0.002592,-0.030838,0.055420,0.185493,0.084534,0.268523,0.683911,0.939711,-9.909560
1790544647.1915,-0.002953,-0.030310,0.054788,-0.001289,-0.030468,0.054788,0.096861,0.190164,0.234527,0.185647,1.534591,-8.551168
1790544647.2052,-0.005023,-0.025148,0.053856,-0.003903,-0.026744,0.053856,0.000943,0.095461,0.240598,0.147319,2.055111,-9.210958
1790544647.2192,-0.010546,-0.023350,0.054518,-0.008553,-0.024368,0.054518,0.049509,0.117316,0.218743,0.837223,1.720491,-9.831937
1790544647.2330,-0.013404,-0.019769,0.054365,-0.011949,-0.021149,0.054365,-0.068263,-0.001670,0.189604,0.722239,1.869211,-10.142427
1790544647.2470,-0.013588,-0.009627,0.050183,-0.013096,-0.013084,0.050183,-0.274667,-0.257854,0.212673,0.913879,2.724351,-9.637881
1790544647.2609,-0.012781,-0.001448,0.055266,-0.012875,-0.004939,0.055266,-0.332946,-0.393838,0.227242,1.143847,2.315371,-9.987182
1790544647.2750,-0.019174,0.005073,0.062227,-0.017284,0.002069,0.062227,-0.176321,0.018970,0.107042,1.642111,2.501271,-9.754315
1790544647.2893,-0.017765,0.001285,0.022663,-0.017621,0.001521,0.022663,0.592231,0.300651,-0.111503,-1.424128,3.467951,-13.286133
1790544647.3034,-0.011213,0.009051,-0.021185,-0.013135,0.006792,-0.021185,0.230416,0.008043,-0.495172,-1.194160,4.323091,-9.288581
1790544647.3175,0.001268,0.014066,-0.063637,-0.003053,0.011884,-0.063637,0.207348,-0.245713,-0.946833,-1.577440,3.356411,-8.589979
1790544647.3315,0.004883,0.016339,-0.035801,0.002502,0.015002,-0.035801,0.147855,-0.404765,-1.141096,0.722239,2.092291,-7.115154
1790544647.3454,-0.009575,0.021444,0.041472,-0.005952,0.019511,0.041472,-0.143540,0.473060,-1.156880,2.025391,2.129471,-7.425644
1790544647.3595,-0.012142,0.019643,0.061968,-0.010285,0.019603,0.061968,-0.025768,0.091819,-1.096172,1.182175,1.162791,-10.841028
1790544647.3735,-0.004470,0.013725,0.037199,-0.006214,0.015488,0.037199,0.113859,-0.164365,-1.216372,-0.772552,0.233291,-11.578441
1790544647.3875,-0.006397,0.013854,0.024160,-0.006342,0.014344,0.024160,0.041010,0.270298,-1.369354,0.453943,1.794851,-9.909560
1790544647.4013,-0.007826,0.018237,0.004143,-0.007381,0.017069,0.004143,-0.237028,0.306722,-1.515051,0.300631,1.906391,-9.715504
1790544647.4150,-0.011868,0.020564,-0.009613,-0.010522,0.019515,-0.009613,-0.246742,0.508270,-1.494411,0.300631,1.237151,-9.793126
1790544647.4286,-0.007716,0.021106,-0.063370,-0.008558,0.020628,-0.063370,-0.075548,0.284867,-1.352356,-1.194160,1.162791,-8.512357
1790544647.4425,-0.008372,0.021117,-0.076298,-0.008428,0.020970,-0.076298,-0.042766,0.215661,-0.996613,0.108991,1.348691,-9.443825
1790544647.4567,-0.011056,0.026000,-0.085779,-0.010267,0.024491,-0.085779,-0.205461,0.265441,-0.816920,0.377287,1.943571,-8.007811
1790544647.4714,-0.013171,0.030565,-0.103372,-0.012300,0.028743,-0.103372,-0.228529,0.318863,-0.714932,-0.044320,1.980751,-9.094525
1790544647.4854,-0.016792,0.038033,-0.138233,-0.015444,0.035246,-0.138233,-0.393653,0.607829,-0.786566,-0.849208,2.910251,-11.500819
1790544647.4998,-0.007526,0.025222,-0.141192,-0.009901,0.028229,-0.141192,0.671150,-0.571103,-0.489101,0.185647,0.790991,-17.516553
1790544647.5139,-0.017944,0.018508,-0.064940,-0.015531,0.021424,-0.064940,0.747641,-0.123084,0.105828,2.868606,2.055111,-5.446273
1790544647.5280,-0.027162,0.008703,-0.034501,-0.023673,0.012519,-0.034501,0.716073,0.227803,0.461572,2.293686,1.906391,-10.181238
1790544647.5427,-0.031839,0.001670,-0.013707,-0.029389,0.004925,-0.013707,0.399182,0.136742,0.759037,0.952207,1.571771,-13.286133
1790544647.5569,-0.040255,-0.004521,0.023075,-0.036995,-0.001688,0.023075,0.252271,0.248443,1.149990,1.258831,0.605091,-8.939280
1790544647.5713,-0.034912,-0.009167,-0.007603,-0.035537,-0.006923,-0.007603,0.202491,-0.115799,1.273833,-1.654096,0.605091,-7.774944
1790544647.5853,-0.025556,-0.014597,-0.056242,-0.028550,-0.012295,-0.056242,0.062865,-0.185006,0.994580,-2.803935,-0.547489,-8.046623
1790544647.5995,-0.027852,-0.020290,-0.039156,-0.028061,-0.017891,-0.039156,0.032511,0.102746,0.808817,-0.005993,-0.993649,-10.685784
1790544647.6138,-0.031118,-0.027736,-0.025562,-0.030201,-0.024782,-0.025562,0.238915,0.208377,0.851312,-0.235960,-0.510309,-10.918651
1790544647.6278,-0.037649,-0.037061,-0.008945,-0.035414,-0.033378,-0.008945,0.531523,0.288510,0.890164,0.837223,0.382011,-9.133336
1790544647.6415,-0.039049,-0.039772,-0.011907,-0.037959,-0.037854,-0.011907,0.308121,0.298223,0.817316,-1.309144,1.869211,-9.210958
1790544647.6552,-0.038709,-0.037875,-0.017211,-0.038484,-0.037868,-0.017211,0.004586,0.225375,0.642479,-1.385800,1.832031,-8.085434
1790544647.6690,-0.038442,-0.038190,-0.019266,-0.038455,-0.038093,-0.019266,-0.020911,0.150098,0.535635,-1.040848,0.902531,-9.482637
1790544647.6830,-0.040825,-0.040931,-0.015234,-0.040114,-0.040080,-0.015234,0.157568,0.162239,0.442146,0.185647,0.939711,-10.220049
1790544647.6972,-0.042911,-0.042480,-0.010605,-0.042072,-0.041760,-0.010605,0.210990,0.150098,0.253954,0.262303,1.980751,-10.569350
1790544647.7114,-0.032540,-0.037893,-0.014887,-0.035399,-0.039053,-0.014887,-0.340231,-0.573531,0.190818,-1.040848,1.162791,-10.957462
1790544647.7255,-0.027129,-0.032214,-0.002018,-0.029610,-0.034265,-0.002018,-0.493212,-0.630596,0.119184,2.906934,0.753811,-14.683336
1790544647.7399,-0.027270,-0.022997,0.018158,-0.027972,-0.026377,0.018158,-0.799176,-0.403551,0.002626,3.750150,-0.026969,-10.491728
1790544647.7540,-0.019001,-0.013398,0.024890,-0.021693,-0.017292,0.024890,-0.810104,-0.799361,-0.201350,1.297159,0.196111,-6.416553
1790544647.7680,-0.009365,-0.002966,0.027757,-0.013063,-0.007264,0.027757,-0.734827,-1.027620,-0.328835,1.412143,0.679451,-4.475993
1790544647.7824,-0.019513,-0.007931,0.024238,-0.017578,-0.007731,0.024238,0.312978,0.601759,-0.534025,1.948735,1.199971,-11.267951
1790544647.7966,-0.013559,-0.011151,0.002201,-0.014765,-0.010125,0.002201,0.321477,-0.135226,-0.955332,-1.692424,3.058971,-15.653616
1790544647.8106,-0.006519,-0.008848,-0.011032,-0.008993,-0.009231,-0.011032,-0.116828,-0.518895,-1.189661,1.680439,1.869211,-11.151518
1790544647.8244,-0.018189,-0.008761,-0.017505,-0.015430,-0.008902,-0.017505,0.033725,0.517983,-0.774425,3.826806,1.608951,-9.599070
1790544647.8383,-0.002994,-0.015308,-0.039014,-0.006725,-0.013386,-0.039014,0.362758,-0.560175,-0.790209,-3.417183,0.196111,-9.288581
1790544647.8521,0.003661,-0.022586,-0.054205,0.000546,-0.019826,-0.054205,0.564305,-0.358628,-1.024538,0.032335,1.423051,-9.288581
1790544647.8659,0.008620,-0.033361,-0.068675,0.006198,-0.029301,-0.068675,0.786493,-0.268781,-1.133811,0.338959,1.423051,-11.694875
1790544647.8793,0.014183,-0.034070,-0.092002,0.011787,-0.032639,-0.092002,0.252271,-0.410836,-1.159308,0.722239,2.166651,-7.503266
1790544647.8928,0.018504,-0.039874,-0.094923,0.016489,-0.037704,-0.094923,0.336047,-0.316133,-0.903124,0.645583,0.456371,-10.996273
1790544647.9066,0.022952,-0.047895,-0.099473,0.021013,-0.044838,-0.099473,0.499956,-0.277280,-0.764712,0.070663,0.456371,-10.646972
1790544647.9205,0.025499,-0.050980,-0.117645,0.024153,-0.049137,-0.117645,0.422251,-0.276066,-0.523097,1.143847,2.947431,-10.414105
1790544647.9344,0.012366,-0.048500,-0.117669,0.015902,-0.048691,-0.117669,-0.220030,0.885868,-0.433251,1.182175,1.088431,-15.110259
1790544647.9484,0.005160,-0.034738,-0.135987,0.008382,-0.038924,-0.135987,-1.008009,0.827589,-0.400469,-3.800463,1.348691,-15.537182
1790544647.9625,0.003830,-0.025112,-0.127104,0.005196,-0.029256,-0.127104,-1.090570,0.458490,-0.271770,-2.497311,-2.146228,-7.580888
1790544647.9765,-0.002044,-0.017913,-0.124101,0.000128,-0.021316,-0.124101,-1.008009,0.772953,-0.056867,-1.654096,-1.848788,-4.747672
1790544647.9904,-0.008213,-0.002595,-0.124661,-0.005711,-0.008212,-0.124661,-1.028649,0.712245,-0.015586,-1.232488,1.125611,-5.174595
1790544648.0044,-0.004878,-0.005231,-0.124746,-0.005128,-0.006125,-0.124746,-0.022125,-0.106086,0.054834,-1.999048,-0.919289,-15.886483
1790544648.0184,-0.006217,-0.013825,-0.120345,-0.005891,-0.011515,-0.120345,0.468388,0.011686,0.528350,0.300631,-0.026969,-15.420749
1790544648.0326,-0.010462,-0.014106,-0.107027,-0.009091,-0.013328,-0.107027,0.017941,0.215661,0.880451,-0.159304,1.348691,-9.560259
1790544648.0472,-0.009829,-0.019403,-0.090807,-0.009608,-0.017581,-0.090807,0.300836,-0.146153,1.060144,-0.197632,0.679451,-8.512357
1790544648.0612,-0.002656,-0.023978,-0.077822,-0.004742,-0.022059,-0.077822,0.129642,-0.284565,0.586629,-1.960720,-0.473129,-6.494175
1790544648.0753,-0.018005,-0.024391,-0.084080,-0.014026,-0.023691,-0.084080,0.047081,0.803306,0.609697,2.485326,1.534591,-10.258860
1790544648.0892,-0.025766,-0.031966,-0.077950,-0.022244,-0.029484,-0.077950,0.479315,0.511912,0.545348,0.185647,0.790991,-12.781588
1790544648.1028,-0.034505,-0.037126,-0.071153,-0.030826,-0.034833,-0.071153,0.445319,0.505841,0.672833,1.067191,2.055111,-10.452916
1790544648.1163,-0.042386,-0.039170,-0.061715,-0.038918,-0.037869,-0.061715,0.269269,0.477916,0.675261,0.798895,2.464091,-9.715504
1790544648.1300,-0.043392,-0.041628,-0.049482,-0.042050,-0.040500,-0.049482,0.269269,0.050538,0.641265,0.032335,2.129471,-9.443825
1790544648.1439,-0.046405,-0.042500,-0.043040,-0.045098,-0.041900,-0.043040,0.111430,0.158597,0.413006,0.607255,1.608951,-9.172147
1790544648.1579,-0.046396,-0.046320,-0.038077,-0.046007,-0.044994,-0.038077,0.247414,-0.079375,0.417863,0.990535,1.088431,-11.384385
1790544648.1719,-0.038868,-0.042397,-0.034382,-0.041010,-0.043176,-0.034382,-0.303806,-0.669448,0.364441,1.603783,1.199971,-11.811308
1790544648.1859,-0.033523,-0.036472,-0.037087,-0.035769,-0.038483,-0.037087,-0.541778,-0.603885,0.210244,2.983590,-0.101329,-12.005364
1790544648.1999,-0.028887,-0.026747,-0.042549,-0.030951,-0.030268,-0.042549,-0.763966,-0.592957,0.065762,2.370342,0.344831,-7.658511
1790544648.2142,-0.024006,-0.015377,-0.049221,-0.026090,-0.019844,-0.049221,-0.924233,-0.702230,-0.166140,2.945262,-0.175689,-6.144874
1790544648.2284,-0.010134,-0.002373,-0.056847,-0.014920,-0.007614,-0.056847,-0.910877,-1.127180,-0.211063,1.373815,1.014071,-6.882287
1790544648.2426,-0.013399,0.002200,-0.065446,-0.013855,-0.000744,-0.065446,-0.334160,0.061465,-0.231703,3.290214,1.720491,-13.324944
1790544648.2564,-0.025883,-0.004391,-0.075596,-0.022275,-0.003297,-0.075596,0.470816,1.010924,-0.728287,0.683911,2.092291,-17.943476
1790544648.2703,-0.023737,-0.007133,-0.095856,-0.023298,-0.005982,-0.095856,0.283838,0.028683,-1.192090,0.147319,3.207691,-16.119350
1790544648.2844,-0.019056,-0.010019,-0.120834,-0.020328,-0.008808,-0.120834,0.319049,-0.323418,-1.084031,1.105519,1.460231,-6.222497
1790544648.2988,-0.014265,-0.014763,-0.134451,-0.016084,-0.012976,-0.134451,0.382184,-0.336773,-0.612944,0.530599,0.828171,-4.631238
1790544648.3127,-0.005105,-0.027247,-0.130202,-0.008398,-0.022966,-0.130202,0.824132,-0.446046,-0.746499,-1.309144,0.382011,-10.452916
1790544648.3268,0.012115,-0.037062,-0.148559,0.005961,-0.032833,-0.148559,0.815633,-1.072543,-0.922550,-0.772552,2.389731,-9.909560
1790544648.3404,0.016662,-0.039956,-0.176278,0.013451,-0.037819,-0.176278,0.427107,-0.327060,-1.045178,0.875551,2.947431,-7.969000
1790544648.3541,0.020466,-0.042586,-0.195548,0.018362,-0.041156,-0.195548,0.334832,-0.314919,-0.911623,1.450471,3.058971,-10.841028
1790544648.3681,0.027795,-0.049720,-0.211558,0.024965,-0.047151,-0.211558,0.541237,-0.359842,-0.854558,-1.117504,1.460231,-9.560259
1790544648.3819,0.025171,-0.055155,-0.229192,0.025109,-0.052754,-0.229192,0.605586,0.231445,-0.501243,-0.120976,3.467951,-9.676693
1790544648.3970,0.007732,-0.048295,-0.240092,0.012945,-0.049633,-0.240092,-0.419150,1.341171,-0.355546,-3.033903,2.352551,-15.692427
1790544648.4119,0.007125,-0.035754,-0.231224,0.008871,-0.039918,-0.231224,-0.914520,0.346789,-0.418681,-4.567022,0.344831,-13.014455
1790544648.4263,0.002359,-0.028279,-0.171521,0.004312,-0.031771,-0.171521,-0.851384,0.740171,-0.277841,-2.305671,-1.514168,-4.243126
1790544648.4409,-0.007715,-0.011555,-0.180592,-0.004107,-0.017620,-0.180592,-1.010437,0.796021,-0.223204,-0.389272,1.497411,-4.825294
1790544648.4560,-0.018867,-0.003614,-0.185190,-0.014439,-0.007816,-0.185190,-0.780964,0.979357,-0.104218,-1.807408,-1.402628,-6.649420
1790544648.4699,-0.014543,-0.003502,-0.185433,-0.014512,-0.004796,-0.185433,-0.178750,-0.040523,-0.050796,-5.640206,-1.328269,-18.098721
1790544648.4836,-0.011947,-0.006648,-0.176824,-0.012717,-0.006092,-0.176824,0.178208,-0.219001,0.598770,-0.772552,1.311511,-14.450469
1790544648.4977,-0.016562,-0.008184,-0.162364,-0.015408,-0.007557,-0.162364,0.145426,0.221732,0.922946,-0.044320,2.241011,-10.996273
1790544648.5118,-0.011077,-0.017408,-0.155080,-0.012376,-0.014452,-0.155080,0.349402,-0.144939,0.972726,-2.382327,-1.253909,-4.514804
1790544648.5257,-0.014225,-0.020809,-0.124075,-0.013671,-0.018902,-0.124075,0.394325,0.480344,0.558703,-1.385800,1.088431,-3.311658
1790544648.5400,-0.031479,-0.026192,-0.117730,-0.026137,-0.024005,-0.117730,0.407681,1.067989,0.530778,1.565455,1.906391,-10.996273
1790544648.5544,-0.048461,-0.038044,-0.109573,-0.041764,-0.033832,-0.109573,0.828988,1.053419,0.632766,1.412143,1.646131,-11.151518
1790544648.5682,-0.062228,-0.043926,-0.091413,-0.056089,-0.040898,-0.091413,0.531523,0.934433,0.749324,0.530599,2.724351,-9.715504
1790544648.5820,-0.067691,-0.046838,-0.071745,-0.064211,-0.045056,-0.071745,0.351830,0.371072,0.746895,0.108991,3.319231,-9.793126
1790544648.5960,-0.066092,-0.053761,-0.056572,-0.065528,-0.051149,-0.056572,0.532738,-0.171650,0.663119,0.645583,2.129471,-10.491728
1790544648.6101,-0.057409,-0.056128,-0.050058,-0.059845,-0.054634,-0.050058,0.095646,-0.656093,0.608483,0.492271,0.753811,-13.635434
1790544648.6242,-0.049054,-0.053263,-0.049653,-0.052292,-0.053674,-0.049653,-0.328089,-0.692517,0.540491,1.297159,-0.212869,-11.617252
1790544648.6382,-0.044246,-0.049697,-0.061647,-0.046660,-0.050890,-0.061647,-0.449503,-0.637881,0.610911,3.366870,-1.068009,-9.288581
1790544648.6522,-0.040540,-0.044418,-0.068805,-0.042376,-0.046360,-0.068805,-0.566061,-0.543177,0.489497,2.600310,-0.882109,-7.464455
1790544648.6662,-0.030920,-0.033204,-0.067469,-0.034357,-0.037151,-0.067469,-0.848956,-0.879495,0.302519,2.140375,0.605091,-8.900469
1790544648.6802,-0.023772,-0.019512,-0.071050,-0.026947,-0.024804,-0.071050,-1.055360,-0.775079,0.069404,3.750150,0.233291,-10.064805
1790544648.6942,-0.011161,-0.001846,-0.074193,-0.015897,-0.008733,-0.074193,-1.307902,-1.135679,-0.083578,3.558510,0.939711,-10.724595
1790544648.7082,-0.015350,0.010258,-0.078160,-0.015514,0.004561,-0.078160,-0.972799,0.086962,-0.214705,4.631693,0.047391,-12.975644
1790544648.7221,-0.028336,0.005898,-0.086373,-0.024490,0.005497,-0.086373,0.311764,1.111698,-0.688221,-0.580912,1.646131,-13.286133
1790544648.7363,-0.010418,0.001931,-0.077920,-0.014640,0.003001,-0.077920,0.333618,-0.739868,-1.084031,-6.023486,2.166651,-11.035084
1790544648.7503,-0.012966,-0.000308,-0.094367,-0.013468,0.000685,-0.094367,0.164853,0.110031,-0.616586,2.063719,1.237151,-8.706413
1790544648.7644,-0.010117,-0.011766,-0.097883,-0.011123,-0.008031,-0.097883,0.729429,-0.072090,-0.543738,-0.619240,0.121751,-10.685784
1790544648.7783,0.005761,-0.020989,-0.103300,0.000696,-0.017102,-0.103300,0.638368,-0.946273,-0.853344,-1.270816,0.865351,-10.064805
1790544648.7920,0.012902,-0.026143,-0.120902,0.009240,-0.023430,-0.120902,0.515740,-0.426620,-1.070675,0.262303,2.426911,-7.503266
1790544648.8060,0.012344,-0.029319,-0.141903,0.011413,-0.027552,-0.141903,0.414966,0.056609,-0.984471,1.067191,3.244871,-8.046623
1790544648.8196,0.020529,-0.033943,-0.155563,0.017794,-0.032026,-0.155563,0.422251,-0.395052,-1.033037,-1.079176,1.869211,-7.697322
1790544648.8336,0.029177,-0.039603,-0.168541,0.025762,-0.037329,-0.168541,0.410109,-0.470329,-0.990542,-0.772552,1.311511,-9.210958
1790544648.8474,0.031439,-0.044195,-0.179580,0.029736,-0.042135,-0.179580,0.441677,-0.108515,-0.733144,-0.005993,2.724351,-9.637881
1790544648.8614,0.018378,-0.039456,-0.189758,0.021785,-0.040260,-0.189758,-0.337802,0.979357,-0.627514,0.338959,2.315371,-17.710609
1790544648.8753,0.013307,-0.025960,-0.197667,0.015851,-0.030250,-0.197667,-1.015294,0.661252,-0.433251,-4.682006,0.902531,-13.130889
1790544648.8892,0.006550,-0.015319,-0.205560,0.009340,-0.019799,-0.205560,-0.887809,0.819090,-0.373758,-3.110559,-0.398769,-7.386832
1790544648.9033,0.000794,-0.002312,-0.207626,0.003358,-0.007558,-0.207626,-0.991011,0.881011,-0.338548,-2.497311,0.121751,-3.622147
1790544648.9171,-0.010504,0.005185,-0.220723,-0.006345,0.001362,-0.220723,-0.668049,1.105628,-0.321550,-1.807408,-0.175689,-5.756762
1790544648.9309,0.003271,-0.002160,-0.227500,0.000386,-0.001103,-0.227500,0.482958,-0.934131,-0.350689,-0.427600,1.237151,-15.381938
1790544648.9449,-0.000048,-0.004510,-0.213204,0.000082,-0.003488,-0.213204,0.281410,-0.011383,0.506495,3.098574,3.579491,-11.578441
1790544648.9589,-0.003340,-0.006114,-0.204653,-0.002314,-0.005326,-0.204653,0.061650,0.154954,0.858596,-0.657568,1.014071,-13.557812
1790544648.9728,-0.001395,-0.011337,-0.197435,-0.001671,-0.009534,-0.197435,0.302051,-0.222644,0.831885,-0.465928,0.456371,-10.646972
1790544648.9868,-0.005432,-0.015996,-0.184295,-0.004303,-0.014057,-0.184295,0.373685,0.263013,0.598770,-0.580912,1.757671,-9.172147
1790544649.0008,-0.025266,-0.026034,-0.183981,-0.018978,-0.022441,-0.183981,0.654152,1.186975,0.720184,2.561982,0.493551,-10.491728
1790544649.0145,-0.031390,-0.037074,-0.168327,-0.027666,-0.032684,-0.168327,0.813204,0.424494,0.840384,-0.580912,1.385871,-8.822846
1790544649.0281,-0.044911,-0.046547,-0.153192,-0.039738,-0.042388,-0.153192,0.725786,0.845801,0.946015,1.220503,1.683311,-9.210958
1790544649.0418,-0.050791,-0.049163,-0.129148,-0.047475,-0.047130,-0.129148,0.270483,0.470631,0.948443,-1.270816,2.538451,-9.288581
1790544649.0566,-0.042849,-0.051207,-0.109191,-0.044237,-0.049984,-0.109191,0.150283,-0.543177,0.944800,-0.964192,2.092291,-11.190329
1790544649.0706,-0.037628,-0.050200,-0.107377,-0.039611,-0.050135,-0.107377,-0.206675,-0.489755,0.776035,1.182175,-0.473129,-12.121798
1790544649.0845,-0.034640,-0.046612,-0.108980,-0.036131,-0.047669,-0.108980,-0.407008,-0.409622,0.687402,2.178703,-0.696209,-10.025993
1790544649.0985,-0.033035,-0.044520,-0.112346,-0.033964,-0.045464,-0.112346,-0.331732,-0.382911,0.625481,3.021918,-1.179549,-8.939280
1790544649.1125,-0.025351,-0.034390,-0.109413,-0.027935,-0.037712,-0.109413,-0.830744,-0.817574,0.555061,3.136902,-0.175689,-9.366203
1790544649.1264,-0.017318,-0.020406,-0.104982,-0.020503,-0.025598,-0.104982,-1.091784,-0.878281,0.453073,3.481854,0.158931,-9.094525
1790544649.1404,-0.008913,-0.003469,-0.102428,-0.012390,-0.010108,-0.102428,-1.281191,-0.862497,0.246669,3.788478,0.419191,-10.841028
1790544649.1545,0.001213,0.014324,-0.100774,-0.002868,0.006994,-0.100774,-1.303045,-0.994838,0.054834,2.983590,0.753811,-7.425644
1790544649.1685,-0.002314,0.020741,-0.101947,-0.002480,0.016617,-0.101947,-0.561204,0.113673,-0.153998,3.175230,0.121751,-12.665154
1790544649.1826,-0.011920,0.014387,-0.107142,-0.009088,0.015056,-0.107142,0.413752,0.874941,-0.724645,-1.002520,1.311511,-13.713056
1790544649.1965,0.004094,0.005121,-0.108103,0.000139,0.008102,-0.108103,0.786493,-0.833357,-1.019681,-2.880591,3.691031,-11.035084
1790544649.2106,-0.002575,0.004363,-0.128580,-0.001761,0.005485,-0.128580,0.236487,0.289724,-0.586233,2.868606,2.761531,-5.873196
1790544649.2245,-0.000073,-0.001536,-0.131638,-0.000580,0.000570,-0.131638,0.387041,-0.103658,-0.423538,-0.159304,0.902531,-9.754315
1790544649.2384,0.016392,-0.009407,-0.134036,0.011301,-0.006414,-0.134036,0.603158,-0.913491,-0.835132,-2.727279,2.092291,-10.452916
1790544649.2520,0.022230,-0.016338,-0.150435,0.018951,-0.013361,-0.150435,0.610443,-0.373198,-0.921336,0.607255,2.538451,-8.434735
1790544649.2656,0.026738,-0.018471,-0.166612,0.024402,-0.016938,-0.166612,0.360329,-0.235999,-0.905552,0.032335,3.282051,-6.804665
1790544649.2793,0.034640,-0.022489,-0.179806,0.031568,-0.020824,-0.179806,0.255913,-0.426620,-1.065819,-0.542584,0.939711,-8.628791
1790544649.2933,0.040491,-0.028434,-0.193029,0.037814,-0.026151,-0.193029,0.411323,-0.382911,-0.999041,0.722239,1.237151,-8.240679
1790544649.3080,0.027578,-0.031630,-0.208690,0.030649,-0.029986,-0.208690,0.287481,0.932005,-0.752570,0.760567,4.471811,-16.701518
1790544649.3220,0.011732,-0.017381,-0.219514,0.017407,-0.021162,-0.219514,-1.004366,1.337529,-0.569235,-3.570495,2.984611,-17.749420
1790544649.3360,0.010849,-0.003386,-0.219605,0.012816,-0.008719,-0.219605,-1.057789,0.400211,-0.551023,-5.678534,0.716631,-13.363756
1790544649.3499,0.009001,0.008772,-0.201311,0.010145,0.003525,-0.201311,-0.694760,0.691605,-0.389542,-2.497311,1.199971,-1.953266
1790544649.3640,-0.007930,0.020062,-0.204178,-0.002508,0.015101,-0.204178,-0.570918,1.297462,-0.407754,-0.082648,3.207691,-5.679140
1790544649.3780,-0.010254,0.025330,-0.208867,-0.007930,0.022261,-0.208867,-0.215174,0.289724,-0.338548,-0.542584,2.649991,-6.144874
1790544649.3919,-0.004648,0.020919,-0.200742,-0.005633,0.021322,-0.200742,0.396754,-0.482470,-0.032584,1.910407,4.434631,-15.032637
1790544649.4058,-0.009416,0.024371,-0.185751,-0.008281,0.023456,-0.185751,-0.162966,0.162239,0.604841,1.258831,2.910251,-9.210958
1790544649.4198,-0.011675,0.018608,-0.175219,-0.010657,0.020062,-0.175219,0.346974,0.012900,0.869524,0.262303,1.088431,-12.781588
1790544649.4337,-0.010146,0.007966,-0.188295,-0.010299,0.011595,-0.188295,0.628655,-0.033238,0.620625,-1.654096,-0.212869,-6.688231
1790544649.4476,-0.022701,0.001085,-0.182723,-0.018980,0.004238,-0.182723,0.530309,0.864013,0.574487,-0.120976,0.976891,-4.553616
1790544649.4616,-0.039887,-0.008609,-0.179324,-0.033615,-0.004755,-0.179324,0.645653,1.169977,0.562346,0.338959,1.014071,-11.500819
1790544649.4755,-0.051401,-0.017512,-0.165697,-0.046066,-0.013685,-0.165697,0.674792,0.715888,0.853740,0.568927,2.389731,-9.831937
1790544649.4892,-0.060739,-0.023351,-0.155324,-0.056337,-0.020451,-0.155324,0.458675,0.630898,0.901091,-0.159304,2.241011,-9.133336
1790544649.5027,-0.064356,-0.025136,-0.139218,-0.061950,-0.023731,-0.139218,0.185493,0.158597,0.873166,0.683911,2.798711,-9.676693
1790544649.5167,-0.060635,-0.027675,-0.137586,-0.061030,-0.026492,-0.137586,0.153925,-0.248141,0.670404,-0.849208,1.534591,-10.142427
1790544649.5306,-0.055762,-0.030075,-0.131344,-0.057343,-0.029000,-0.131344,0.087147,-0.410836,0.691045,0.338959,0.753811,-13.014455
1790544649.5448,-0.050408,-0.027567,-0.124387,-0.052488,-0.027997,-0.124387,-0.279523,-0.464258,0.609697,0.875551,0.233291,-12.121798
1790544649.5592,-0.045971,-0.022352,-0.111138,-0.047926,-0.024045,-0.111138,-0.499283,-0.499468,0.510138,2.370342,-0.510309,-9.521448
1790544649.5735,-0.034833,-0.010230,-0.096899,-0.038761,-0.014375,-0.096899,-0.927875,-0.979054,0.349871,1.872079,0.307651,-7.076343
1790544649.5875,-0.029833,0.003155,-0.078400,-0.032512,-0.002104,-0.078400,-1.006795,-0.698588,0.263667,4.018446,0.605091,-7.386832
1790544649.6015,-0.020908,0.014823,-0.068800,-0.024389,0.009745,-0.068800,-0.927875,-0.887994,0.083974,3.941790,0.158931,-9.987182
1790544649.6154,-0.013118,0.026230,-0.066731,-0.016499,0.021284,-0.066731,-0.876881,-0.811503,-0.168568,4.248414,0.679451,-9.055714
1790544649.6295,-0.018306,0.027528,-0.071616,-0.017764,0.025655,-0.071616,-0.132612,0.331005,-0.638441,4.018446,1.423051,-15.110259
1790544649.6435,-0.014978,0.023006,-0.097350,-0.015814,0.023801,-0.097350,0.329976,0.128243,-1.233370,-2.842263,1.794851,-12.859210
1790544649.6576,-0.001227,0.016275,-0.122515,-0.005603,0.018533,-0.122515,0.519382,-0.637881,-1.347500,-2.075704,2.129471,-10.530539
1790544649.6715,0.005727,0.012376,-0.135473,0.002328,0.014223,-0.135473,0.317834,-0.344058,-0.781710,-0.350944,1.385871,-6.338930
1790544649.6855,0.014435,0.001240,-0.149101,0.010803,0.005135,-0.149101,0.780423,-0.414478,-0.711289,-1.884064,1.460231,-10.996273
1790544649.6995,0.029995,-0.008727,-0.173750,0.024237,-0.004568,-0.173750,0.777994,-0.790862,-1.118027,-3.033903,2.687171,-9.754315
1790544649.7131,0.042565,-0.013280,-0.194530,0.037067,-0.010666,-0.194530,0.447748,-0.670662,-1.295292,-1.309144,2.873071,-7.464455
1790544649.7266,0.043621,-0.014441,-0.194832,0.041654,-0.013308,-0.194832,0.265626,-0.112157,-1.003898,1.527127,3.430771,-6.688231
1790544649.7404,0.048089,-0.021111,-0.207989,0.046159,-0.018770,-0.207989,0.445319,-0.194719,-0.880055,-0.657568,1.051251,-8.861658
1790544649.7545,0.060299,-0.027295,-0.231837,0.056057,-0.024737,-0.231837,0.504812,-0.620883,-0.700362,-2.880591,2.538451,-8.822846
1790544649.7685,0.046263,-0.034923,-0.237393,0.049201,-0.031867,-0.237393,0.473245,1.020638,-0.625085,0.568927,0.902531,-14.295224
1790544649.7826,0.036868,-0.025091,-0.251838,0.040568,-0.027124,-0.251838,-0.658336,0.810591,-0.517027,-2.650623,3.988471,-17.438931
1790544649.7965,0.031639,-0.012893,-0.271753,0.034317,-0.017162,-0.271753,-1.016508,0.584761,-0.450249,-2.343999,-0.621849,-9.133336
1790544649.8112,0.028433,-0.004267,-0.285148,0.030199,-0.008135,-0.285148,-0.828316,0.578690,-0.285125,-3.187215,-1.551348,-4.902916
1790544649.8255,0.013955,0.008779,-0.292080,0.018828,0.003705,-0.292080,-0.927875,1.088630,-0.128501,-0.619240,1.014071,-7.309210
1790544649.8395,0.002516,0.020247,-0.299939,0.007409,0.015285,-0.299939,-0.821031,0.958716,-0.200136,-1.424128,1.646131,-9.521448
1790544649.8536,0.004474,0.023995,-0.306605,0.005355,0.021382,-0.306605,-0.303806,0.005615,-0.087220,-2.957247,1.608951,-14.178791
1790544649.8679,0.009810,0.021866,-0.293525,0.008474,0.021721,-0.293525,0.209776,-0.388981,0.607269,-1.692424,2.798711,-10.491728
1790544649.8819,0.006970,0.018174,-0.281344,0.007421,0.019238,-0.281344,0.163638,-0.035666,0.649764,1.948735,-0.026969,-9.676693
1790544649.8963,0.002117,0.005776,-0.277377,0.003708,0.009815,-0.277377,0.669936,0.188950,0.703186,0.492271,-1.216729,-7.425644
1790544649.9104,-0.009867,-0.001609,-0.260074,-0.005795,0.001818,-0.260074,0.623798,0.704961,0.330445,1.527127,2.575631,-8.318301
1790544649.9245,-0.023845,-0.009944,-0.247755,-0.018430,-0.006415,-0.247755,0.649295,0.851872,0.362012,1.833751,2.352551,-9.909560
1790544649.9384,-0.038168,-0.018864,-0.234411,-0.032247,-0.015130,-0.234411,0.699075,0.895581,0.567202,1.565455,2.612811,-10.646972
1790544649.9526,-0.048874,-0.025293,-0.220217,-0.043886,-0.022244,-0.220217,0.546093,0.683106,0.689831,0.300631,3.170511,-9.676693
1790544649.9664,-0.054219,-0.029852,-0.206669,-0.051119,-0.027570,-0.206669,0.393111,0.306722,0.710471,0.492271,2.501271,-9.055714
1790544649.9806,-0.046468,-0.033433,-0.196993,-0.047863,-0.031674,-0.196993,0.271697,-0.583244,0.642479,-0.159304,2.315371,-11.151518
1790544649.9948,-0.037154,-0.033177,-0.190819,-0.040367,-0.032726,-0.190819,-0.096188,-0.722870,0.502853,0.568927,0.382011,-12.121798
1790544650.0088,-0.032100,-0.031372,-0.179845,-0.034580,-0.031778,-0.179845,-0.252812,-0.529822,0.516208,2.217030,-0.547489,-10.996273
1790544650.0228,-0.027500,-0.026760,-0.163292,-0.029624,-0.028265,-0.163292,-0.464073,-0.611169,0.467643,3.175230,-0.659029,-7.736133
1790544650.0367,-0.025626,-0.018848,-0.151843,-0.026826,-0.021673,-0.151843,-0.677762,-0.357414,0.438503,3.060246,-0.287229,-10.297672
1790544650.0510,-0.018354,-0.008132,-0.142671,-0.020895,-0.012195,-0.142671,-0.796748,-0.694945,0.283093,2.140375,0.605091,-8.240679
1790544650.0656,-0.010066,0.004037,-0.137284,-0.013315,-0.000833,-0.137284,-0.865954,-0.765365,0.056048,3.136902,1.014071,-9.676693
1790544650.0797,0.002932,0.020601,-0.134377,-0.001942,0.014171,-0.134377,-1.197415,-1.090756,-0.128501,3.021918,1.311511,-10.220049
1790544650.0938,0.002718,0.029856,-0.137495,0.001320,0.025150,-0.137495,-0.693546,-0.085446,-0.421109,3.405198,1.385871,-11.927742
1790544650.1079,-0.011576,0.026123,-0.153524,-0.007707,0.025831,-0.153524,0.286267,1.199116,-0.860629,-0.082648,2.761531,-14.256413
1790544650.1219,0.009475,0.019678,-0.183902,0.004321,0.021524,-0.183902,0.472031,-1.062830,-1.040322,-6.406766,2.203831,-12.742777
1790544650.1357,0.003145,0.019169,-0.198246,0.003498,0.019876,-0.198246,0.269269,0.248443,-0.529168,2.332014,2.426911,-3.622147
1790544650.1497,0.008971,0.010070,-0.207481,0.007329,0.013011,-0.207481,0.626227,-0.255426,-0.559522,-1.309144,1.274331,-10.569350
1790544650.1638,0.024537,0.002867,-0.224885,0.019375,0.005910,-0.224885,0.554592,-0.889208,-0.839988,-1.845736,2.464091,-10.375294
1790544650.1774,0.031418,-0.003973,-0.239182,0.027805,-0.001008,-0.239182,0.543665,-0.382911,-0.961403,-0.082648,1.980751,-8.201867
1790544650.1910,0.033390,-0.006743,-0.255931,0.031715,-0.005022,-0.255931,0.289909,-0.013811,-0.871556,-0.312616,2.389731,-7.386832
1790544650.2050,0.043238,-0.012034,-0.273146,0.039781,-0.009931,-0.273146,0.351830,-0.497040,-0.924978,-1.654096,1.311511,-9.443825
1790544650.2190,0.050475,-0.019882,-0.286506,0.047267,-0.016896,-0.286506,0.548521,-0.380482,-0.790209,-0.964192,1.385871,-8.900469
1790544650.2330,0.051795,-0.025406,-0.295226,0.050436,-0.022853,-0.295226,0.515740,-0.032024,-0.538881,-0.504256,4.285911,-11.578441
1790544650.2468,0.037759,-0.018641,-0.305648,0.041562,-0.019905,-0.305648,-0.451932,1.093486,-0.413825,-1.040848,3.616671,-16.080539
1790544650.2608,0.032109,-0.005912,-0.323554,0.034945,-0.010110,-0.323554,-0.897522,0.729243,-0.302123,-5.678534,2.055111,-10.841028
1790544650.2747,0.026983,0.002772,-0.321488,0.029371,-0.001093,-0.321488,-0.746968,0.776595,-0.206206,-2.842263,-0.324409,-3.660958
1790544650.2886,0.012708,0.016686,-0.319539,0.017707,0.011352,-0.319539,-0.824673,1.218543,-0.052010,-0.772552,1.162791,-2.341378
1790544650.3028,-0.004393,0.031238,-0.296795,0.002237,0.025272,-0.296795,-0.753039,1.231898,-0.124859,0.032335,4.174371,-5.756762
1790544650.3172,0.004385,0.027650,-0.303885,0.003741,0.026937,-0.303885,0.229202,-0.549248,0.009911,-2.229015,3.170511,-21.242427
1790544650.3313,0.000822,0.026898,-0.287302,0.001698,0.026910,-0.287302,0.077434,0.083320,0.680117,1.488799,3.802571,-17.904665
1790544650.3454,-0.006005,0.023420,-0.275064,-0.003694,0.024467,-0.275064,0.153925,0.297009,0.955728,0.722239,0.344831,-12.703965
1790544650.3594,-0.002381,0.014450,-0.273248,-0.002775,0.017455,-0.273248,0.501170,-0.346486,0.837956,-0.580912,-0.361589,-7.774944
1790544650.3735,-0.015074,0.003127,-0.280103,-0.011385,0.007425,-0.280103,0.665079,0.916221,0.652192,-0.964192,-0.361589,-6.416553
1790544650.3875,-0.028963,-0.004568,-0.271685,-0.023689,-0.000970,-0.271685,0.536380,0.898009,0.739610,0.415615,1.720491,-12.160609
1790544650.4011,-0.037829,-0.012085,-0.255722,-0.033587,-0.008751,-0.255722,0.618942,0.543480,0.812459,0.377287,2.538451,-8.978091
1790544650.4148,-0.049808,-0.018305,-0.240336,-0.044942,-0.015439,-0.240336,0.491457,0.757169,0.876808,0.568927,2.426911,-9.676693
1790544650.4285,-0.052739,-0.022161,-0.227374,-0.050400,-0.020144,-0.227374,0.320263,0.142813,0.898663,-0.082648,2.798711,-10.608161
1790544650.4425,-0.050339,-0.020254,-0.214660,-0.050357,-0.020221,-0.214660,-0.113186,-0.250569,0.729897,0.300631,2.315371,-9.948371
1790544650.4564,-0.047046,-0.021799,-0.203368,-0.048040,-0.021326,-0.203368,0.043438,-0.348915,0.697115,0.952207,0.865351,-11.190329
1790544650.4708,-0.040466,-0.016606,-0.173410,-0.042738,-0.018022,-0.173410,-0.428863,-0.722870,0.630338,3.481854,0.679451,-10.375294
1790544650.4861,-0.036171,-0.006931,-0.151394,-0.038141,-0.010258,-0.151394,-0.756681,-0.510396,0.531992,2.945262,-0.510309,-9.366203
1790544650.5009,-0.027884,0.005105,-0.133008,-0.030961,0.000496,-0.133008,-0.913306,-0.795719,0.320731,2.523654,0.010211,-7.348021
1790544650.5157,-0.018882,0.018126,-0.118843,-0.022506,0.012837,-0.118843,-0.937588,-0.821216,0.185962,2.638638,0.605091,-8.046623
1790544650.5307,-0.008952,0.031201,-0.108298,-0.013018,0.025692,-0.108298,-0.935160,-0.810289,0.102186,2.293686,0.865351,-10.763406
1790544650.5453,-0.013515,0.028780,-0.109177,-0.013366,0.027853,-0.109177,0.014299,0.255728,-0.276626,3.481854,-1.588528,-17.283686
1790544650.5596,-0.010910,0.022536,-0.139292,-0.011647,0.024131,-0.139292,0.491457,0.127029,-0.894625,-2.803935,2.687171,-11.539630
1790544650.5737,0.003396,0.012400,-0.150849,-0.001117,0.015919,-0.150849,0.762210,-0.962056,-1.200589,1.872079,1.906391,-8.279490
1790544650.5878,0.002240,0.011740,-0.180096,0.001233,0.012994,-0.180096,0.294766,-0.124298,-0.418681,2.102047,2.352551,-3.389280
1790544650.6019,0.006101,-0.000023,-0.181149,0.004640,0.003882,-0.181149,0.746427,-0.202003,-0.385899,-0.274288,0.047391,-8.900469
1790544650.6159,0.020326,-0.007328,-0.201991,0.015620,-0.003965,-0.201991,0.650509,-0.891636,-0.852130,-0.274288,3.616671,-9.754315
1790544650.6299,0.028078,-0.013510,-0.216581,0.024341,-0.010647,-0.216581,0.464746,-0.442404,-1.194518,0.530599,2.203831,-10.297672
1790544650.6436,0.028915,-0.016553,-0.228303,0.027543,-0.014781,-0.228303,0.311764,-0.035666,-0.950475,0.990535,2.352551,-7.270399
1790544650.6574,0.040076,-0.024181,-0.244840,0.036316,-0.021361,-0.244840,0.490243,-0.624525,-0.940762,-1.424128,0.605091,-9.754315
1790544650.6715,0.052171,-0.034168,-0.255613,0.047414,-0.030326,-0.255613,0.699075,-0.775079,-0.802350,-0.427600,1.348691,-9.482637
1790544650.6854,0.051336,-0.041770,-0.266085,0.050159,-0.038337,-0.266085,0.623798,0.093033,-0.441750,-0.197632,2.649991,-9.948371
1790544650.6993,0.027960,-0.032669,-0.291352,0.034620,-0.034370,-0.291352,-0.609770,1.855967,-0.433251,-3.493839,3.467951,-16.080539
1790544650.7133,0.028240,-0.019083,-0.321836,0.030154,-0.023669,-0.321836,-1.025007,0.341932,-0.503671,-7.633261,0.716631,-13.945924
1790544650.7272,0.021009,-0.012177,-0.324844,0.023752,-0.015624,-0.324844,-0.686261,0.652753,-0.321550,-1.347472,-1.402628,-8.357112
1790544650.7415,0.007069,0.006255,-0.316476,0.012074,-0.000309,-0.316476,-1.051718,0.996355,-0.145499,0.032335,2.575631,-4.010259
1790544650.7554,-0.000926,0.015736,-0.327340,0.002974,0.010923,-0.327340,-0.853813,0.751098,-0.043511,-1.960720,-0.993649,-7.580888
1790544650.7695,-0.005972,0.023693,-0.331565,-0.003288,0.019862,-0.331565,-0.614627,0.402639,-0.020443,-0.734224,1.385871,-15.731238
1790544650.7835,0.003124,0.021600,-0.327404,0.001200,0.021079,-0.327404,0.058008,-0.682804,0.314661,-0.657568,0.307651,-13.286133
1790544650.7975,0.001285,0.021507,-0.307840,0.001260,0.021379,-0.307840,-0.007556,-0.083018,0.664334,1.833751,1.646131,-11.267951
1790544650.8118,-0.003533,0.018212,-0.266245,-0.002096,0.019162,-0.266245,0.263198,-0.044165,0.737182,1.795423,0.939711,-3.893825
1790544650.8260,-0.009366,0.014458,-0.269937,-0.007185,0.015869,-0.269937,0.350616,0.424494,0.415434,-0.427600,1.274331,-4.049070
1790544650.8400,-0.023428,0.006959,-0.255276,-0.018555,0.009632,-0.255276,0.567948,0.825161,0.450645,2.025391,2.055111,-9.210958
1790544650.8539,-0.036279,-0.001131,-0.243476,-0.030962,0.002098,-0.243476,0.632297,0.757169,0.635194,1.757095,2.798711,-10.491728
1790544650.8676,-0.049105,-0.006516,-0.236423,-0.043662,-0.003932,-0.236423,0.444105,0.820304,0.761465,0.837223,2.724351,-9.987182
1790544650.8813,-0.052500,-0.009944,-0.239075,-0.049849,-0.008140,-0.239075,0.346974,0.213233,0.793033,-0.427600,3.282051,-8.978091
1790544650.8953,-0.052736,-0.012510,-0.231132,-0.051870,-0.011199,-0.231132,0.172137,-0.068448,0.674047,0.453943,1.683311,-9.405014
1790544650.9093,-0.056856,-0.014490,-0.218977,-0.055360,-0.013502,-0.218977,0.118715,0.176809,0.569631,1.258831,1.460231,-9.831937
1790544650.9232,-0.053443,-0.016176,-0.217998,-0.054018,-0.015374,-0.217998,0.146640,-0.268781,0.345014,0.223975,1.943571,-9.288581
1790544650.9372,-0.043694,-0.013534,-0.209149,-0.046791,-0.014086,-0.209149,-0.141111,-0.793291,0.313447,1.488799,3.021791,-11.966553
1790544650.9511,-0.036211,-0.008707,-0.182680,-0.039385,-0.010321,-0.182680,-0.442218,-0.737440,0.300091,3.941790,0.270471,-14.644525
1790544650.9650,-0.032632,0.001479,-0.154251,-0.034658,-0.002061,-0.154251,-0.808889,-0.531036,0.260024,3.673494,0.456371,-8.822846
1790544650.9790,-0.019705,0.012010,-0.140749,-0.024191,0.007789,-0.140749,-0.810104,-1.034905,-0.053224,1.182175,0.493551,-6.261308
1790544650.9930,-0.009794,0.023465,-0.138291,-0.014113,0.018762,-0.138291,-0.751825,-0.879495,-0.066580,2.140375,1.980751,-6.765853
1790544651.0070,-0.014428,0.021349,-0.132800,-0.014334,0.020573,-0.132800,0.121143,0.243587,-0.438107,3.750150,1.571771,-13.092077
1790544651.0209,-0.015902,0.020484,-0.154961,-0.015431,0.020511,-0.154961,0.163638,0.243587,-0.804778,0.338959,3.356411,-11.073895
1790544651.0348,-0.012628,0.020794,-0.175632,-0.013469,0.020709,-0.175632,-0.048836,0.039611,-1.223657,-1.117504,1.014071,-11.927742
1790544651.0488,-0.003544,0.016205,-0.202664,-0.006521,0.017556,-0.202664,0.238915,-0.329488,-1.041536,-1.730752,-0.138509,-7.270399
1790544651.0630,0.005043,0.006126,-0.216163,0.001574,0.009555,-0.216163,0.674792,-0.427834,-0.729501,-0.887536,0.679451,-7.891378
1790544651.0775,0.017020,-0.009596,-0.231251,0.012386,-0.003851,-0.231251,1.065746,-0.657307,-0.963831,-0.772552,1.311511,-10.957462
1790544651.0914,0.031456,-0.015164,-0.260941,0.025735,-0.011770,-0.260941,0.532738,-0.869782,-1.165378,-0.504256,3.467951,-8.939280
1790544651.1052,0.035818,-0.019432,-0.266601,0.032793,-0.017133,-0.266601,0.300836,-0.301563,-1.212730,1.795423,1.757671,-9.599070
1790544651.1189,0.038620,-0.024860,-0.278485,0.036872,-0.022542,-0.278485,0.355473,-0.101230,-1.154451,0.262303,1.274331,-10.103616
1790544651.1330,0.048267,-0.030764,-0.311072,0.044849,-0.028298,-0.311072,0.423465,-0.432690,-1.111956,-2.037376,1.497411,-8.357112
1790544651.1469,0.034324,-0.034459,-0.313021,0.037482,-0.032611,-0.313021,0.230416,0.990284,-0.778067,1.948735,1.757671,-14.760958
1790544651.1609,0.027240,-0.025093,-0.337044,0.030313,-0.027348,-0.337044,-0.661978,0.691605,-0.754998,-2.765607,2.612811,-16.274595
1790544651.1749,0.023578,-0.012845,-0.358906,0.025598,-0.017196,-0.358906,-1.040791,0.520411,-0.612944,-2.688951,-1.105189,-8.784035
1790544651.1889,0.021644,-0.002550,-0.386120,0.022830,-0.006944,-0.386120,-0.971584,0.538623,-0.519455,-2.765607,-1.365448,-4.243126
1790544651.2029,0.007358,0.013349,-0.387415,0.012000,0.007261,-0.387415,-1.135494,1.016995,-0.411396,0.338959,0.493551,-2.845923
1790544651.2169,-0.009098,0.026159,-0.395489,-0.002769,0.020489,-0.395489,-0.878095,1.250110,-0.258414,-0.082648,2.352551,-9.987182
1790544651.2308,0.000282,0.021864,-0.404358,-0.000633,0.021451,-0.404358,0.128428,-0.443618,-0.326406,-6.445094,-3.112908,-21.281238
1790544651.2447,0.005038,0.014700,-0.394879,0.003337,0.016725,-0.394879,0.433178,-0.436333,0.595128,-0.312616,0.419191,-16.002917
1790544651.2586,-0.002018,0.012461,-0.382191,-0.000412,0.013740,-0.382191,0.090790,0.357716,0.870738,0.262303,0.493551,-10.336483
1790544651.2725,0.009206,0.007226,-0.376755,0.006321,0.009180,-0.376755,0.260770,-0.707087,0.578130,-2.190688,-0.287229,-6.261308
1790544651.2866,0.000085,0.001688,-0.375138,0.001956,0.003936,-0.375138,0.379756,0.663680,0.385081,-0.849208,1.014071,-8.046623
1790544651.3005,-0.014020,-0.005545,-0.364536,-0.009227,-0.002701,-0.364536,0.486600,0.847015,0.579344,2.063719,1.162791,-12.393476
1790544651.3145,-0.022701,-0.015702,-0.355105,-0.018659,-0.011802,-0.355105,0.731857,0.556835,0.840384,-0.542584,1.869211,-10.918651
1790544651.3286,-0.036528,-0.021731,-0.338920,-0.031167,-0.018752,-0.338920,0.535166,0.855514,0.952085,0.492271,3.021791,-8.318301
1790544651.3423,-0.043846,-0.024626,-0.324686,-0.040043,-0.022864,-0.324686,0.280196,0.430565,0.982439,0.223975,2.947431,-9.599070
1790544651.3565,-0.044710,-0.028113,-0.314348,-0.043310,-0.026538,-0.314348,0.266841,0.006829,0.853740,-0.274288,1.980751,-8.939280
1790544651.3705,-0.047699,-0.032349,-0.300385,-0.046382,-0.030606,-0.300385,0.289909,0.076035,0.718970,1.833751,1.980751,-13.092077
1790544651.3844,-0.040635,-0.034162,-0.289124,-0.042359,-0.033095,-0.289124,0.094432,-0.594171,0.744467,0.568927,1.534591,-13.092077
1790544651.3985,-0.033436,-0.026823,-0.272436,-0.036113,-0.028705,-0.272436,-0.557562,-0.681590,0.684974,2.140375,1.348691,-12.121798
1790544651.4124,-0.031062,-0.017489,-0.249689,-0.032577,-0.020854,-0.249689,-0.767609,-0.436333,0.565988,3.213558,-0.064149,-8.900469
1790544651.4264,-0.024654,-0.005271,-0.234173,-0.027031,-0.009946,-0.234173,-0.954586,-0.675519,0.342586,2.332014,0.233291,-7.697322
1790544651.4403,-0.014136,0.008147,-0.222700,-0.018004,0.002719,-0.222700,-1.026221,-0.948701,0.160465,2.255358,0.567911,-8.124245
1790544651.4543,-0.004395,0.022545,-0.216267,-0.008478,0.016597,-0.216267,-1.050504,-0.892850,-0.052010,3.175230,1.311511,-9.327392
1790544651.4682,-0.009234,0.024209,-0.213635,-0.009007,0.021926,-0.213635,-0.221245,0.273940,-0.340976,3.673494,-0.026969,-15.614805
1790544651.4822,-0.010480,0.023978,-0.233975,-0.010038,0.023363,-0.233975,0.056794,0.349217,-0.877627,-1.922392,2.538451,-11.811308
1790544651.4961,0.008983,0.025314,-0.255995,0.003277,0.024729,-0.255995,-0.051265,-1.095612,-1.053677,-2.612295,2.612811,-10.918651
1790544651.5102,0.004113,0.027529,-0.281044,0.003862,0.026689,-0.281044,0.084719,0.241158,-0.814491,2.063719,2.649991,-3.660958
1790544651.5241,0.003787,0.018665,-0.288885,0.003809,0.021072,-0.288885,0.600730,0.148884,-0.648154,-0.197632,0.902531,-8.240679
1790544651.5381,0.016015,0.013330,-0.308155,0.012353,0.015653,-0.308155,0.446534,-0.681590,-1.019681,-0.772552,3.096151,-11.035084
1790544651.5518,0.022458,0.008515,-0.324106,0.019426,0.010656,-0.324106,0.356687,-0.302777,-1.226086,0.108991,1.980751,-10.258860
1790544651.5656,0.022208,0.004737,-0.333515,0.021373,0.006513,-0.333515,0.266841,0.080892,-1.167807,1.642111,1.794851,-9.637881
1790544651.5798,0.029306,0.002349,-0.350824,0.026926,0.003598,-0.350824,0.136927,-0.297921,-1.132597,-0.695896,1.088431,-8.007811
1790544651.5939,0.037260,-0.003845,-0.360914,0.034160,-0.001612,-0.360914,0.388255,-0.442404,-0.956546,-0.120976,0.939711,-8.939280
1790544651.6078,0.041531,-0.010923,-0.372743,0.039319,-0.008130,-0.372743,0.504812,-0.210502,-0.876413,-0.005993,1.832031,-10.103616
1790544651.6219,0.025207,-0.006867,-0.389809,0.029441,-0.007246,-0.389809,-0.266168,1.278036,-0.852130,-0.082648,3.356411,-14.683336
1790544651.6359,0.018804,0.004246,-0.409552,0.021995,0.000799,-0.409552,-0.830744,0.701318,-0.685792,-4.107087,1.869211,-17.050819
1790544651.6500,0.013446,0.016521,-0.435330,0.016011,0.011804,-0.435330,-0.895093,0.738957,-0.612944,-3.340527,0.902531,-7.153965
1790544651.6640,0.008496,0.027543,-0.450043,0.010751,0.022821,-0.450043,-0.767609,0.585975,-0.251130,-0.925864,0.605091,-2.884734
1790544651.6781,0.007192,0.033911,-0.453853,0.008260,0.030584,-0.453853,-0.297736,0.171952,-0.294839,-0.312616,2.947431,-6.222497
1790544651.6921,0.016814,0.018242,-0.450987,0.014248,0.021944,-0.450987,1.063318,-0.698588,0.219958,-0.734224,0.716631,-10.220049
1790544651.7061,0.003217,0.013202,-0.432196,0.006526,0.015825,-0.432196,0.408895,0.746241,0.898663,1.718767,2.835891,-11.927742
1790544651.7202,-0.000629,0.006349,-0.418396,0.001518,0.009192,-0.418396,0.452604,0.127029,1.088069,-0.312616,1.014071,-10.414105
1790544651.7342,-0.000182,-0.000473,-0.410193,0.000328,0.002427,-0.410193,0.339689,-0.018668,0.867095,-2.114032,-0.882109,-8.900469
1790544651.7483,-0.013078,-0.003256,-0.396528,-0.009056,-0.001551,-0.396528,0.150283,0.751098,0.748109,1.067191,0.716631,-9.405014
1790544651.7623,-0.031185,-0.011997,-0.380450,-0.024546,-0.008863,-0.380450,0.536380,1.110484,0.836742,1.565455,0.158931,-9.754315
1790544651.7762,-0.040265,-0.020019,-0.366584,-0.035549,-0.016673,-0.366584,0.582517,0.494914,0.943586,1.105519,1.980751,-10.181238
1790544651.7898,-0.051744,-0.025537,-0.358577,-0.046885,-0.022878,-0.358577,0.425893,0.776595,0.892592,-0.005993,2.166651,-9.948371
1790544651.8034,-0.052724,-0.028061,-0.355051,-0.050972,-0.026506,-0.355051,0.218275,0.103960,0.769964,-1.309144,2.241011,-9.172147
1790544651.8175,-0.049736,-0.028152,-0.351766,-0.050107,-0.027658,-0.351766,0.031297,-0.186220,0.589057,-1.117504,2.278191,-10.414105
1790544651.8317,-0.050505,-0.030042,-0.342208,-0.050386,-0.029327,-0.342208,0.109002,-0.033238,0.557489,0.952207,1.348691,-10.608161
1790544651.8458,-0.042807,-0.030500,-0.332785,-0.045081,-0.030148,-0.332785,-0.043980,-0.623311,0.482212,0.798895,0.382011,-10.996273
1790544651.8597,-0.033892,-0.022568,-0.317218,-0.037249,-0.024842,-0.317218,-0.620697,-0.803004,0.399651,2.178703,0.753811,-10.181238
1790544651.8738,-0.027906,-0.012799,-0.297411,-0.030709,-0.016412,-0.297411,-0.783392,-0.639095,0.321946,3.251886,0.084571,-10.491728
1790544651.8877,-0.020482,0.000555,-0.279483,-0.023550,-0.004535,-0.279483,-1.022578,-0.783578,0.161679,3.443526,0.530731,-8.628791
1790544651.9017,-0.009375,0.011388,-0.265491,-0.013628,0.006611,-0.265491,-0.852598,-1.010622,0.042693,3.328542,0.233291,-9.133336
1790544651.9156,-0.005069,0.023105,-0.261450,-0.007636,0.018157,-0.261450,-0.863526,-0.534678,-0.145499,3.750150,1.237151,-8.589979
1790544651.9296,-0.016336,0.023004,-0.258427,-0.013726,0.021550,-0.258427,-0.113186,0.754740,-0.462390,3.596838,-0.547489,-14.217602
1790544651.9436,-0.014677,0.020370,-0.279015,-0.014392,0.020724,-0.279015,0.210990,0.170738,-1.053677,-2.229015,2.241011,-13.363756
1790544651.9576,-0.001150,0.014726,-0.312929,-0.005123,0.016526,-0.312929,0.564305,-0.685232,-1.166593,-1.270816,3.244871,-7.697322
1790544651.9715,-0.005813,0.009299,-0.325271,-0.005606,0.011467,-0.325271,0.510883,0.297009,-0.557093,1.527127,2.278191,-6.261308
1790544651.9854,0.001443,0.001027,-0.342607,-0.000672,0.004159,-0.342607,0.592231,-0.271210,-0.727073,-2.305671,1.274331,-9.715504
1790544651.9994,0.012714,-0.003368,-0.360849,0.008698,-0.001110,-0.360849,0.377327,-0.641523,-0.992970,-0.542584,2.873071,-11.190329
1790544652.0131,0.017461,-0.009431,-0.383308,0.014833,-0.006934,-0.383308,0.486600,-0.132797,-1.258867,-0.695896,2.055111,-8.939280
1790544652.0267,0.021580,-0.011898,-0.404598,0.019556,-0.010409,-0.404598,0.249843,-0.127941,-1.205445,-0.235960,1.869211,-6.649420
1790544652.0403,0.028733,-0.016050,-0.415415,0.025980,-0.014357,-0.415415,0.268055,-0.414478,-1.020896,-0.005993,0.828171,-8.007811
1790544652.0542,0.036827,-0.025531,-0.424659,0.033573,-0.022179,-0.424659,0.617728,-0.476400,-0.911623,-0.197632,0.493551,-8.046623
1790544652.0683,0.047207,-0.028872,-0.444687,0.043117,-0.026864,-0.444687,0.361544,-0.608741,-0.881269,-0.772552,3.579491,-9.055714
1790544652.0827,0.026480,-0.019497,-0.456958,0.031471,-0.021707,-0.456958,-0.607342,1.490511,-0.797493,1.028863,3.691031,-13.945924
1790544652.0969,0.022178,-0.004663,-0.475867,0.024966,-0.009776,-0.475867,-1.092999,0.548336,-0.561950,-3.762135,0.939711,-12.587532
1790544652.1109,0.015632,0.002085,-0.487807,0.018432,-0.001473,-0.487807,-0.640124,0.781452,-0.524311,-3.302199,-0.919289,-7.969000
1790544652.1249,0.001881,0.014334,-0.495734,0.006846,0.009592,-0.495734,-0.926661,1.092272,-0.196493,-0.465928,0.307651,-4.165504
1790544652.1390,-0.007651,0.025985,-0.505212,-0.003301,0.021067,-0.505212,-0.869596,0.830017,-0.235346,-1.500784,0.902531,-9.366203
1790544652.1534,0.003570,0.016954,-0.502123,0.001508,0.018188,-0.502123,0.541237,-0.767794,0.137396,-1.462456,0.344831,-18.642077
1790544652.1675,-0.009831,0.017403,-0.467727,-0.006429,0.017639,-0.467727,0.099289,0.610258,0.769964,3.711822,3.765391,-8.628791
1790544652.1816,-0.015175,0.017701,-0.449328,-0.012551,0.017682,-0.449328,-0.063406,0.154954,0.914447,1.872079,1.534591,-13.014455
1790544652.1955,-0.015343,0.010669,-0.442016,-0.014505,0.012773,-0.442016,0.384612,-0.001670,0.692259,-1.385800,-0.212869,-9.754315
1790544652.2096,-0.025843,0.001537,-0.436926,-0.022442,0.004908,-0.436926,0.547307,0.736528,0.553847,-0.619240,-0.026969,-7.580888
1790544652.2234,-0.040431,-0.006919,-0.428392,-0.035034,-0.003371,-0.428392,0.591016,0.951431,0.752966,0.530599,1.571771,-10.802217
1790544652.2375,-0.051325,-0.012575,-0.418804,-0.046438,-0.009814,-0.418804,0.487814,0.669751,0.901091,0.338959,3.096151,-8.706413
1790544652.2511,-0.063760,-0.018597,-0.408146,-0.058563,-0.015962,-0.408146,0.453818,0.792379,0.922946,0.722239,2.129471,-9.210958
1790544652.2647,-0.067083,-0.022723,-0.400280,-0.064527,-0.020695,-0.400280,0.298408,0.193807,0.897449,-0.274288,2.315371,-10.763406
1790544652.2787,-0.066003,-0.025355,-0.391772,-0.065560,-0.023957,-0.391772,0.231630,-0.140082,0.763893,0.185647,2.798711,-9.715504
1790544652.2926,-0.061914,-0.023656,-0.379772,-0.063008,-0.023747,-0.379772,-0.124113,-0.412050,0.649764,1.488799,2.352551,-11.811308
1790544652.3065,-0.054837,-0.020908,-0.363518,-0.057288,-0.021760,-0.363518,-0.245527,-0.677947,0.575701,2.293686,1.274331,-11.073895
1790544652.3206,-0.047061,-0.011809,-0.344371,-0.050129,-0.014794,-0.344371,-0.699617,-0.753224,0.550204,2.561982,0.976891,-9.793126
1790544652.3355,-0.042390,-0.000874,-0.323913,-0.044712,-0.005050,-0.323913,-0.799176,-0.549248,0.398437,2.945262,0.642271,-8.201867
1790544652.3499,-0.033439,0.011425,-0.307967,-0.036821,0.006483,-0.307967,-0.931518,-0.820002,0.213887,2.983590,0.493551,-9.676693
1790544652.3638,-0.022329,0.025132,-0.295610,-0.026677,0.019537,-0.295610,-1.043219,-1.062830,0.066976,4.248414,0.828171,-9.405014
1790544652.3778,-0.015254,0.037626,-0.291084,-0.018681,0.032199,-0.291084,-0.902378,-0.671876,-0.137000,3.980118,1.943571,-11.733686
1790544652.3917,-0.030156,0.033016,-0.293361,-0.026714,0.032771,-0.293361,0.310550,1.070417,-0.399255,3.136902,2.129471,-16.856763
1790544652.4057,-0.028452,0.028641,-0.315761,-0.027930,0.029880,-0.315761,0.357901,0.171952,-1.165378,-1.730752,2.910251,-15.925294
1790544652.4196,-0.012312,0.030213,-0.391514,-0.016997,0.030113,-0.391514,0.331190,-1.079828,-1.116813,0.837223,2.873071,-2.380189
1790544652.4340,-0.015037,0.022330,-0.379310,-0.015625,0.024665,-0.379310,0.603158,0.059037,-0.587447,2.408670,1.571771,-5.446273
1790544652.4480,-0.006641,0.012051,-0.391162,-0.009336,0.015835,-0.391162,0.696647,-0.391410,-0.804778,-1.385800,0.865351,-11.112707
1790544652.4623,0.009771,0.001536,-0.414440,0.004039,0.005826,-0.414440,0.809562,-0.952343,-1.068247,-0.772552,2.612811,-9.948371
1790544652.4761,0.016557,-0.004115,-0.430286,0.012801,-0.001133,-0.430286,0.484172,-0.398695,-1.196946,0.952207,2.389731,-8.124245
1790544652.4899,0.018670,-0.004462,-0.450629,0.016909,-0.003463,-0.450629,0.142998,-0.053878,-1.054892,0.683911,3.319231,-8.978091
1790544652.5040,0.028306,-0.010654,-0.473231,0.024887,-0.008497,-0.473231,0.422251,-0.448474,-1.043964,-1.654096,1.237151,-9.405014
1790544652.5181,0.032914,-0.017649,-0.489596,0.030506,-0.014903,-0.489596,0.513311,-0.200789,-0.983257,-0.235960,1.794851,-9.133336
1790544652.5325,0.017961,-0.021863,-0.485300,0.021724,-0.019775,-0.485300,0.140570,1.104413,-0.771996,0.453943,-1.030829,-12.354665
1790544652.5465,0.013070,-0.012390,-0.518754,0.015666,-0.014605,-0.518754,-0.653479,0.687963,-0.822990,-5.180270,2.315371,-13.169700
1790544652.5617,0.008955,0.002344,-0.539828,0.010968,-0.002741,-0.539828,-1.018936,0.554407,-0.683364,-3.877119,0.567911,-11.345574
1790544652.5777,0.006457,0.012164,-0.537830,0.007810,0.007693,-0.537830,-0.794320,0.436635,-0.370115,-2.995575,-1.365448,-6.377742
1790544652.5923,-0.001484,0.029932,-0.551327,0.001304,0.023260,-0.551327,-1.123352,0.687963,-0.350689,-0.810880,2.203831,-6.338930
1790544652.6067,0.001410,0.040975,-0.562398,0.001379,0.035661,-0.562398,-0.821031,0.022613,-0.236560,-4.068759,1.237151,-13.092077
1790544652.6216,0.008350,0.036494,-0.551069,0.006259,0.036244,-0.551069,0.176994,-0.532250,0.253954,0.108991,-0.435949,-12.626343
1790544652.6355,0.001782,0.032680,-0.529105,0.003125,0.033749,-0.529105,0.219489,0.219304,0.785748,2.025391,0.976891,-11.073895
1790544652.6490,-0.000691,0.027744,-0.521843,0.000454,0.029546,-0.521843,0.450176,0.084534,0.763893,-0.350944,2.203831,-6.765853
1790544652.6632,-0.006848,0.025375,-0.523805,-0.004657,0.026626,-0.523805,0.270483,0.476702,0.330445,-0.810880,1.980751,-5.446273
1790544652.6772,-0.020484,0.017466,-0.511262,-0.015736,0.020214,-0.511262,0.530309,0.832446,0.396008,1.872079,1.237151,-11.112707
1790544652.6912,-0.033624,0.004956,-0.496018,-0.028257,0.009533,-0.496018,0.893338,0.751098,0.545348,2.255358,1.943571,-10.608161
1790544652.7048,-0.045828,-0.000655,-0.486197,-0.040557,0.002402,-0.486197,0.533952,0.755955,0.695901,1.143847,3.430771,-8.551168
1790544652.7184,-0.052256,-0.004295,-0.480257,-0.048746,-0.002286,-0.480257,0.387041,0.381999,0.776035,0.300631,3.356411,-8.124245
1790544652.7323,-0.054254,-0.009804,-0.475452,-0.052601,-0.007548,-0.475452,0.365186,0.097890,0.771178,-0.389272,1.646131,-10.336483
1790544652.7463,-0.060298,-0.014675,-0.463711,-0.057989,-0.012537,-0.463711,0.322691,0.311579,0.704400,1.105519,1.534591,-9.870749
1790544652.7604,-0.058518,-0.016952,-0.459483,-0.058360,-0.015627,-0.459483,0.232845,-0.175292,0.595128,0.185647,3.467951,-10.841028
1790544652.7743,-0.043530,-0.018400,-0.454578,-0.047979,-0.017568,-0.454578,0.000943,-1.071329,0.596342,-1.155832,0.307651,-12.898021
1790544652.7883,-0.034047,-0.012222,-0.440955,-0.038227,-0.013826,-0.440955,-0.445861,-0.804218,0.426362,1.872079,2.241011,-13.480189
1790544652.8022,-0.031564,-0.003017,-0.406765,-0.033563,-0.006260,-0.406765,-0.740897,-0.459402,0.352299,3.941790,0.493551,-9.831937
1790544652.8162,-0.027624,0.006386,-0.373535,-0.029405,0.002592,-0.373535,-0.797962,-0.586887,0.083974,3.290214,-0.287229,-6.183686
1790544652.8305,-0.016443,0.021429,-0.362939,-0.020331,0.015778,-0.362939,-1.045647,-0.943844,-0.058081,1.718767,1.051251,-5.679140
1790544652.8451,-0.007503,0.035199,-0.354233,-0.011351,0.029373,-0.354233,-0.924233,-0.778721,0.063333,2.485326,2.166651,-9.366203
1790544652.8592,-0.021862,0.028628,-0.343184,-0.018709,0.028852,-0.343184,0.293552,0.925935,-0.277841,4.516709,-1.885968,-15.886483
1790544652.8734,-0.032950,0.029844,-0.364564,-0.028678,0.029546,-0.364564,0.022798,0.918650,-0.719788,0.492271,3.319231,-10.608161
1790544652.8876,-0.013213,0.031410,-0.391128,-0.017853,0.030851,-0.391128,-0.097402,-1.090756,-0.847273,-1.385800,0.790991,-5.096972
1790544652.9016,-0.018134,0.024506,-0.389033,-0.018050,0.026410,-0.389033,0.478101,0.212019,-0.547380,2.830278,0.902531,-6.377742
1790544652.9156,-0.012107,0.013627,-0.399891,-0.013890,0.017462,-0.399891,0.775566,-0.278494,-0.629942,-0.657568,1.348691,-9.676693
1790544652.9299,0.000874,0.003205,-0.411118,-0.003555,0.007482,-0.411118,0.725786,-0.766580,-0.980829,0.070663,1.460231,-10.685784
1790544652.9437,0.006697,-0.004120,-0.424422,0.003621,-0.000639,-0.424422,0.578875,-0.384125,-1.105886,1.757095,2.055111,-9.133336
1790544652.9575,0.010795,-0.007342,-0.438435,0.008643,-0.005331,-0.438435,0.282624,-0.271210,-1.087673,1.757095,2.055111,-8.706413
1790544652.9715,0.018575,-0.012467,-0.451524,0.015596,-0.010326,-0.451524,0.353045,-0.421763,-1.017253,-0.120976,1.311511,-9.831937
1790544652.9855,0.020105,-0.023065,-0.471425,0.018752,-0.019244,-0.471425,0.787707,0.052966,-0.750142,-1.194160,1.869211,-10.064805
1790544652.9998,0.004740,-0.018559,-0.501845,0.008943,-0.018765,-0.501845,-0.211531,1.259824,-0.650582,-2.305671,4.917971,-16.041728
1790544653.0139,0.002542,-0.004966,-0.539007,0.004462,-0.009105,-0.539007,-0.989797,0.539837,-0.742857,-6.368438,0.865351,-13.092077
1790544653.0280,-0.003608,0.005121,-0.546532,-0.001187,0.000853,-0.546532,-0.921805,0.683106,-0.708861,-1.730752,-1.588528,-7.580888
1790544653.0422,-0.009875,0.018942,-0.565292,-0.007269,0.013516,-0.565292,-0.999510,0.700104,-0.602017,-0.887536,0.382011,-3.622147
1790544653.0564,-0.023340,0.032767,-0.581792,-0.018518,0.026991,-0.581792,-0.925447,1.134767,-0.506099,-0.810880,1.720491,-7.270399
1790544653.0704,-0.020337,0.035880,-0.589755,-0.019792,0.033214,-0.589755,-0.291665,-0.058735,-0.485459,-1.922392,1.051251,-21.281238
1790544653.0848,-0.017063,0.031450,-0.580029,-0.017882,0.031979,-0.580029,0.265626,-0.335559,0.266095,1.680439,1.832031,-15.071448
1790544653.0991,-0.019339,0.032419,-0.561913,-0.018902,0.032287,-0.561913,-0.108329,-0.067234,0.653406,2.178703,1.460231,-10.646972
1790544653.1132,-0.014029,0.033812,-0.541550,-0.015491,0.033354,-0.541550,-0.069477,-0.676733,0.658263,2.178703,1.869211,-6.959909
1790544653.1272,-0.021175,0.028478,-0.533699,-0.019470,0.029941,-0.533699,0.377327,0.381999,0.297663,1.258831,1.497411,-8.085434
1790544653.1413,-0.036614,0.019909,-0.520743,-0.031471,0.022918,-0.520743,0.594659,0.885868,0.369297,3.405198,1.683311,-10.569350
1790544653.1552,-0.049123,0.008163,-0.518578,-0.043827,0.012590,-0.518578,0.901837,0.788736,0.632766,0.798895,2.649991,-9.016902
1790544653.1689,-0.061274,0.005003,-0.520793,-0.056040,0.007279,-0.520793,0.339689,0.789951,0.760251,0.568927,3.691031,-9.249770
1790544653.1825,-0.065054,0.004878,-0.522610,-0.062349,0.005598,-0.522610,0.136927,0.173166,0.824600,0.453943,3.839751,-8.279490
1790544653.1966,-0.065366,0.001183,-0.513387,-0.064461,0.002507,-0.513387,0.231630,-0.090302,0.813673,0.492271,1.646131,-8.784035
1790544653.2105,-0.070695,-0.002364,-0.501505,-0.068825,-0.000902,-0.501505,0.212204,0.247229,0.698330,1.297159,1.497411,-9.715504
1790544653.2244,-0.065643,-0.002147,-0.503351,-0.066597,-0.001774,-0.503351,0.050723,-0.397480,0.587843,-0.082648,3.728211,-11.229140
1790544653.2383,-0.053621,0.002244,-0.492211,-0.057514,0.001039,-0.492211,-0.369370,-0.971770,0.521065,0.913879,1.497411,-11.190329
1790544653.2522,-0.049519,0.011292,-0.458332,-0.051918,0.008216,-0.458332,-0.767609,-0.575959,0.472499,4.286742,0.270471,-11.151518
1790544653.2662,-0.042443,0.020961,-0.432237,-0.045285,0.017138,-0.432237,-0.805247,-0.750796,0.337729,2.523654,0.233291,-7.425644
1790544653.2802,-0.027965,0.033064,-0.429191,-0.033161,0.028286,-0.429191,-0.795534,-1.197600,0.200531,1.450471,2.203831,-6.532986
1790544653.2940,-0.019902,0.043003,-0.409304,-0.023880,0.038588,-0.409304,-0.770037,-0.860069,0.073046,3.520182,0.976891,-7.580888
1790544653.3081,-0.023332,0.041650,-0.403814,-0.023496,0.040731,-0.403814,0.059222,0.185308,-0.336119,3.481854,1.906391,-14.955014
1790544653.3220,-0.026452,0.042406,-0.420158,-0.025565,0.041903,-0.420158,0.020370,0.351645,-0.820562,0.990535,3.021791,-11.112707
1790544653.3362,-0.008499,0.041667,-0.460882,-0.013619,0.041738,-0.460882,-0.043980,-0.761723,-1.046393,-5.410238,-0.733389,-9.405014
1790544653.3505,-0.002888,0.035395,-0.484336,-0.006107,0.037298,-0.484336,0.489029,-0.127941,-0.611730,-1.807408,1.720491,-7.037532
1790544653.3645,-0.000013,0.021051,-0.491512,-0.001841,0.025925,-0.491512,1.000182,-0.086660,-0.547380,-0.350944,1.274331,-9.599070
1790544653.3786,0.015591,0.009497,-0.509680,0.010362,0.014425,-0.509680,0.828988,-0.878281,-1.033037,-1.500784,1.757671,-10.569350
1790544653.3921,0.022157,0.000614,-0.525790,0.018618,0.004758,-0.525790,0.714859,-0.382911,-1.307433,1.182175,2.538451,-8.939280
1790544653.4058,0.024911,-0.005828,-0.533330,0.023023,-0.002652,-0.533330,0.480530,-0.176507,-1.116813,1.527127,1.608951,-7.930189
1790544653.4194,0.037262,-0.010227,-0.560188,0.032990,-0.007955,-0.560188,0.348188,-0.643951,-1.217587,-1.270816,1.460231,-6.649420
1790544653.4333,0.049851,-0.021777,-0.575462,0.044793,-0.017630,-0.575462,0.752497,-0.713157,-1.103457,-1.194160,0.567911,-8.978091
1790544653.4472,0.041248,-0.031515,-0.570264,0.042311,-0.027350,-0.570264,0.557020,0.575047,-1.073104,3.213558,-0.287229,-13.286133
1790544653.4612,0.035829,-0.017491,-0.595020,0.037774,-0.020449,-0.595020,-1.072358,0.685534,-0.848487,-5.601878,0.865351,-15.925294
1790544653.4752,0.038727,-0.002277,-0.619552,0.038441,-0.007728,-0.619552,-1.182845,0.162239,-0.780495,-4.298727,0.084571,-8.512357
1790544653.4892,0.038209,0.009814,-0.636947,0.038279,0.004551,-0.636947,-1.018936,0.417209,-0.739215,-2.842263,-0.473129,-5.446273
1790544653.5030,0.019591,0.025279,-0.628966,0.025197,0.019060,-0.628966,-1.146421,1.211258,-0.436893,1.527127,0.679451,-4.320748
1790544653.5171,0.006162,0.041347,-0.650354,0.011873,0.034661,-0.650354,-1.120924,1.230684,-0.729501,-1.884064,2.129471,-8.822846
1790544653.5311,0.012289,0.039459,-0.661540,0.012164,0.038019,-0.661540,0.042224,-0.186220,-0.503671,-5.448566,0.567911,-19.379490
1790544653.5450,0.019337,0.033159,-0.660153,0.017185,0.034617,-0.660153,0.370043,-0.461830,0.069404,-2.420655,0.716631,-19.224245
1790544653.5589,0.011796,0.034030,-0.644684,0.013413,0.034206,-0.644684,-0.091331,0.305508,0.533206,2.025391,1.088431,-8.667602
1790544653.5729,0.017275,0.027896,-0.636455,0.016116,0.029789,-0.636455,0.382184,-0.422977,0.632766,-1.079176,0.456371,-6.765853
1790544653.5870,0.016631,0.021884,-0.636793,0.016476,0.024255,-0.636793,0.390683,0.112459,0.167750,-1.462456,0.902531,-8.512357
1790544653.6017,0.004872,0.017403,-0.633247,0.008354,0.019458,-0.633247,0.286267,0.734100,0.247883,0.530599,1.199971,-9.133336
1790544653.6162,-0.008512,0.004713,-0.623676,-0.003453,0.009136,-0.623676,0.833845,0.771738,0.528350,1.910407,1.199971,-13.557812
1790544653.6300,-0.021339,-0.001815,-0.616515,-0.015973,0.001470,-0.616515,0.523024,0.792379,0.613340,1.067191,2.241011,-9.094525
1790544653.6438,-0.026412,-0.003420,-0.610572,-0.023280,-0.001953,-0.610572,0.191564,0.300651,0.744467,-0.235960,2.687171,-8.861658
1790544653.6578,-0.029568,-0.005786,-0.602160,-0.027681,-0.004636,-0.602160,0.184279,0.131886,0.708043,0.223975,1.943571,-9.482637
1790544653.6719,-0.029938,-0.008666,-0.594850,-0.029261,-0.007457,-0.594850,0.191564,-0.033238,0.606055,-0.082648,1.608951,-10.685784
1790544653.6862,-0.027319,-0.008266,-0.588910,-0.027902,-0.008023,-0.588910,0.061650,-0.255426,0.553847,0.223975,3.430771,-10.336483
1790544653.7001,-0.017891,-0.006193,-0.582031,-0.020894,-0.006742,-0.582031,-0.178750,-0.704658,0.558703,-0.772552,1.311511,-11.035084
1790544653.7141,-0.007542,-0.001793,-0.569980,-0.011548,-0.003277,-0.569980,-0.375441,-0.877066,0.399651,1.527127,0.753811,-12.471098
1790544653.7279,-0.001082,0.007582,-0.553434,-0.004222,0.004324,-0.553434,-0.717829,-0.714371,0.249097,2.983590,0.790991,-8.512357
1790544653.7420,0.004544,0.019818,-0.536407,0.001915,0.015170,-0.536407,-0.915734,-0.747153,0.026909,3.596838,0.530731,-5.562707
1790544653.7560,0.016076,0.032390,-0.536753,0.011828,0.027224,-0.536753,-0.839243,-0.897707,-0.115146,1.527127,3.207691,-11.578441
1790544653.7700,0.003243,0.024302,-0.533575,0.005818,0.025179,-0.533575,0.428321,0.924720,-0.429608,2.217030,-1.068009,-16.119350
1790544653.7838,0.001105,0.020397,-0.553063,0.002519,0.021832,-0.553063,0.308121,0.411138,-0.991756,-1.845736,2.761531,-13.324944
1790544653.7978,0.005637,0.022676,-0.562327,0.004702,0.022423,-0.562327,-0.261311,-0.251783,-1.325645,1.565455,0.084571,-6.455364
1790544653.8117,0.009985,0.020353,-0.574927,0.008400,0.020974,-0.574927,0.214632,-0.226286,-0.729501,0.300631,1.571771,-6.222497
1790544653.8256,0.016476,0.008684,-0.580100,0.014053,0.012371,-0.580100,0.743998,-0.311276,-0.731930,-0.772552,0.121751,-9.327392
1790544653.8395,0.029480,-0.005658,-0.596568,0.024852,-0.000249,-0.596568,1.045106,-0.767794,-1.103457,-0.465928,2.092291,-10.491728
1790544653.8538,0.035580,-0.011917,-0.620159,0.032362,-0.008417,-0.620159,0.518168,-0.414478,-1.199374,2.140375,3.021791,-8.900469
1790544653.8677,0.040628,-0.014796,-0.634558,0.038148,-0.012882,-0.634558,0.196420,-0.325846,-1.159308,1.220503,1.460231,-8.007811
1790544653.8818,0.042646,-0.019079,-0.651594,0.041297,-0.017220,-0.651594,0.276554,0.021399,-1.069461,-0.810880,1.423051,-9.676693
1790544653.8960,0.055664,-0.026787,-0.668219,0.051354,-0.023917,-0.668219,0.498742,-0.714371,-1.003898,-1.922392,1.125611,-9.948371
1790544653.9101,0.039197,-0.031764,-0.682953,0.042844,-0.029410,-0.682953,0.406467,1.172405,-0.640869,1.258831,3.356411,-12.665154
1790544653.9241,0.030084,-0.019188,-0.706732,0.033912,-0.022255,-0.706732,-0.927875,0.974500,-0.667580,-5.870174,1.460231,-13.286133
1790544653.9381,0.027590,-0.006553,-0.714490,0.029487,-0.011263,-0.714490,-1.023793,0.373500,-0.577734,-2.880591,-0.510309,-13.208511
1790544653.9522,0.023389,0.004199,-0.722558,0.025218,-0.000440,-0.722558,-0.965514,0.623613,-0.518241,-2.497311,-1.142369,-5.174595
1790544653.9664,0.015342,0.018334,-0.728860,0.018305,0.012702,-0.728860,-1.077215,0.724387,-0.319121,-1.270816,0.307651,-7.231588
1790544653.9803,0.011603,0.029578,-0.732744,0.013614,0.024516,-0.732744,-0.953372,0.476702,-0.229275,-2.458983,-0.621849,-8.589979
1790544653.9945,0.023219,0.025695,-0.729876,0.020337,0.025341,-0.729876,0.168495,-0.674305,0.125255,-5.065286,-0.324409,-15.032637
1790544654.0087,0.014448,0.022959,-0.716805,0.016215,0.023673,-0.716805,0.186707,0.278797,0.864667,3.980118,1.646131,-11.966553
1790544654.0227,0.013489,0.020722,-0.700898,0.014307,0.021607,-0.700898,0.174566,-0.175292,1.106281,0.722239,1.497411,-8.667602
1790544654.0367,0.016962,0.017101,-0.693022,0.016165,0.018453,-0.693022,0.214632,-0.125513,0.550204,-2.420655,0.456371,-6.106063
1790544654.0508,0.003103,0.015256,-0.688321,0.007021,0.016215,-0.688321,0.109002,0.695248,0.426362,4.286742,1.199971,-10.220049
1790544654.0646,-0.007890,0.003051,-0.682638,-0.003417,0.007000,-0.682638,0.825346,0.687963,0.439717,1.028863,0.790991,-12.315854
1790544654.0786,-0.021694,-0.003231,-0.678071,-0.016211,-0.000161,-0.678071,0.599515,0.759597,0.800318,2.102047,3.765391,-8.473546
1790544654.0925,-0.033478,-0.008162,-0.671318,-0.028298,-0.005762,-0.671318,0.435606,0.736528,0.831885,0.415615,2.835891,-9.016902
1790544654.1066,-0.036600,-0.012187,-0.663775,-0.034110,-0.010260,-0.663775,0.337261,0.182880,0.806388,-0.619240,2.203831,-7.969000
1790544654.1206,-0.041991,-0.017412,-0.654246,-0.039627,-0.015267,-0.654246,0.348188,0.272726,0.697115,0.760567,1.237151,-9.133336
1790544654.1347,-0.045088,-0.021580,-0.647347,-0.043450,-0.019686,-0.647347,0.294766,0.150098,0.563560,0.530599,1.794851,-10.841028
1790544654.1487,-0.032957,-0.026903,-0.637456,-0.036105,-0.024738,-0.637456,0.289909,-0.846713,0.564774,-1.577440,0.233291,-13.092077
1790544654.1632,-0.025616,-0.017491,-0.626385,-0.028763,-0.019665,-0.626385,-0.689903,-0.691303,0.462786,2.485326,0.865351,-10.064805
1790544654.1773,-0.023027,-0.009728,-0.610271,-0.024748,-0.012709,-0.610271,-0.714186,-0.454545,0.450645,3.980118,-1.253909,-10.103616
1790544654.1914,-0.015625,0.001315,-0.604471,-0.018361,-0.002892,-0.604471,-0.824673,-0.770222,0.201745,2.676966,0.605091,-6.843476
1790544654.2054,-0.004945,0.014481,-0.604679,-0.008970,0.009269,-0.604679,-0.873239,-0.974198,0.168964,2.485326,2.129471,-7.580888
1790544654.2194,0.002286,0.028298,-0.600669,-0.001091,0.022590,-0.600669,-1.027435,-0.782363,-0.107861,3.865134,0.865351,-7.697322
1790544654.2333,-0.008097,0.026490,-0.606248,-0.005995,0.025320,-0.606248,0.096861,0.735314,-0.502457,3.481854,2.092291,-17.943476
1790544654.2473,-0.020593,0.023711,-0.625841,-0.016213,0.024193,-0.625841,0.270483,1.077702,-0.878841,-0.120976,3.653851,-14.139979
1790544654.2613,-0.011105,0.023191,-0.638827,-0.012637,0.023492,-0.638827,0.051937,-0.430262,-0.996613,-1.040848,1.348691,-8.124245
1790544654.2752,-0.014692,0.019422,-0.645003,-0.014076,0.020643,-0.645003,0.266841,0.163453,-0.577734,2.217030,0.902531,-6.183686
1790544654.2891,-0.007913,0.008341,-0.650962,-0.009762,0.012032,-0.650962,0.776780,-0.277280,-0.587447,-1.845736,1.125611,-9.831937
1790544654.3031,0.006671,-0.003106,-0.663358,0.001741,0.001435,-0.663358,0.813204,-0.793291,-1.035465,-2.152360,1.460231,-11.694875
1790544654.3167,0.013109,-0.007687,-0.688109,0.009699,-0.004950,-0.688109,0.479315,-0.466686,-1.063391,1.757095,2.947431,-7.503266
1790544654.3304,0.015426,-0.008536,-0.709198,0.013708,-0.007460,-0.709198,0.156354,-0.113371,-1.058534,1.105519,2.464091,-7.852567
1790544654.3444,0.021195,-0.011599,-0.726143,0.018949,-0.010357,-0.726143,0.259556,-0.277280,-0.888554,-0.350944,1.943571,-8.667602
1790544654.3588,0.031690,-0.019763,-0.742469,0.027868,-0.016941,-0.742469,0.576447,-0.532250,-0.920122,-1.654096,1.608951,-9.521448
1790544654.3728,0.034700,-0.024794,-0.756565,0.032650,-0.022438,-0.756565,0.451390,-0.183791,-0.575305,0.377287,3.058971,-10.025993
1790544654.3868,0.009161,-0.017883,-0.758977,0.016208,-0.019250,-0.758977,-0.563633,1.821971,-0.582590,2.178703,0.753811,-15.925294
1790544654.4008,0.006379,-0.007124,-0.762209,0.009328,-0.010762,-0.762209,-0.855027,0.490057,-0.464819,-5.295254,-0.138509,-13.053266
1790544654.4147,0.001389,0.004105,-0.766489,0.003770,-0.000355,-0.766489,-0.907235,0.689177,-0.524311,-3.570495,-0.212869,-8.085434
1790544654.4287,-0.003241,0.015827,-0.760023,-0.001138,0.010973,-0.760023,-1.045647,0.643039,-0.211063,-2.612295,-1.142369,-5.252217
1790544654.4426,-0.015057,0.035204,-0.774576,-0.010881,0.027934,-0.774576,-1.199843,1.037636,-0.268127,-0.849208,2.017931,-3.777392
1790544654.4567,-0.004253,0.032169,-0.775082,-0.006241,0.030899,-0.775082,0.059222,-0.538321,-0.354332,-3.570495,-1.216729,-11.966553
1790544654.4706,-0.003026,0.027129,-0.763214,-0.003991,0.028260,-0.763214,0.342117,-0.302777,0.701972,2.102047,2.092291,-13.713056
1790544654.4845,-0.009436,0.021996,-0.747072,-0.007802,0.023875,-0.747072,0.255913,0.265441,1.003079,0.722239,-0.064149,-11.656063
1790544654.4985,-0.011450,0.014562,-0.733112,-0.010355,0.017356,-0.733112,0.414966,0.060251,0.825815,-0.580912,-0.101329,-8.163056
1790544654.5125,-0.018234,0.007501,-0.726375,-0.015870,0.010457,-0.726375,0.474459,0.725601,0.502853,-2.305671,0.456371,-3.971448
1790544654.5265,-0.034384,-0.002336,-0.720590,-0.028830,0.001502,-0.720590,0.706360,0.969644,0.619410,2.140375,1.646131,-9.676693
1790544654.5405,-0.049150,-0.013444,-0.712784,-0.043054,-0.008960,-0.712784,0.837487,0.911365,0.755394,1.220503,2.352551,-9.055714
1790544654.5540,-0.066367,-0.022749,-0.704099,-0.059373,-0.018612,-0.704099,0.734285,1.093486,0.869524,2.025391,2.798711,-10.064805
1790544654.5677,-0.072380,-0.028685,-0.696246,-0.068478,-0.025663,-0.696246,0.484172,0.443920,0.799103,-0.887536,3.058971,-10.375294
1790544654.5817,-0.067538,-0.035764,-0.684856,-0.067820,-0.032734,-0.684856,0.379756,-0.341630,0.807602,-1.194160,0.047391,-12.548721
1790544654.5957,-0.057369,-0.036194,-0.674390,-0.060504,-0.035156,-0.674390,-0.079190,-0.758081,0.663119,-0.120976,0.121751,-12.820399
1790544654.6103,-0.049565,-0.035515,-0.662268,-0.052847,-0.035407,-0.662268,-0.238243,-0.703444,0.694687,2.217030,-1.662888,-10.841028
1790544654.6244,-0.045765,-0.030406,-0.651410,-0.047889,-0.031906,-0.651410,-0.567275,-0.534678,0.678903,3.520182,-1.737248,-9.327392
1790544654.6383,-0.044410,-0.023423,-0.643449,-0.045454,-0.025968,-0.643449,-0.727542,-0.330703,0.442146,3.060246,-2.071868,-8.318301
1790544654.6540,-0.032610,-0.006495,-0.640186,-0.036463,-0.012337,-0.640186,-1.159776,-0.920776,0.234527,2.408670,0.158931,-8.667602
1790544654.6693,-0.026662,0.013173,-0.644336,-0.029602,0.005520,-0.644336,-1.339469,-0.660949,0.068190,4.631693,0.382011,-8.357112
1790544654.6841,-0.017257,0.032244,-0.645643,-0.020961,0.024227,-0.645643,-1.338255,-0.896493,0.064547,4.133430,0.790991,-8.706413
1790544654.6985,-0.028307,0.038889,-0.651740,-0.026103,0.034490,-0.651740,-0.484713,0.667322,-0.145499,4.440053,2.129471,-16.235784
1790544654.7137,-0.011485,0.031247,-0.648001,-0.015870,0.032220,-0.648001,0.577661,-0.764151,-0.597160,-6.675061,4.360271,-13.557812
1790544654.7279,-0.014949,0.025220,-0.664171,-0.015225,0.027320,-0.664171,0.526667,0.260585,-0.514598,1.603783,3.505131,-10.569350
1790544654.7417,-0.017769,0.019111,-0.665048,-0.017006,0.021573,-0.665048,0.366400,0.315221,-0.502457,-0.120976,0.307651,-9.754315
1790544654.7557,-0.002211,0.016314,-0.666466,-0.006650,0.017892,-0.666466,0.183065,-0.954772,-0.563164,-1.155832,1.274331,-9.754315
1790544654.7698,0.001046,0.006760,-0.677819,-0.001263,0.010099,-0.677819,0.671150,-0.101230,-0.863057,0.108991,1.460231,-10.569350
1790544654.7835,0.015055,-0.003593,-0.692322,0.010160,0.000514,-0.692322,0.853271,-0.804218,-0.975972,-1.117504,2.241011,-7.115154
1790544654.7971,0.026477,-0.009806,-0.707996,0.021582,-0.006710,-0.707996,0.533952,-0.654878,-0.999041,-0.772552,2.055111,-6.998721
1790544654.8110,0.030995,-0.016262,-0.724318,0.028171,-0.013397,-0.724318,0.533952,-0.278494,-0.836346,0.607255,2.315371,-8.357112
1790544654.8249,0.042820,-0.023218,-0.735089,0.038426,-0.020272,-0.735089,0.554592,-0.642737,-0.745285,-2.497311,2.687171,-10.336483
1790544654.8389,0.040362,-0.028923,-0.746839,0.039781,-0.026327,-0.746839,0.520596,0.283653,-0.481817,-1.500784,4.248731,-12.277042
1790544654.8530,0.019588,-0.024044,-0.756260,0.025646,-0.024729,-0.756260,-0.283166,1.471084,-0.302123,0.990535,3.951291,-15.731238
1790544654.8673,0.017461,-0.010015,-0.757280,0.019916,-0.014429,-0.757280,-1.006795,0.411138,-0.331263,-4.682006,1.162791,-11.462007
1790544654.8813,0.014988,-0.002953,-0.752441,0.016467,-0.006396,-0.752441,-0.614627,0.428136,-0.130929,-3.608823,-0.398769,-8.628791
1790544654.8953,0.007184,0.011386,-0.753362,0.009969,0.006052,-0.753362,-1.014079,0.701318,-0.037440,-1.385800,1.051251,-6.028441
1790544654.9094,-0.002664,0.024863,-0.755105,0.001126,0.019220,-0.755105,-1.010437,0.917436,-0.149142,-1.654096,0.419191,-5.368651
1790544654.9233,-0.003879,0.024519,-0.756112,-0.002378,0.022930,-0.756112,0.013085,0.181665,-0.087220,-1.194160,1.497411,-9.870749
1790544654.9373,0.001401,0.018756,-0.747578,0.000267,0.020008,-0.747578,0.365186,-0.379268,0.516208,-1.692424,1.051251,-11.384385
1790544654.9512,-0.005261,0.014019,-0.738575,-0.003603,0.015816,-0.738575,0.253485,0.335861,0.803960,0.530599,0.307651,-13.829490
1790544654.9660,-0.008130,0.007077,-0.728198,-0.006772,0.009699,-0.728198,0.377327,0.101532,0.759037,-0.350944,0.084571,-10.142427
1790544654.9802,-0.020871,-0.004054,-0.722550,-0.016641,0.000072,-0.722550,0.809562,0.674607,0.619410,1.412143,1.088431,-5.291028
1790544654.9943,-0.036508,-0.017218,-0.715174,-0.030548,-0.012031,-0.715174,0.904265,0.927149,0.757823,1.795423,0.976891,-9.172147
1790544655.0080,-0.052472,-0.026106,-0.706096,-0.045894,-0.021884,-0.706096,0.699075,1.032779,0.819744,0.952207,2.129471,-8.085434
1790544655.0216,-0.068489,-0.034356,-0.695177,-0.061711,-0.030614,-0.695177,0.661437,1.070417,0.920518,0.760567,2.649991,-9.094525
1790544655.0356,-0.074976,-0.043529,-0.682293,-0.070996,-0.039655,-0.682293,0.685720,0.440278,0.913233,-0.465928,2.873071,-10.763406
1790544655.0496,-0.068739,-0.048693,-0.667894,-0.069416,-0.045981,-0.667894,0.247414,-0.444832,0.958156,-1.194160,0.270471,-12.703965
1790544655.0637,-0.058781,-0.047051,-0.656522,-0.061971,-0.046730,-0.656522,-0.217602,-0.807860,0.754180,1.258831,0.307651,-12.781588
1790544655.0776,-0.054032,-0.044243,-0.643923,-0.056414,-0.044989,-0.643923,-0.397295,-0.624525,0.813673,4.440053,-1.700068,-10.879840
1790544655.0915,-0.051830,-0.037768,-0.632412,-0.053205,-0.039934,-0.632412,-0.649837,-0.450903,0.755394,3.673494,-1.253909,-8.473546
1790544655.1056,-0.046458,-0.024570,-0.624624,-0.048482,-0.029179,-0.624624,-1.044433,-0.550462,0.525921,2.025391,-0.026969,-9.055714
1790544655.1200,-0.039632,-0.007281,-0.619688,-0.042287,-0.013851,-0.619688,-1.340684,-0.732584,0.275808,3.941790,-0.807749,-8.900469
1790544655.1341,-0.032786,0.011971,-0.620928,-0.035636,0.004225,-0.620928,-1.406247,-0.753224,0.138610,3.826806,0.679451,-7.969000
1790544655.1480,-0.023259,0.030617,-0.620024,-0.026972,0.022699,-0.620024,-1.384393,-0.928060,0.162893,2.715294,0.865351,-7.192776
1790544655.1623,-0.032619,0.031380,-0.619375,-0.030925,0.028776,-0.619375,-0.132612,0.589617,-0.077507,2.600310,0.493551,-13.596623
1790544655.1763,-0.030987,0.022523,-0.623995,-0.030968,0.024399,-0.623995,0.665079,0.181665,-0.855772,-3.608823,3.021791,-16.934385
1790544655.1903,-0.016564,0.026749,-0.648287,-0.020885,0.026044,-0.648287,-0.025768,-0.959628,-0.764712,0.913879,5.884650,-8.551168
1790544655.2043,-0.026736,0.023337,-0.654023,-0.024981,0.024149,-0.654023,0.254699,0.520411,-0.353117,3.596838,1.125611,-6.494175
1790544655.2181,-0.014914,0.014932,-0.653605,-0.017934,0.017697,-0.653605,0.605586,-0.578388,-0.654225,-2.803935,1.460231,-10.103616
1790544655.2317,0.000197,0.004142,-0.665420,-0.005243,0.008209,-0.665420,0.859342,-0.940202,-0.849702,-0.734224,2.203831,-8.939280
1790544655.2453,0.002336,-0.005647,-0.680522,0.000063,-0.001491,-0.680522,0.746427,-0.140082,-0.909195,1.527127,1.497411,-8.085434
1790544655.2589,0.011041,-0.009915,-0.695790,0.007747,-0.007388,-0.695790,0.365186,-0.537107,-0.916479,0.185647,1.906391,-8.512357
1790544655.2729,0.019099,-0.014243,-0.708333,0.015694,-0.012187,-0.708333,0.342117,-0.442404,-0.797493,-0.695896,1.980751,-9.909560
1790544655.2869,0.023807,-0.020754,-0.722812,0.021373,-0.018184,-0.722812,0.519382,-0.216573,-0.779281,-0.580912,2.352551,-9.909560
1790544655.3008,0.012111,-0.018909,-0.738668,0.014890,-0.018691,-0.738668,-0.046408,0.901652,-0.625085,0.415615,3.876931,-13.363756
1790544655.3148,0.002248,-0.009180,-0.748605,0.006040,-0.012033,-0.748605,-0.637695,0.947789,-0.557093,-4.567022,3.951291,-16.196973
1790544655.3288,-0.001531,0.003258,-0.748065,0.000740,-0.001329,-0.748065,-0.914520,0.594474,-0.510956,-4.950302,1.237151,-11.345574
1790544655.3428,-0.001184,0.008457,-0.733697,-0.000606,0.005521,-0.733697,-0.493212,0.306722,-0.140643,-3.532167,-0.473129,-6.067252
1790544655.3569,-0.008885,0.025857,-0.739835,-0.006401,0.019756,-0.739835,-0.986154,0.712245,-0.190422,-1.194160,3.282051,-4.825294
1790544655.3714,-0.015219,0.034755,-0.743281,-0.012574,0.030255,-0.743281,-0.657122,0.565334,-0.149142,-1.654096,1.162791,-11.578441
1790544655.3855,-0.009142,0.028840,-0.739463,-0.010171,0.029265,-0.739463,0.338475,-0.429048,0.143467,-0.580912,0.642271,-13.441378
1790544655.3996,-0.008053,0.023190,-0.728856,-0.008688,0.025013,-0.728856,0.321477,-0.205646,0.672833,0.300631,0.567911,-11.384385
1790544655.4136,-0.017036,0.016733,-0.716806,-0.014532,0.019217,-0.716806,0.374899,0.409924,0.857382,1.833751,0.382011,-10.181238
1790544655.4275,-0.024372,0.003590,-0.709901,-0.021420,0.008278,-0.709901,0.850843,0.508270,0.451859,-0.274288,0.047391,-6.067252
1790544655.4415,-0.039847,-0.005623,-0.707290,-0.034319,-0.001453,-0.707290,0.719716,0.957502,0.427576,1.450471,1.794851,-6.765853
1790544655.4554,-0.055801,-0.018294,-0.703772,-0.049356,-0.013242,-0.703772,0.924906,1.042492,0.450645,1.373815,1.869211,-9.909560
1790544655.4690,-0.073349,-0.028940,-0.699246,-0.066151,-0.024230,-0.699246,0.873912,1.188189,0.624267,1.143847,2.687171,-8.201867
1790544655.4826,-0.084016,-0.039398,-0.691115,-0.078657,-0.034848,-0.691115,0.775566,0.768096,0.776035,-0.197632,2.352551,-11.229140
1790544655.4966,-0.077331,-0.047746,-0.678669,-0.077729,-0.043876,-0.678669,0.508455,-0.532250,0.829457,0.338959,1.014071,-13.130889
1790544655.5105,-0.069019,-0.050053,-0.667026,-0.071632,-0.048200,-0.667026,0.059222,-0.605099,0.729897,-0.427600,0.233291,-11.190329
1790544655.5246,-0.065545,-0.054614,-0.652079,-0.067371,-0.052690,-0.652079,0.099289,-0.376840,0.762679,1.718767,-2.109048,-10.646972
1790544655.5386,-0.062140,-0.055868,-0.638531,-0.063710,-0.054915,-0.638531,-0.069477,-0.529822,0.788176,3.865134,-0.844929,-8.551168
1790544655.5527,-0.064516,-0.052193,-0.626313,-0.064274,-0.053010,-0.626313,-0.439790,-0.090302,0.675261,4.325070,-1.551348,-10.181238
1790544655.5668,-0.060464,-0.041615,-0.617103,-0.061607,-0.045033,-0.617103,-0.909663,-0.487327,0.445788,2.983590,-1.068009,-8.939280
1790544655.5808,-0.058840,-0.024695,-0.612814,-0.059670,-0.030796,-0.612814,-1.347968,-0.388981,0.334087,4.746677,-0.919289,-9.676693
1790544655.5948,-0.051808,-0.000241,-0.612184,-0.054167,-0.009408,-0.612184,-1.842124,-0.727727,0.104614,4.248414,0.010211,-10.181238
1790544655.6089,-0.042554,0.026288,-0.609798,-0.046038,0.015579,-0.609798,-1.987821,-0.852784,-0.028942,3.865134,-0.212869,-9.870749
1790544655.6232,-0.030885,0.052306,-0.609851,-0.035431,0.041288,-0.609851,-1.842124,-0.850355,-0.141857,1.182175,1.683311,-10.414105
1790544655.6373,-0.039928,0.043268,-0.597037,-0.038579,0.042674,-0.597037,0.444105,0.626041,-0.110289,2.485326,-2.555208,-17.438931
1790544655.6515,-0.048995,0.033610,-0.589544,-0.045870,0.036329,-0.589544,0.708788,0.944147,-0.175853,-4.030431,2.129471,-9.909560
1790544655.6655,-0.048506,0.032655,-0.599430,-0.047715,0.033757,-0.599430,0.132071,0.117316,-0.666366,-0.005993,3.282051,-14.217602
1790544655.6794,-0.054282,0.037651,-0.616083,-0.052312,0.036483,-0.616083,-0.326875,0.457276,-0.718574,2.025391,1.534591,-9.210958
1790544655.6929,-0.040626,0.033803,-0.616429,-0.044132,0.034607,-0.616429,0.269269,-0.753224,-0.846059,-1.155832,0.939711,-8.706413
1790544655.7066,-0.025946,0.024270,-0.621250,-0.031402,0.027371,-0.621250,0.730643,-0.750796,-0.996613,-1.309144,1.014071,-5.601518
1790544655.7202,-0.017471,0.019054,-0.646146,-0.021650,0.021549,-0.646146,0.591016,-0.430262,-0.966259,-0.350944,3.356411,-6.765853
1790544655.7343,-0.010870,0.016461,-0.663599,-0.014104,0.017987,-0.663599,0.312978,-0.285779,-0.884912,-0.619240,3.467951,-9.521448
1790544655.7484,-0.006941,0.013626,-0.687679,-0.009090,0.014935,-0.687679,0.427107,-0.067234,-0.858201,-1.155832,4.806431,-8.357112
1790544655.7625,0.001321,0.012183,-0.703562,-0.001803,0.013009,-0.703562,0.293552,-0.266353,-0.787780,-3.532167,4.694891,-8.861658
1790544655.7764,-0.001520,0.003775,-0.714352,-0.001605,0.006545,-0.714352,0.676006,0.367429,-0.592303,-1.309144,3.170511,-11.733686
1790544655.7904,-0.004390,0.006944,-0.720852,-0.003554,0.006824,-0.720852,-0.159323,0.363787,-0.321550,-2.497311,3.765391,-14.101168
1790544655.8044,-0.005450,0.015959,-0.721509,-0.004881,0.013218,-0.721509,-0.627982,0.237516,-0.043511,-3.110559,2.352551,-12.238231
1790544655.8190,-0.007964,0.025520,-0.719846,-0.007039,0.021829,-0.719846,-0.591558,0.445134,0.081545,-3.072231,1.646131,-5.446273
1790544655.8331,-0.002071,0.027561,-0.716954,-0.003561,0.025842,-0.716954,-0.203032,-0.222644,0.148323,-3.263871,0.605091,-8.201867
1790544655.8474,-0.000575,0.024519,-0.709903,-0.001471,0.024916,-0.709903,0.142998,-0.290636,0.508923,1.795423,0.605091,-10.918651
1790544655.8615,-0.005374,0.014702,-0.699997,-0.004203,0.017766,-0.699997,0.567948,0.180451,0.806388,0.683911,-0.547489,-12.742777
1790544655.8761,-0.014116,0.006258,-0.690043,-0.011142,0.009710,-0.690043,0.431964,0.492486,0.795461,-0.044320,-0.882109,-10.220049
1790544655.8902,-0.020577,-0.003425,-0.676061,-0.017747,0.000515,-0.676061,0.611657,0.543480,0.750538,-2.382327,0.270471,-7.852567
1790544655.9042,-0.034706,-0.012288,-0.666556,-0.029618,-0.008447,-0.666556,0.609229,0.831231,0.898663,1.143847,1.162791,-8.395923
1790544655.9190,-0.047559,-0.022405,-0.652500,-0.042176,-0.018217,-0.652500,0.668722,0.719530,1.065001,0.837223,1.534591,-9.172147
1790544655.9325,-0.058952,-0.028928,-0.636542,-0.053919,-0.025715,-0.636542,0.521810,0.729243,1.118423,0.262303,2.352551,-8.279490
1790544655.9463,-0.066735,-0.034700,-0.621005,-0.062890,-0.032004,-0.621005,0.396754,0.482773,1.088069,0.070663,2.017931,-10.724595
1790544655.9603,-0.070881,-0.040987,-0.607545,-0.068484,-0.038292,-0.607545,0.410109,0.191379,0.948443,0.875551,1.683311,-10.996273
1790544655.9742,-0.062043,-0.048087,-0.597005,-0.063975,-0.045148,-0.597005,0.331190,-0.692517,0.824600,0.147319,-1.179549,-12.548721
1790544655.9883,-0.055507,-0.044119,-0.589483,-0.058048,-0.044428,-0.589483,-0.352372,-0.605099,0.609697,1.910407,0.567911,-10.336483
1790544656.0023,-0.048675,-0.037374,-0.582401,-0.051487,-0.039490,-0.582401,-0.604914,-0.668234,0.659477,2.561982,-0.361589,-11.073895
1790544656.0163,-0.047819,-0.030687,-0.579821,-0.048919,-0.033328,-0.579821,-0.643766,-0.371983,0.505281,4.363398,-1.216729,-8.434735
1790544656.0301,-0.039676,-0.017335,-0.576834,-0.042449,-0.022133,-0.576834,-1.056574,-0.796933,0.355942,2.408670,0.047391,-7.697322
1790544656.0441,-0.035350,-0.001248,-0.574493,-0.037480,-0.007514,-0.574493,-1.294546,-0.618454,0.227242,4.018446,-0.807749,-7.270399
1790544656.0581,-0.026466,0.015639,-0.574427,-0.029770,0.008694,-0.574427,-1.311544,-0.860069,0.039050,3.558510,-0.138509,-8.939280
1790544656.0720,-0.017165,0.034029,-0.579482,-0.020947,0.026428,-0.579482,-1.333399,-0.861283,-0.054438,3.405198,1.646131,-9.870749
1790544656.0859,-0.040322,0.027596,-0.573033,-0.034509,0.027245,-0.573033,0.231630,1.598569,-0.351903,5.551565,-4.525748,-17.516553
1790544656.0999,-0.025308,0.023050,-0.569022,-0.028069,0.024309,-0.569022,0.393111,-0.670662,-0.955332,-4.145415,2.501271,-9.987182
1790544656.1141,-0.030860,0.027038,-0.615896,-0.030022,0.026219,-0.615896,0.053151,0.312793,-0.945619,2.983590,4.360271,-4.864105
1790544656.1291,-0.033031,0.017823,-0.624640,-0.032129,0.020342,-0.624640,0.582517,0.212019,-0.729501,1.488799,0.642271,-10.414105
1790544656.1432,-0.014929,0.009078,-0.624820,-0.020089,0.012457,-0.624820,0.621370,-1.006980,-0.867914,-2.535639,1.423051,-10.724595
1790544656.1575,-0.008026,-0.003950,-0.642051,-0.011645,0.000972,-0.642051,0.958901,-0.357414,-1.051249,0.492271,1.757671,-8.784035
1790544656.1714,0.003129,-0.009498,-0.661178,-0.001303,-0.006357,-0.661178,0.553378,-0.582030,-1.144738,-0.887536,2.798711,-7.076343
1790544656.1855,0.011222,-0.011301,-0.681107,0.007464,-0.009818,-0.681107,0.221917,-0.495826,-1.043964,0.722239,2.352551,-7.736133
1790544656.1994,0.017162,-0.017123,-0.697140,0.014252,-0.014931,-0.697140,0.480530,-0.272424,-0.978401,-0.580912,2.241011,-9.016902
1790544656.2133,0.025719,-0.024610,-0.706470,0.022279,-0.021706,-0.706470,0.635940,-0.396266,-0.676079,-3.340527,4.062831,-12.665154
1790544656.2273,0.004619,-0.017243,-0.720287,0.009917,-0.018582,-0.720287,-0.493212,1.586428,-0.649368,0.300631,3.058971,-15.226693
1790544656.2413,0.005221,-0.003191,-0.717470,0.006630,-0.007808,-0.717470,-1.016508,0.247229,-0.418681,-6.790045,2.055111,-16.313406
1790544656.2552,0.001671,0.002947,-0.703816,0.003158,-0.000279,-0.703816,-0.621912,0.553193,-0.235346,-4.452038,-1.700068,-9.637881
1790544656.2692,-0.006176,0.015154,-0.702204,-0.003375,0.010524,-0.702204,-0.887809,0.752312,-0.066580,-0.925864,0.456371,-3.272846
1790544656.2830,-0.015489,0.032579,-0.707111,-0.011855,0.025962,-0.707111,-0.879310,0.730458,-0.172210,-0.082648,4.211551,-3.777392
1790544656.2968,-0.012976,0.028482,-0.710826,-0.012640,0.027726,-0.710826,0.249843,0.003187,-0.275412,-3.263871,1.385871,-15.420749
1790544656.3108,-0.007967,0.023384,-0.703825,-0.009369,0.024687,-0.703825,0.339689,-0.442404,0.431218,0.262303,2.203831,-15.653616
1790544656.3248,-0.014023,0.022362,-0.693145,-0.012627,0.023059,-0.693145,0.033725,0.192593,0.782105,2.676966,1.571771,-13.092077
1790544656.3389,-0.016746,0.014281,-0.680595,-0.015510,0.016915,-0.680595,0.476887,0.027469,0.863453,0.645583,0.233291,-10.608161
1790544656.3527,-0.028125,0.000743,-0.673373,-0.024341,0.005595,-0.673373,0.918835,0.782666,0.597556,-0.312616,0.567911,-8.163056
1790544656.3669,-0.045166,-0.009262,-0.666479,-0.038919,-0.004805,-0.666479,0.703932,1.137195,0.648550,0.185647,1.608951,-9.482637
1790544656.3815,-0.060667,-0.021494,-0.657018,-0.054143,-0.016488,-0.657018,0.835059,1.031565,0.759037,-0.389272,1.646131,-8.900469
1790544656.3952,-0.074234,-0.030376,-0.647287,-0.068206,-0.026209,-0.647287,0.693004,0.918650,0.814887,0.492271,2.984611,-10.802217
1790544656.4089,-0.078039,-0.037960,-0.634455,-0.075089,-0.034434,-0.634455,0.497528,0.188950,0.958156,0.645583,1.720491,-12.238231
1790544656.4230,-0.070213,-0.041910,-0.620065,-0.071676,-0.039667,-0.620065,0.142998,-0.645165,0.967869,0.453943,0.084571,-11.772497
1790544656.4370,-0.064629,-0.042515,-0.607226,-0.066743,-0.041661,-0.607226,-0.086475,-0.488541,0.875594,0.645583,-0.026969,-10.336483
1790544656.4512,-0.062615,-0.046776,-0.593561,-0.063854,-0.045241,-0.593561,0.067721,-0.381697,0.992152,2.638638,-1.662888,-8.589979
1790544656.4653,-0.057629,-0.043303,-0.580219,-0.059496,-0.043884,-0.580219,-0.432505,-0.626953,1.004293,2.906934,-0.882109,-8.279490
1790544656.4793,-0.056300,-0.035662,-0.568190,-0.057259,-0.038129,-0.568190,-0.749396,-0.387767,0.905948,3.903462,-1.514168,-9.637881
1790544656.4934,-0.053400,-0.021428,-0.561571,-0.054558,-0.026439,-0.561571,-1.141564,-0.489755,0.626695,4.248414,-0.510309,-9.870749
1790544656.5075,-0.045912,-0.001802,-0.554214,-0.048506,-0.009193,-0.554214,-1.551944,-0.758081,0.374154,3.328542,-0.993649,-9.443825
1790544656.5217,-0.039034,0.020581,-0.551400,-0.041875,0.011649,-0.551400,-1.704926,-0.721656,0.241812,3.596838,-0.212869,-9.599070
1790544656.5356,-0.036601,0.044642,-0.553858,-0.038184,0.034744,-0.553858,-1.754706,-0.336773,0.124040,2.791950,1.571771,-10.414105
1790544656.5499,-0.043226,0.038324,-0.533376,-0.041713,0.037250,-0.533376,0.210990,0.497342,0.073046,-0.082648,-3.633428,-18.292777
1790544656.5639,-0.029921,0.030936,-0.517597,-0.033459,0.032830,-0.517597,0.690576,-0.469115,-0.137000,-9.013068,4.657711,-6.998721
1790544656.5779,-0.036952,0.026111,-0.523889,-0.035904,0.028127,-0.523889,0.345760,0.582332,-0.400469,0.415615,1.571771,-10.763406
1790544656.5920,-0.032670,0.023650,-0.531499,-0.033640,0.024993,-0.531499,0.172137,-0.283351,-0.430823,1.028863,1.274331,-9.055714
1790544656.6060,-0.019545,0.017241,-0.528005,-0.023773,0.019567,-0.528005,0.320263,-0.769008,-0.512170,-1.385800,-0.919289,-11.384385
1790544656.6199,-0.008876,0.008356,-0.531964,-0.013345,0.011719,-0.531964,0.627441,-0.534678,-0.859415,-1.194160,0.865351,-7.658511
1790544656.6340,0.007129,0.007004,-0.545702,0.000987,0.008419,-0.545702,0.295980,-0.852784,-0.910409,-1.845736,3.244871,-5.989630
1790544656.6483,0.012124,0.003367,-0.556037,0.008783,0.004883,-0.556037,0.333618,-0.158294,-0.818134,-1.117504,2.612811,-8.589979
1790544656.6623,0.024190,-0.001361,-0.562572,0.019568,0.000512,-0.562572,0.453818,-0.643951,-0.631156,-2.458983,3.542311,-9.482637
1790544656.6764,0.027191,-0.004820,-0.571454,0.024904,-0.003221,-0.571454,0.396754,-0.005312,-0.570449,-2.152360,3.653851,-8.163056
1790544656.6904,0.009113,0.002338,-0.578368,0.013850,0.000670,-0.578368,-0.420364,1.417662,-0.330049,-1.692424,4.806431,-14.799770
1790544656.7043,0.011923,0.013622,-0.583782,0.012501,0.009737,-0.583782,-0.767609,0.084534,-0.255986,-5.716862,2.984611,-12.277042
1790544656.7182,0.007296,0.016770,-0.589525,0.008857,0.014660,-0.589525,-0.268596,0.571405,-0.229275,-2.957247,0.828171,-8.706413
1790544656.7328,0.001483,0.022636,-0.591762,0.003695,0.020243,-0.591762,-0.207889,0.633326,-0.157641,-2.190688,2.984611,-5.096972
1790544656.7484,-0.002135,0.031426,-0.593296,-0.000386,0.028071,-0.593296,-0.352372,0.423280,-0.144285,-1.654096,3.021791,-4.514804
1790544656.7636,-0.001240,0.021526,-0.591448,-0.000984,0.023490,-0.591448,0.629869,-0.081803,0.213887,-0.389272,2.166651,-16.856763
1790544656.7779,-0.003027,0.021345,-0.579467,-0.002414,0.021989,-0.579467,0.053151,0.015328,0.691045,-0.044320,2.649991,-10.802217
1790544656.7934,-0.006135,0.011956,-0.575636,-0.005018,0.014966,-0.575636,0.501170,-0.010169,0.777249,1.488799,-0.212869,-9.094525
1790544656.8077,-0.016149,-0.002053,-0.573837,-0.012810,0.003053,-0.573837,0.905479,0.719530,0.562346,-0.964192,0.233291,-6.649420
1790544656.8214,-0.028206,-0.012926,-0.563061,-0.023587,-0.008133,-0.563061,0.903051,0.964787,0.625481,-1.040848,1.423051,-4.049070
1790544656.8353,-0.044245,-0.024753,-0.553991,-0.038048,-0.019767,-0.553991,0.856914,1.106842,0.691045,-0.082648,1.757671,-10.375294
1790544656.8490,-0.054495,-0.035639,-0.540892,-0.049561,-0.030878,-0.540892,0.811990,0.703747,0.852526,-0.197632,2.129471,-10.685784
1790544656.8626,-0.066019,-0.046052,-0.523090,-0.061081,-0.041500,-0.523090,0.794992,0.769310,1.050431,0.185647,2.315371,-9.288581
1790544656.8771,-0.059708,-0.051818,-0.506452,-0.060120,-0.048723,-0.506452,0.325119,-0.544392,1.090498,0.760567,1.199971,-12.199420
1790544656.8916,-0.053857,-0.048705,-0.494333,-0.055736,-0.048711,-0.494333,-0.308663,-0.544392,0.921732,1.795423,0.456371,-12.432287
1790544656.9057,-0.056560,-0.049770,-0.491524,-0.056313,-0.049452,-0.491524,-0.104687,-0.087874,0.942372,4.210086,-1.291089,-10.685784
1790544656.9198,-0.055772,-0.048879,-0.489118,-0.055934,-0.049051,-0.489118,-0.251598,-0.313705,0.807602,3.213558,-1.253909,-8.628791
1790544656.9337,-0.050350,-0.039942,-0.482472,-0.052025,-0.042675,-0.482472,-0.753039,-0.624525,0.692259,2.293686,-0.064149,-6.998721
1790544656.9477,-0.048069,-0.026758,-0.477142,-0.049256,-0.031533,-0.477142,-1.066288,-0.391410,0.630338,3.328542,-0.361589,-10.530539
1790544656.9617,-0.041067,-0.013639,-0.472840,-0.043524,-0.019007,-0.472840,-1.060217,-0.753224,0.505281,3.941790,-0.361589,-10.879840
1790544656.9756,-0.037168,0.004126,-0.471657,-0.039075,-0.002814,-0.471657,-1.337041,-0.583244,0.283093,4.746677,0.679451,-9.327392
1790544656.9895,-0.027738,0.024051,-0.469795,-0.031139,0.015992,-0.469795,-1.505807,-0.960842,0.168964,3.673494,0.493551,-7.891378
1790544657.0034,-0.018197,0.044567,-0.469677,-0.022080,0.035994,-0.469677,-1.538589,-0.812717,-0.090863,2.408670,0.753811,-9.831937
1790544657.0174,-0.017494,0.035374,-0.463386,-0.018869,0.035560,-0.463386,0.393111,-0.027167,-0.226847,0.952207,-4.674468,-16.740329
1790544657.0313,-0.016191,0.029609,-0.459313,-0.016994,0.031394,-0.459313,0.566734,0.424494,-0.476960,-8.476477,4.323091,-8.085434
1790544657.0453,-0.021230,0.020663,-0.466818,-0.019959,0.023882,-0.466818,0.617728,0.409924,-0.415039,0.722239,1.274331,-10.724595
1790544657.0594,-0.010396,0.019905,-0.471346,-0.013265,0.021098,-0.471346,0.089576,-0.741083,-0.379829,0.453943,1.906391,-8.628791
1790544657.0730,-0.001862,0.012163,-0.477664,-0.005283,0.014843,-0.477664,0.440463,-0.528608,-0.595946,-0.120976,-0.584669,-10.025993
1790544657.0866,0.013764,0.004397,-0.485720,0.008050,0.007531,-0.485720,0.649295,-0.890422,-0.967473,-1.500784,2.055111,-7.076343
1790544657.1002,0.022563,-0.001189,-0.497263,0.018209,0.001427,-0.497263,0.548521,-0.532250,-0.850916,-0.082648,2.352551,-5.795574
1790544657.1141,0.030924,-0.009239,-0.506646,0.027110,-0.006039,-0.506646,0.642010,-0.471543,-0.762283,-0.542584,2.166651,-7.736133
1790544657.1282,0.044788,-0.018696,-0.515300,0.039485,-0.014899,-0.515300,0.785279,-0.813931,-0.767140,-1.692424,3.319231,-9.016902
1790544657.1428,0.032701,-0.021362,-0.528477,0.034736,-0.019423,-0.528477,0.345760,0.866442,-0.687007,0.722239,5.103871,-10.258860
1790544657.1571,0.028978,-0.007303,-0.538250,0.030706,-0.010939,-0.538250,-0.989797,0.551979,-0.396827,-7.288309,2.389731,-15.692427
1790544657.1712,0.021384,0.006525,-0.543916,0.024180,0.001286,-0.543916,-1.012865,0.715888,-0.202564,-2.612295,1.162791,-10.181238
1790544657.1852,0.024026,0.011085,-0.556317,0.024072,0.008145,-0.556317,-0.512639,0.168310,-0.196493,-5.870174,-1.811608,-8.667602
1790544657.1990,0.017927,0.019681,-0.555254,0.019771,0.016220,-0.555254,-0.482285,0.640611,-0.405326,-1.270816,2.241011,-5.174595
1790544657.2129,0.009108,0.026966,-0.565888,0.012307,0.023742,-0.565888,-0.614627,0.895581,-0.232917,-2.612295,0.158931,-6.959909
1790544657.2269,0.001339,0.029449,-0.573970,0.004630,0.027737,-0.573970,-0.235814,0.677035,-0.247487,-1.769080,1.423051,-16.623896
1790544657.2408,0.005725,0.024407,-0.572357,0.005397,0.025406,-0.572357,0.285053,-0.482470,0.456715,2.140375,0.790991,-16.235784
1790544657.2547,0.002330,0.019498,-0.568120,0.003250,0.021270,-0.568120,0.288695,0.077249,0.655835,1.412143,0.939711,-14.955014
1790544657.2686,-0.006197,0.012882,-0.566380,-0.003363,0.015399,-0.566380,0.385826,0.413567,0.636408,0.837223,0.084571,-4.747672
1790544657.2826,-0.011391,0.004816,-0.561210,-0.008983,0.007991,-0.561210,0.570376,0.270298,0.466428,0.415615,0.939711,-6.183686
1790544657.2966,-0.025699,-0.005291,-0.554727,-0.020684,-0.001307,-0.554727,0.753711,0.800878,0.573273,2.523654,1.869211,-8.784035
1790544657.3103,-0.041826,-0.013599,-0.543355,-0.035484,-0.009911,-0.543355,0.667507,1.040064,0.763893,0.990535,2.278191,-8.318301
1790544657.3239,-0.053741,-0.019309,-0.529750,-0.048264,-0.016490,-0.529750,0.441677,0.805734,0.891378,-0.044320,2.501271,-10.957462
1790544657.3380,-0.059238,-0.025417,-0.514288,-0.055946,-0.022739,-0.514288,0.462317,0.309150,0.888950,0.223975,2.724351,-10.724595
1790544657.3520,-0.051369,-0.029796,-0.499379,-0.052742,-0.027679,-0.499379,0.274125,-0.659735,0.925374,0.377287,1.980751,-13.130889
1790544657.3660,-0.039954,-0.027718,-0.489235,-0.043790,-0.027706,-0.489235,-0.216388,-0.925632,0.704400,0.837223,0.790991,-10.879840
1790544657.3799,-0.036385,-0.021698,-0.481737,-0.038607,-0.023501,-0.481737,-0.570918,-0.514038,0.738396,2.983590,-0.547489,-9.288581
1790544657.3946,-0.031643,-0.012123,-0.474274,-0.033732,-0.015536,-0.474274,-0.828316,-0.618454,0.666762,3.596838,-1.253909,-8.706413
1790544657.4086,-0.024964,-0.000795,-0.469411,-0.027595,-0.005217,-0.469411,-0.924233,-0.745939,0.422719,3.443526,-0.287229,-8.939280
1790544657.4225,-0.016242,0.013434,-0.466325,-0.019648,0.007839,-0.466325,-1.106354,-0.891636,0.236956,3.673494,0.233291,-9.094525
1790544657.4365,-0.011255,0.029141,-0.463631,-0.013773,0.022750,-0.463631,-1.181631,-0.667020,0.173820,4.440053,0.567911,-8.473546
1790544657.4505,-0.020208,0.037356,-0.465638,-0.018278,0.032975,-0.465638,-0.618269,0.456062,0.103400,4.286742,1.720491,-13.247322
1790544657.4645,-0.031640,0.038707,-0.475329,-0.027631,0.036987,-0.475329,-0.159323,0.850658,-0.637227,3.366870,0.716631,-16.623896
1790544657.4784,-0.010864,0.037199,-0.488412,-0.015894,0.037135,-0.488412,0.249843,-1.334798,-0.954118,-0.044320,3.096151,-7.619700
1790544657.4924,-0.018403,0.030962,-0.502325,-0.017650,0.032814,-0.502325,0.564305,0.419637,-0.585019,2.063719,1.720491,-4.437182
1790544657.5064,-0.016821,0.023786,-0.506404,-0.017070,0.026494,-0.506404,0.475673,0.048110,-0.606873,-0.542584,0.716631,-7.774944
1790544657.5203,-0.000310,0.016759,-0.514290,-0.005338,0.019680,-0.514290,0.524239,-1.044618,-0.771996,-0.504256,1.943571,-10.569350
1790544657.5339,0.001897,0.005830,-0.528592,-0.000274,0.009985,-0.528592,0.774352,-0.058735,-1.093744,1.105519,1.051251,-9.793126
1790544657.5476,0.013405,0.000398,-0.544715,0.009302,0.003274,-0.544715,0.461103,-0.676733,-1.093744,-0.274288,2.315371,-8.939280
1790544657.5616,0.020205,-0.002661,-0.560518,0.016934,-0.000880,-0.560518,0.249843,-0.353771,-1.024538,0.032335,1.683311,-7.658511
1790544657.5756,0.029010,-0.010990,-0.570637,0.025387,-0.007957,-0.570637,0.582517,-0.449688,-0.867914,-1.194160,1.348691,-9.210958
1790544657.5894,0.036680,-0.016970,-0.576950,0.033292,-0.014266,-0.576950,0.480530,-0.369555,-0.549808,-2.343999,2.389731,-10.025993
1790544657.6034,0.017973,-0.014487,-0.588108,0.022569,-0.014421,-0.588108,-0.212746,1.390951,-0.649368,0.913879,1.720491,-15.925294
1790544657.6175,0.019492,-0.002361,-0.583189,0.020415,-0.005979,-0.583189,-0.861097,0.242373,-0.457534,-6.866701,1.980751,-12.199420
1790544657.6315,0.016359,0.002798,-0.576798,0.017576,0.000165,-0.576798,-0.542992,0.519197,-0.360402,-3.417183,-1.253909,-7.697322
1790544657.6460,0.014570,0.009915,-0.571061,0.015472,0.006990,-0.571061,-0.586701,0.452419,-0.175853,-3.187215,-0.138509,-5.368651
1790544657.6600,0.002489,0.020425,-0.572516,0.006384,0.016395,-0.572516,-0.817388,0.922292,-0.003445,-0.542584,0.382011,-6.882287
1790544657.6739,-0.007606,0.032710,-0.567757,-0.003409,0.027815,-0.567757,-0.933946,0.910151,0.166535,-2.727279,0.679451,-8.046623
1790544657.6879,-0.000422,0.030032,-0.566964,-0.001318,0.029367,-0.566964,-0.028196,-0.416907,0.179891,-4.298727,-3.707788,-18.331588
1790544657.7019,0.001585,0.020605,-0.557763,0.000714,0.023234,-0.557763,0.553378,-0.408408,1.102639,1.833751,-0.398769,-16.274595
1790544657.7159,-0.000168,0.014579,-0.542959,0.000097,0.017176,-0.542959,0.349402,-0.072090,1.207055,-0.005993,0.344831,-10.918651
1790544657.7300,-0.000452,0.009854,-0.524095,-0.000288,0.012051,-0.524095,0.410109,-0.093945,1.010364,-0.504256,2.017931,-6.921098
1790544657.7440,-0.014147,0.008400,-0.517050,-0.009989,0.009495,-0.517050,0.247414,0.690391,0.879237,1.680439,2.389731,-5.368651
1790544657.7582,-0.022934,0.000652,-0.508820,-0.019050,0.003305,-0.508820,0.580089,0.386855,0.861025,2.102047,2.426911,-9.987182
1790544657.7719,-0.036106,-0.006075,-0.501738,-0.030989,-0.003261,-0.501738,0.570376,0.711031,0.858596,2.600310,2.910251,-9.133336
1790544657.7856,-0.046542,-0.010875,-0.492755,-0.041876,-0.008591,-0.492755,0.461103,0.613900,0.751752,1.297159,3.542311,-9.249770
1790544657.7996,-0.052533,-0.015762,-0.484741,-0.049336,-0.013611,-0.484741,0.434392,0.254514,0.674047,2.140375,3.505131,-10.142427
1790544657.8136,-0.046516,-0.018853,-0.476053,-0.047362,-0.017280,-0.476053,0.215847,-0.573531,0.607269,1.872079,2.203831,-12.238231
1790544657.8276,-0.041047,-0.016975,-0.472215,-0.042941,-0.017066,-0.472215,-0.110758,-0.551676,0.290378,3.328542,2.649991,-13.247322
1790544657.8415,-0.036723,-0.011873,-0.466671,-0.038588,-0.013431,-0.466671,-0.472572,-0.626953,0.202960,4.861661,-0.361589,-8.434735
1790544657.8555,-0.030920,-0.004625,-0.460275,-0.033220,-0.007267,-0.460275,-0.653479,-0.631810,0.212673,2.830278,-0.621849,-8.007811
1790544657.8694,-0.023178,0.004283,-0.453613,-0.026191,0.000818,-0.453613,-0.804033,-0.698588,0.081545,1.718767,-0.844929,-7.348021
1790544657.8832,-0.015672,0.014161,-0.453735,-0.018827,0.010158,-0.453735,-0.813746,-0.732584,-0.042297,3.021918,-0.138509,-8.706413
1790544657.8977,-0.003596,0.026089,-0.455878,-0.008166,0.021310,-0.455878,-0.906021,-0.992410,-0.204992,3.060246,0.196111,-9.327392
1790544657.9118,-0.018900,0.026263,-0.465704,-0.015680,0.024777,-0.465704,-0.090117,1.042492,-0.534025,4.516709,0.344831,-16.002917
1790544657.9259,-0.026437,0.023030,-0.476671,-0.023210,0.023554,-0.476671,0.241344,0.783880,-0.972330,-1.347472,2.278191,-15.575993
1790544657.9399,-0.003522,0.015298,-0.480017,-0.009428,0.017775,-0.480017,0.605586,-1.200028,-1.115599,-4.950302,2.389731,-10.025993
1790544657.9538,-0.012224,0.006145,-0.486716,-0.011385,0.009634,-0.486716,0.457461,0.600544,-0.650582,1.987063,-1.625708,-7.930189
1790544657.9678,-0.002687,-0.005070,-0.486774,-0.005296,-0.000659,-0.486774,0.714859,-0.486113,-0.757427,-1.539112,-0.064149,-11.617252
1790544657.9818,0.009811,-0.008772,-0.501913,0.005279,-0.006338,-0.501913,0.349402,-0.744725,-0.933477,-0.580912,2.835891,-10.064805
1790544657.9954,0.015282,-0.015474,-0.521315,0.012281,-0.012733,-0.521315,0.519382,-0.300349,-1.145952,0.607255,1.794851,-9.482637
1790544658.0090,0.021324,-0.016457,-0.540868,0.018611,-0.015340,-0.540868,0.166067,-0.344058,-0.943190,0.070663,1.980751,-6.455364
1790544658.0230,0.034363,-0.023491,-0.548534,0.029637,-0.021046,-0.548534,0.509669,-0.782363,-0.741643,-1.270816,1.460231,-9.094525
1790544658.0369,0.047256,-0.029713,-0.563258,0.041970,-0.027113,-0.563258,0.617728,-0.784792,-0.554665,-1.845736,4.323091,-9.405014
1790544658.0510,0.023369,-0.025402,-0.576051,0.028950,-0.025915,-0.576051,-0.311091,1.634993,-0.416253,2.945262,2.129471,-14.489280
1790544658.0649,0.016668,-0.007656,-0.573689,0.020353,-0.013134,-0.573689,-1.277548,0.728029,-0.196493,-6.215126,2.166651,-15.575993
1790544658.0789,0.013966,0.002942,-0.562035,0.015882,-0.001881,-0.562035,-0.994653,0.310364,-0.058081,-1.462456,-2.034688,-7.852567
1790544658.0929,0.014360,0.012567,-0.551763,0.014817,0.008232,-0.551763,-0.878095,0.241158,-0.076293,-3.033903,-1.216729,-6.416553
1790544658.1068,0.001901,0.028360,-0.551452,0.005776,0.022322,-0.551452,-1.237482,0.957502,-0.050796,-0.389272,0.047391,-6.222497
