t,imu_roll,imu_pitch,imu_yaw,lpf_roll,lpf_pitch,lpf_yaw,gyro_x,gyro_y,gyro_z,acc_x,acc_y,acc_z
1790545575.6378,-0.032708,-0.023419,-0.015229,-0.022896,-0.016393,-0.015229,0.019356,0.005293,-0.005071,0.453943,1.423051,-10.142427
1790545575.6532,-0.020567,-0.025965,-0.017468,-0.021266,-0.023094,-0.017468,-0.004926,-0.000778,-0.006285,0.185647,1.348691,-10.103616
1790545575.6671,-0.022777,-0.026988,-0.017131,-0.022324,-0.025820,-0.017131,-0.008569,-0.004420,-0.006285,0.377287,1.311511,-9.870749
1790545575.6809,-0.013454,-0.030076,-0.018351,-0.016115,-0.028799,-0.018351,-0.002498,-0.005634,-0.005071,-0.044320,1.237151,-10.103616
1790545575.6949,-0.017778,-0.029817,-0.018156,-0.017279,-0.029512,-0.018156,0.009643,0.018649,-0.001428,0.453943,1.348691,-10.064805
1790545575.7090,-0.014329,-0.032556,-0.018528,-0.015214,-0.031643,-0.018528,0.013286,0.006507,0.003428,0.070663,1.199971,-10.297672
1790545575.7232,-0.015970,-0.032968,-0.018846,-0.015743,-0.032570,-0.018846,-0.037708,-0.012919,0.005856,0.377287,1.237151,-10.025993
1790545575.7376,-0.011277,-0.030283,-0.017549,-0.012617,-0.030970,-0.017549,-0.140910,-0.037202,0.033782,-0.082648,1.385871,-10.142427
1790545575.7516,-0.007810,-0.027749,-0.015331,-0.009252,-0.028715,-0.015331,-0.165193,-0.028703,0.123628,-0.082648,1.348691,-9.870749
1790545575.7655,-0.006948,-0.022270,-0.010080,-0.007639,-0.024204,-0.010080,-0.233185,-0.076054,0.243828,0.147319,1.571771,-9.754315
1790545575.7796,-0.007898,-0.021214,-0.005317,-0.007821,-0.022111,-0.005317,-0.218615,-0.077269,0.424735,0.300631,1.199971,-9.870749
1790545575.7935,-0.014873,-0.023661,-0.000607,-0.012758,-0.023196,-0.000607,-0.112985,0.033218,0.549792,0.913879,1.014071,-10.646972
1790545575.8075,-0.016359,-0.027648,0.006703,-0.015278,-0.026312,0.006703,-0.041351,-0.004420,0.557077,0.300631,0.753811,-9.249770
1790545575.8215,-0.007749,-0.026862,0.020364,-0.010008,-0.026697,0.020364,-0.134840,-0.152545,0.439305,-0.734224,1.162791,-9.482637
1790545575.8355,0.000974,-0.032941,0.024962,-0.002320,-0.031068,0.024962,-0.023139,-0.241178,0.291180,-0.849208,0.456371,-11.500819
1790545575.8495,-0.000051,-0.036127,0.020934,-0.000732,-0.034609,0.020934,-0.042565,0.008935,0.242614,0.185647,0.790991,-11.306763
1790545575.8634,-0.001922,-0.039663,0.019818,-0.001565,-0.038147,0.019818,0.072779,0.085426,0.264469,0.147319,0.790991,-9.560259
1790545575.8774,-0.001068,-0.045898,0.021060,-0.001217,-0.043572,0.021060,0.218476,-0.027489,0.258398,-0.044320,0.642271,-10.220049
1790545575.8910,-0.003199,-0.045311,0.026217,-0.002605,-0.044790,0.026217,0.030284,0.165560,0.177050,0.070663,1.311511,-9.715504
1790545575.9046,0.000034,-0.041593,0.044351,-0.000758,-0.042552,0.044351,-0.032852,-0.012919,0.146697,-0.465928,1.683311,-9.249770
1790545575.9186,0.001279,-0.037672,0.051811,0.000668,-0.039136,0.051811,-0.070490,-0.154974,0.136984,0.223975,1.757671,-9.560259
1790545575.9325,0.001316,-0.032292,0.056769,0.001122,-0.034345,0.056769,-0.177335,-0.157402,0.138198,0.492271,1.906391,-9.909560
1790545575.9466,0.001914,-0.025084,0.061923,0.001676,-0.027862,0.061923,-0.270823,-0.276388,0.190406,0.760567,2.203831,-10.297672
1790545575.9605,0.001873,-0.019287,0.063867,0.001814,-0.021860,0.063867,-0.284179,-0.287315,0.151553,0.990535,1.943571,-10.414105
1790545575.9747,0.002338,-0.011211,0.065277,0.002181,-0.014406,0.065277,-0.332745,-0.179257,0.022854,0.645583,2.649991,-11.306763
1790545575.9890,-0.002911,-0.018629,0.060355,-0.001383,-0.017362,0.060355,0.575434,0.448455,-0.267326,-0.005993,2.129471,-13.014455
1790545576.0031,0.001682,-0.010633,0.041165,0.000762,-0.012652,0.041165,0.400597,0.127921,-0.636425,-1.309144,5.215411,-9.366203
1790545576.0173,0.013420,-0.010286,-0.000710,0.009622,-0.010996,-0.000710,0.226975,-0.059056,-0.955744,-1.960720,2.055111,-7.969000
1790545576.0313,0.018806,-0.010084,-0.013334,0.016051,-0.010358,-0.013334,0.131058,-0.137976,-1.244710,-0.350944,2.166651,-10.220049
1790545576.0452,0.013369,-0.003853,0.036683,0.014174,-0.005804,0.036683,-0.034066,-0.032345,-1.319987,1.833751,2.612811,-7.774944
1790545576.0592,0.010323,-0.006343,-0.009485,0.011478,-0.006181,-0.009485,-0.140910,0.611150,-1.311488,-0.657568,0.270471,-9.987182
1790545576.0732,0.019837,-0.007742,-0.062620,0.017329,-0.007273,-0.062620,-0.024353,-0.061485,-1.360053,-1.692424,1.051251,-9.560259
1790545576.0872,0.022461,-0.016613,-0.107815,0.020922,-0.013811,-0.107815,0.260971,0.132778,-1.435330,-0.580912,-0.064149,-11.190329
1790545576.1010,0.016805,-0.006669,-0.096203,0.018040,-0.008812,-0.096203,-0.309676,0.568655,-1.625951,0.223975,3.319231,-9.482637
1790545576.1146,0.012926,-0.002406,-0.113716,0.014460,-0.004327,-0.113716,-0.370383,0.415673,-1.498466,0.492271,1.460231,-10.685784
1790545576.1283,0.006158,0.001281,-0.124311,0.008649,-0.000402,-0.124311,-0.256254,0.571083,-1.384336,0.645583,1.460231,-8.628791
1790545576.1425,0.003969,0.001680,-0.135764,0.005373,0.001056,-0.135764,-0.087488,0.205626,-1.072302,0.607255,1.162791,-8.861658
1790545576.1565,0.000533,0.003101,-0.139287,0.001985,0.002487,-0.139287,-0.068062,0.246907,-0.755411,0.645583,1.608951,-8.978091
1790545576.1706,-0.002526,0.005100,-0.145112,-0.001172,0.004316,-0.145112,-0.093559,0.290616,-0.545364,0.223975,1.832031,-9.637881
1790545576.1845,-0.005341,0.012036,-0.154379,-0.004090,0.009720,-0.154379,-0.207688,0.419316,-0.579360,-0.465928,3.282051,-9.870749
1790545576.1985,0.003158,0.000281,-0.159547,0.000983,0.003113,-0.159547,0.770910,-0.573853,-0.349887,0.223975,1.646131,-13.324944
1790545576.2124,-0.007005,-0.001763,-0.128420,-0.004609,-0.000300,-0.128420,0.308322,0.279689,0.157624,2.868606,2.835891,-11.112707
1790545576.2265,-0.011212,-0.006407,-0.125999,-0.009231,-0.004575,-0.125999,0.224546,0.256620,0.508511,0.032335,1.088431,-10.763406
1790545576.2414,-0.011496,-0.017346,-0.111426,-0.010816,-0.013515,-0.111426,0.576648,-0.163473,0.966243,0.415615,0.567911,-9.482637
1790545576.2559,-0.019977,-0.026423,-0.098286,-0.017228,-0.022551,-0.098286,0.362959,0.380463,1.107083,0.415615,-0.064149,-6.649420
1790545576.2703,-0.013309,-0.029261,-0.121252,-0.014485,-0.027248,-0.121252,0.090991,-0.108836,1.124081,-2.612295,0.828171,-8.822846
1790545576.2843,-0.007508,-0.037759,-0.136568,-0.009601,-0.034606,-0.136568,0.297395,-0.091838,0.933461,-2.803935,-0.547489,-10.724595
1790545576.2986,-0.007747,-0.041469,-0.134169,-0.008303,-0.039410,-0.134169,0.081278,-0.031131,0.937103,-0.274288,0.233291,-11.190329
1790545576.3129,-0.015337,-0.050315,-0.130778,-0.013227,-0.047044,-0.130778,0.406668,0.345253,1.033021,0.683911,-0.101329,-9.870749
1790545576.3269,-0.022771,-0.059667,-0.120466,-0.019908,-0.055880,-0.120466,0.568149,0.363465,1.065802,0.607255,0.530731,-8.939280
1790545576.3411,-0.029523,-0.063776,-0.093790,-0.026639,-0.061407,-0.093790,0.394526,0.516447,1.025736,-0.427600,1.534591,-8.124245
1790545576.3546,-0.031978,-0.064725,-0.067583,-0.030376,-0.063730,-0.067583,0.183266,0.361037,0.876396,-1.232488,1.757671,-9.210958
1790545576.3684,-0.032270,-0.065223,-0.052411,-0.031702,-0.064775,-0.052411,0.090991,0.158275,0.683348,-0.964192,1.534591,-10.181238
1790545576.3824,-0.032676,-0.067066,-0.051235,-0.032384,-0.066379,-0.051235,0.055781,0.012578,0.496370,0.262303,0.716631,-12.005364
1790545576.3963,-0.032647,-0.068815,-0.038077,-0.032568,-0.068084,-0.038077,0.146841,-0.220537,0.365242,2.025391,1.348691,-11.656063
1790545576.4104,-0.026024,-0.066679,-0.038330,-0.027987,-0.067101,-0.038330,-0.251397,-0.628489,0.238972,1.450471,0.344831,-10.802217
1790545576.4243,-0.026750,-0.059912,-0.036942,-0.027121,-0.062069,-0.036942,-0.672705,-0.389303,0.117557,4.171758,-0.435949,-11.345574
1790545576.4383,-0.024350,-0.047460,-0.030925,-0.025181,-0.051842,-0.030925,-1.033305,-0.695267,0.019212,3.405198,-0.026969,-7.425644
1790545576.4524,-0.016548,-0.035950,-0.030521,-0.019138,-0.040718,-0.030521,-1.002951,-0.980590,-0.142269,2.370342,-0.138509,-6.300119
1790545576.4663,-0.006643,-0.024141,-0.034930,-0.010391,-0.029114,-0.034930,-0.900963,-1.014586,-0.181121,2.025391,0.716631,-7.580888
1790545576.4805,-0.000265,-0.011441,-0.043167,-0.003303,-0.016743,-0.043167,-0.914319,-0.774186,-0.369313,2.830278,1.162791,-8.939280
1790545576.4949,-0.006157,-0.016369,-0.039335,-0.005301,-0.016481,-0.039335,0.179623,0.484879,-0.734770,0.837223,0.196111,-16.662707
1790545576.5089,-0.003532,-0.016976,-0.061216,-0.004063,-0.016828,-0.061216,0.158983,0.067214,-1.211928,-0.695896,2.984611,-13.402567
1790545576.5228,0.003304,-0.017314,-0.088246,0.001094,-0.017168,-0.088246,0.112845,-0.442725,-1.294490,1.220503,2.166651,-10.608161
1790545576.5368,0.009278,-0.018533,-0.105621,0.006823,-0.018124,-0.105621,0.171124,-0.226608,-0.913249,-0.350944,1.237151,-5.912007
1790545576.5508,0.010866,-0.029327,-0.109427,0.009653,-0.025966,-0.109427,0.712632,-0.029917,-0.675277,0.070663,0.828171,-9.948371
1790545576.5647,0.020256,-0.035009,-0.130575,0.017075,-0.032296,-0.130575,0.556007,-0.350451,-1.088086,-1.577440,2.352551,-9.094525
1790545576.5782,0.027024,-0.037230,-0.158066,0.024039,-0.035750,-0.158066,0.350817,-0.408729,-1.228926,0.300631,2.798711,-9.521448
1790545576.5919,0.023956,-0.039096,-0.174142,0.023981,-0.038092,-0.174142,0.279183,0.127921,-1.017665,1.718767,2.501271,-9.482637
1790545576.6059,0.030478,-0.044681,-0.190996,0.028529,-0.042704,-0.190996,0.434593,-0.355307,-0.935104,-0.197632,1.534591,-9.560259
1790545576.6197,0.035995,-0.052314,-0.211024,0.033755,-0.049431,-0.211024,0.681064,-0.292172,-0.660708,-0.619240,2.612811,-11.267951
1790545576.6336,0.018855,-0.049460,-0.222543,0.023325,-0.049451,-0.222543,-0.189476,1.305639,-0.496798,-0.312616,2.203831,-16.352217
1790545576.6476,0.018369,-0.036488,-0.226537,0.019856,-0.040377,-0.226537,-0.910676,0.497021,-0.547792,-5.525222,2.092291,-14.101168
1790545576.6616,0.019103,-0.027243,-0.193469,0.019329,-0.031183,-0.193469,-0.993238,0.437528,-0.455518,-2.803935,-1.253909,-6.338930
1790545576.6756,0.008712,-0.014465,-0.198865,0.011897,-0.019480,-0.198865,-1.109796,0.924399,-0.324390,-0.465928,-0.138509,-4.049070
1790545576.6894,-0.003386,-0.000966,-0.203697,0.001199,-0.006521,-0.203697,-0.864539,0.794485,-0.295251,0.760567,1.423051,-5.329839
1790545576.7034,0.003674,-0.009698,-0.201811,0.002931,-0.008745,-0.201811,0.403025,-0.424513,-0.127699,-1.117504,-1.179549,-20.388581
1790545576.7186,-0.003735,-0.012715,-0.194382,-0.001735,-0.011524,-0.194382,0.194193,0.256620,0.627497,2.523654,2.352551,-15.614805
1790545576.7336,-0.016308,-0.016713,-0.181302,-0.011936,-0.015156,-0.181302,0.286468,0.660930,1.053661,0.607255,1.906391,-10.220049
1790545576.7483,-0.011957,-0.028696,-0.158107,-0.011951,-0.024634,-0.158107,0.501371,-0.101551,0.700346,-1.692424,-1.068009,-5.834385
1790545576.7627,-0.014976,-0.040192,-0.140531,-0.014068,-0.035525,-0.140531,0.721131,0.667000,0.506083,-1.654096,0.121751,-2.923546
1790545576.7780,-0.033449,-0.052282,-0.133851,-0.027635,-0.047255,-0.133851,0.761197,1.083451,0.746483,1.067191,1.162791,-11.462007
1790545576.7923,-0.043630,-0.059191,-0.110447,-0.038831,-0.055610,-0.110447,0.621571,0.699782,0.927390,-0.235960,2.612811,-9.094525
1790545576.8082,-0.053134,-0.064540,-0.088044,-0.048843,-0.061861,-0.088044,0.410310,0.569869,0.952887,-0.082648,2.352551,-9.715504
1790545576.8219,-0.056247,-0.067474,-0.068816,-0.054026,-0.065790,-0.068816,0.282825,0.210483,0.945602,-0.044320,2.129471,-9.599070
1790545576.8359,-0.056895,-0.070958,-0.054578,-0.056034,-0.069408,-0.054578,0.267041,0.058715,0.810833,-0.235960,1.794851,-10.841028
1790545576.8499,-0.050423,-0.074725,-0.051620,-0.052106,-0.073130,-0.051620,0.145627,-0.471865,0.751340,-0.005993,0.196111,-12.199420
1790545576.8639,-0.045115,-0.072670,-0.044420,-0.047212,-0.072808,-0.044420,-0.224686,-0.504647,0.694275,1.527127,0.679451,-12.665154
1790545576.8778,-0.040311,-0.068249,-0.061873,-0.042382,-0.069616,-0.061873,-0.576787,-0.655200,0.719772,2.983590,-1.328269,-9.560259
1790545576.8918,-0.037643,-0.061480,-0.066906,-0.039064,-0.063921,-0.066906,-0.670276,-0.501004,0.580146,2.906934,-0.621849,-9.055714
1790545576.9058,-0.026750,-0.048950,-0.067692,-0.030444,-0.053441,-0.067692,-1.009022,-1.095934,0.398024,2.868606,0.084571,-8.589979
1790545576.9200,-0.012473,-0.033198,-0.067978,-0.017864,-0.039271,-0.067978,-1.181430,-1.307195,0.211046,3.251886,0.605091,-10.103616
1790545576.9337,-0.002943,-0.015871,-0.064721,-0.007419,-0.022891,-0.064721,-1.330770,-1.112932,0.140626,4.056774,0.567911,-8.628791
1790545576.9478,0.005435,0.003242,-0.070403,0.001579,-0.004598,-0.070403,-1.318628,-0.983019,-0.023283,3.175230,1.497411,-6.882287
1790545576.9618,-0.006833,-0.001956,-0.072145,-0.004310,-0.002749,-0.072145,0.372672,1.011817,-0.287966,-0.772552,1.794851,-11.190329
1790545576.9758,0.002799,-0.006985,-0.071875,0.000666,-0.005714,-0.071875,0.427308,-0.283673,-1.009166,-3.800463,3.021791,-13.480189
1790545576.9903,0.017366,-0.006940,-0.076222,0.012356,-0.006572,-0.076222,0.144413,-0.583566,-0.948459,-3.187215,2.984611,-8.628791
1790545577.0048,0.012016,-0.012497,-0.087394,0.012118,-0.010720,-0.087394,0.372672,0.293045,-0.525938,1.565455,1.199971,-8.473546
1790545577.0190,0.021888,-0.017396,-0.091972,0.018957,-0.015393,-0.091972,0.378743,-0.372305,-0.740841,-2.458983,1.720491,-9.016902
1790545577.0329,0.035272,-0.026944,-0.099111,0.030378,-0.023478,-0.099111,0.711417,-0.573853,-0.948459,-2.957247,1.608951,-8.745224
1790545577.0469,0.040384,-0.035550,-0.115346,0.037382,-0.031929,-0.115346,0.730844,-0.343166,-1.074730,0.722239,2.092291,-7.037532
1790545577.0606,0.046243,-0.037523,-0.133130,0.043585,-0.035845,-0.133130,0.395741,-0.307956,-1.094156,-0.120976,2.798711,-5.795574
1790545577.0747,0.051959,-0.043731,-0.143927,0.049446,-0.041365,-0.143927,0.400597,-0.363806,-1.001882,0.377287,0.939711,-8.163056
1790545577.0887,0.038790,-0.050628,-0.154723,0.041987,-0.047849,-0.154723,0.418809,0.998461,-0.846471,0.415615,0.902531,-14.450469
1790545577.1027,0.021020,-0.039393,-0.170588,0.027310,-0.041930,-0.170588,-0.744339,1.393057,-0.780908,-0.772552,4.174371,-19.573546
1790545577.1169,0.028757,-0.025237,-0.187871,0.028323,-0.030245,-0.187871,-1.180216,-0.101551,-0.728700,-4.375383,-0.956469,-9.172147
1790545577.1310,0.022036,-0.007881,-0.200984,0.023922,-0.014590,-0.200984,-1.313772,0.826053,-0.674063,-1.615768,0.344831,-5.174595
1790545577.1450,0.010493,0.002979,-0.218539,0.014522,-0.002292,-0.218539,-1.023592,1.025172,-0.559934,-0.504256,-0.547489,-4.437182
1790545577.1590,0.005692,0.011884,-0.212898,0.008341,0.007631,-0.212898,-0.592571,0.748348,-0.623069,-2.535639,1.497411,-6.843476
1790545577.1730,0.020275,-0.000773,-0.220174,0.016695,0.001748,-0.220174,0.830403,-0.902885,-0.363243,-1.692424,1.125611,-14.489280
1790545577.1870,0.011108,0.000215,-0.204659,0.012784,0.000675,-0.204659,0.060637,0.452097,0.489085,2.715294,5.178231,-15.925294
1790545577.2009,0.007306,-0.001627,-0.195411,0.008950,-0.000936,-0.195411,0.105561,0.146134,0.833901,-0.044320,1.348691,-10.297672
1790545577.2149,0.010699,-0.008081,-0.181598,0.010174,-0.005938,-0.181598,0.464947,-0.280030,0.850899,-0.849208,1.125611,-6.959909
1790545577.2288,-0.000117,-0.014344,-0.190779,0.002970,-0.011822,-0.190779,0.270684,0.630576,0.654208,0.683911,-0.547489,-8.473546
1790545577.2428,-0.018601,-0.026394,-0.184108,-0.012130,-0.022022,-0.184108,0.825547,1.091950,0.894608,1.680439,1.199971,-10.336483
1790545577.2573,-0.028107,-0.043551,-0.170717,-0.023314,-0.037093,-0.170717,1.091444,0.637861,1.009952,-0.964192,0.382011,-10.258860
1790545577.2710,-0.043084,-0.048615,-0.146042,-0.037153,-0.045158,-0.146042,0.449163,0.957180,1.125295,0.760567,2.835891,-10.569350
1790545577.2847,-0.044228,-0.052220,-0.119151,-0.042106,-0.050101,-0.119151,0.296181,0.175273,1.071873,-2.152360,2.241011,-10.258860
1790545577.2987,-0.042234,-0.052136,-0.097018,-0.042196,-0.051526,-0.097018,0.010857,-0.254533,1.040305,0.568927,2.278191,-11.384385
1790545577.3129,-0.035682,-0.053442,-0.094141,-0.037636,-0.052867,-0.094141,-0.046207,-0.570210,0.855756,0.683911,-0.064149,-11.423196
1790545577.3268,-0.032820,-0.048951,-0.080701,-0.034265,-0.050126,-0.080701,-0.336387,-0.480364,0.865469,2.676966,1.423051,-9.676693
1790545577.3408,-0.027317,-0.041608,-0.075473,-0.029401,-0.044163,-0.075473,-0.635066,-0.653986,0.824188,2.523654,0.233291,-10.181238
1790545577.3547,-0.022712,-0.031066,-0.071896,-0.024719,-0.034995,-0.071896,-0.834185,-0.752332,0.552220,6.011501,0.567911,-11.306763
1790545577.3688,-0.006281,-0.015068,-0.067483,-0.011812,-0.021046,-0.067483,-1.221497,-1.406754,0.332461,2.332014,0.456371,-9.133336
1790545577.3828,0.000244,0.002974,-0.061912,-0.003373,-0.004232,-0.061912,-1.376907,-0.898029,0.198905,4.095102,0.196111,-6.804665
1790545577.3968,0.012169,0.020724,-0.063002,0.007506,0.013237,-0.063002,-1.271277,-1.139643,0.116343,2.906934,1.497411,-8.434735
1790545577.4109,0.005579,0.018295,-0.049344,0.006157,0.016778,-0.049344,-0.032852,0.305186,-0.128913,4.248414,-1.439808,-15.653616
1790545577.4247,0.000206,0.012842,-0.057805,0.001991,0.014023,-0.057805,0.399383,0.572297,-0.726271,-0.657568,2.278191,-12.898021
1790545577.4387,0.016023,0.004624,-0.084127,0.011813,0.007444,-0.084127,0.825547,-0.806968,-1.033449,-2.190688,4.397451,-8.512357
1790545577.4525,0.007514,-0.001389,-0.096478,0.008804,0.001261,-0.096478,0.440664,0.391390,-0.583002,3.481854,1.274331,-7.386832
1790545577.4665,0.014483,-0.008620,-0.101540,0.012779,-0.005656,-0.101540,0.508656,-0.361378,-0.598786,-0.657568,1.385871,-9.637881
1790545577.4805,0.029544,-0.018114,-0.116286,0.024514,-0.014376,-0.116286,0.722345,-0.879817,-0.946031,-1.309144,2.575631,-11.927742
1790545577.4942,0.036933,-0.028346,-0.139688,0.033207,-0.024155,-0.139688,0.814620,-0.383232,-1.185217,-0.235960,2.315371,-9.172147
1790545577.5084,0.040834,-0.031707,-0.171835,0.038546,-0.029442,-0.171835,0.444306,-0.133119,-1.168219,-0.120976,3.467951,-7.153965
1790545577.5225,0.044903,-0.037674,-0.190005,0.042996,-0.035204,-0.190005,0.415167,-0.154974,-1.147579,-0.159304,1.311511,-8.007811
1790545577.5365,0.049080,-0.046707,-0.207297,0.047255,-0.043256,-0.207297,0.637355,-0.146475,-1.028593,-0.695896,1.311511,-8.628791
1790545577.5506,0.034342,-0.050676,-0.228273,0.038216,-0.048450,-0.228273,0.352031,1.184225,-0.825831,-1.347472,4.471811,-18.059910
1790545577.5645,0.023813,-0.041361,-0.219499,0.028134,-0.043488,-0.219499,-0.706701,1.151443,-0.616998,-8.016541,1.423051,-16.196973
1790545577.5785,0.025204,-0.027474,-0.216696,0.026083,-0.032278,-0.216696,-1.086727,0.274833,-0.546578,-5.640206,-0.026969,-11.966553
1790545577.5926,0.021810,-0.011500,-0.216741,0.023092,-0.017733,-0.216741,-1.246994,0.667000,-0.460374,-2.382327,-0.064149,-4.204315
1790545577.6065,0.004584,0.012594,-0.173923,0.010136,0.003496,-0.173923,-1.263992,0.998461,-0.405738,1.258831,2.278191,-1.642776
1790545577.6205,0.002603,0.020806,-0.232723,0.004863,0.015613,-0.232723,-0.720056,0.577154,-0.636425,-2.190688,-0.064149,-4.980539
1790545577.6345,0.014491,0.015553,-0.243159,0.011603,0.015571,-0.243159,0.318035,-0.702552,-0.461588,-1.999048,1.832031,-18.603266
1790545577.6485,0.014483,0.014457,-0.231782,0.013619,0.014791,-0.231782,0.117702,-0.133119,0.464802,0.913879,3.207691,-13.868301
1790545577.6624,0.006789,0.012452,-0.222382,0.008838,0.013154,-0.222382,0.081278,0.398675,0.850899,0.262303,1.014071,-11.617252
1790545577.6765,0.001701,0.003295,-0.213257,0.003842,0.006253,-0.213257,0.426094,0.188629,0.787764,0.568927,-1.253909,-8.395923
1790545577.6905,-0.012071,-0.008627,-0.204832,-0.007297,-0.004163,-0.204832,0.868042,0.863692,0.645709,0.607255,1.832031,-9.676693
1790545577.7045,-0.031531,-0.018304,-0.192929,-0.024261,-0.014062,-0.192929,0.698062,1.190296,0.761053,1.488799,1.460231,-8.046623
1790545577.7184,-0.046645,-0.027082,-0.180428,-0.039929,-0.023176,-0.180428,0.719916,1.005746,0.946817,0.070663,3.282051,-10.258860
1790545577.7320,-0.057315,-0.034268,-0.167736,-0.052099,-0.030940,-0.167736,0.534153,0.696140,1.077944,0.032335,2.464091,-10.996273
1790545577.7458,-0.057039,-0.037387,-0.150141,-0.055557,-0.035453,-0.150141,0.284039,-0.125834,1.127724,0.185647,3.505131,-10.802217
1790545577.7604,-0.045311,-0.036521,-0.134954,-0.048385,-0.036200,-0.134954,-0.146981,-0.921097,1.108297,0.108991,1.199971,-11.112707
1790545577.7744,-0.040928,-0.032525,-0.113044,-0.043165,-0.033628,-0.113044,-0.411664,-0.566568,0.916463,2.753622,0.196111,-11.267951
1790545577.7886,-0.037833,-0.033073,-0.090660,-0.039433,-0.033240,-0.090660,-0.150623,-0.515574,0.877610,3.405198,-0.956469,-10.763406
1790545577.8026,-0.031768,-0.027811,-0.074314,-0.034067,-0.029439,-0.074314,-0.442018,-0.707408,0.717344,2.523654,0.753811,-8.395923
1790545577.8166,-0.024895,-0.017941,-0.059350,-0.027647,-0.021391,-0.059350,-0.825686,-0.776614,0.571647,3.060246,0.010211,-9.172147
1790545577.8305,-0.017081,-0.003634,-0.047810,-0.020251,-0.008961,-0.047810,-1.148648,-0.850677,0.467230,4.018446,0.084571,-11.850119
1790545577.8445,-0.004655,0.011222,-0.040051,-0.009334,0.005167,-0.040051,-1.155933,-1.148142,0.272968,2.868606,0.419191,-9.133336
1790545577.8585,0.006277,0.026019,-0.037119,0.001594,0.019763,-0.037119,-1.125580,-1.051011,0.192834,2.715294,0.679451,-8.046623
1790545577.8724,0.004493,0.029824,-0.036369,0.003623,0.026806,-0.036369,-0.332745,0.033218,-0.182336,2.983590,1.608951,-15.149070
1790545577.8863,-0.001141,0.020254,-0.046068,0.000288,0.022220,-0.046068,0.683492,0.643932,-0.771195,-1.424128,2.129471,-12.820399
1790545577.9003,0.015427,0.007679,-0.060177,0.010885,0.012041,-0.060177,0.892325,-0.855534,-1.268993,-2.305671,1.980751,-12.665154
1790545577.9143,0.013799,0.003811,-0.136110,0.012925,0.006280,-0.136110,0.525654,-0.079697,-0.785764,3.251886,3.021791,-5.252217
1790545577.9283,0.020637,-0.003584,-0.132845,0.018324,-0.000625,-0.132845,0.458876,-0.317669,-0.643710,-1.270816,0.716631,-10.646972
1790545577.9423,0.039863,-0.017296,-0.139257,0.033401,-0.012294,-0.139257,0.942104,-1.038869,-1.046805,-4.030431,1.646131,-13.053266
1790545577.9560,0.056624,-0.029357,-0.172322,0.049657,-0.024238,-0.172322,1.039236,-0.975734,-1.171861,-1.577440,3.393591,-7.891378
1790545577.9697,0.062765,-0.034074,-0.196357,0.058833,-0.031123,-0.196357,0.507442,-0.368663,-1.184003,0.415615,3.542311,-7.580888
1790545577.9836,0.052365,-0.038513,-0.210679,0.054305,-0.036296,-0.210679,0.479516,0.764132,-0.984884,1.143847,3.914111,-8.357112
1790545577.9976,0.028848,-0.037487,-0.211421,0.036485,-0.037129,-0.211421,-0.172478,1.734231,-0.995811,1.297159,0.679451,-15.149070
1790545578.0123,0.031028,-0.030303,-0.215970,0.032665,-0.032351,-0.215970,-0.613212,0.206841,-0.926605,-6.176798,-0.621849,-14.799770
1790545578.0262,0.030604,-0.021084,-0.215774,0.031222,-0.024464,-0.215774,-0.828115,0.301544,-0.740841,-3.263871,-1.030829,-11.694875
1790545578.0403,0.019252,-0.001040,-0.235651,0.022843,-0.008067,-0.235651,-1.363551,1.003318,-0.547792,-0.734224,1.237151,-4.514804
1790545578.0543,0.014197,0.017336,-0.239127,0.016791,0.009715,-0.239127,-1.471610,0.733778,-0.703203,-2.075704,-0.398769,-5.252217
1790545578.0682,0.001873,0.030510,-0.253009,0.006349,0.024272,-0.253009,-1.039375,1.190296,-0.820974,-1.079176,0.270471,-5.679140
1790545578.0822,-0.005393,0.038415,-0.266008,-0.001871,0.034172,-0.266008,-0.544005,0.759275,-0.624283,-1.807408,2.798711,-12.703965
1790545578.0961,0.002730,0.032563,-0.264561,0.001350,0.033046,-0.264561,0.370244,-0.587208,-0.062136,0.185647,2.055111,-17.244875
1790545578.1100,-0.004263,0.028729,-0.253971,-0.002579,0.030024,-0.253971,0.286468,0.297901,0.651780,2.217030,3.319231,-15.149070
1790545578.1239,-0.013440,0.025298,-0.239139,-0.010182,0.026716,-0.239139,0.264613,0.385320,0.979598,1.488799,2.092291,-8.551168
1790545578.1377,-0.013204,0.010442,-0.227723,-0.012298,0.015324,-0.227723,0.923892,-0.004420,0.657851,-1.309144,-0.250049,-7.580888
1790545578.1517,-0.030387,-0.001258,-0.220276,-0.024960,0.003717,-0.220276,0.806121,1.083451,0.643281,1.488799,1.497411,-11.384385
1790545578.1656,-0.044476,-0.010695,-0.213321,-0.038621,-0.006371,-0.213321,0.682278,0.952324,0.730699,-0.120976,2.092291,-10.258860
1790545578.1797,-0.052488,-0.016687,-0.204820,-0.048328,-0.013592,-0.204820,0.540223,0.469095,0.830259,0.338959,3.170511,-7.852567
1790545578.1932,-0.059159,-0.021476,-0.194720,-0.055910,-0.019111,-0.194720,0.384813,0.363465,0.848471,0.913879,2.798711,-10.336483
1790545578.2069,-0.062803,-0.025672,-0.185062,-0.060735,-0.023704,-0.185062,0.337462,0.169202,0.887324,0.492271,3.282051,-11.811308
1790545578.2208,-0.057919,-0.028092,-0.171524,-0.058764,-0.026776,-0.171524,0.097062,-0.482792,0.849685,1.067191,1.385871,-12.082986
1790545578.2348,-0.052799,-0.025581,-0.158118,-0.054589,-0.025940,-0.158118,-0.228329,-0.518002,0.668778,1.718767,1.534591,-11.306763
1790545578.2488,-0.048225,-0.022694,-0.135279,-0.050134,-0.023667,-0.135279,-0.349743,-0.595707,0.600786,3.098574,-0.212869,-8.939280
1790545578.2634,-0.041763,-0.014419,-0.117913,-0.044275,-0.017193,-0.117913,-0.670276,-0.752332,0.509725,3.290214,0.233291,-7.386832
1790545578.2775,-0.031271,-0.003397,-0.108559,-0.035172,-0.007536,-0.108559,-0.824472,-0.910170,0.332461,1.795423,1.162791,-8.861658
1790545578.2914,-0.022964,0.009002,-0.101036,-0.026627,0.004041,-0.101036,-0.939816,-0.799683,0.170980,3.175230,1.162791,-10.685784
1790545578.3055,-0.010338,0.026032,-0.097745,-0.015224,0.019434,-0.097745,-1.244565,-1.093506,-0.020855,3.443526,1.497411,-10.802217
1790545578.3195,-0.003220,0.039308,-0.088766,-0.006821,0.033346,-0.088766,-1.062444,-0.640631,-0.215117,3.098574,0.344831,-11.578441
1790545578.3335,-0.012297,0.035943,-0.087922,-0.010655,0.035164,-0.087922,0.150484,0.821197,-0.711702,0.032335,0.567911,-12.160609
1790545578.3475,-0.010037,0.030522,-0.108708,-0.010222,0.031915,-0.108708,0.422452,0.189843,-1.275063,-1.807408,2.649991,-13.053266
1790545578.3614,-0.000966,0.025116,-0.167543,-0.003743,0.027156,-0.167543,0.639783,-0.497362,-1.224070,0.683911,2.947431,-5.252217
1790545578.3754,-0.002106,0.019175,-0.175139,-0.002597,0.021569,-0.175139,0.440664,0.022291,-0.799120,2.868606,1.646131,-8.124245
1790545578.3902,0.011340,0.013323,-0.183618,0.007159,0.015797,-0.183618,0.372672,-0.709837,-0.915677,-0.849208,1.497411,-11.073895
1790545578.4044,0.022754,0.005053,-0.205061,0.018075,0.008276,-0.205061,0.607001,-0.541071,-1.184003,-1.385800,2.315371,-10.996273
1790545578.4182,0.026764,-0.000047,-0.236334,0.024157,0.002450,-0.236334,0.463732,-0.100337,-1.259280,0.070663,3.244871,-9.870749
1790545578.4318,0.030730,-0.000061,-0.275408,0.028758,0.000692,-0.275408,0.179623,-0.100337,-1.260494,0.032335,3.207691,-6.688231
1790545578.4458,0.032696,-0.007106,-0.278127,0.031514,-0.004767,-0.278127,0.417595,-0.012919,-1.082015,0.300631,0.530731,-7.697322
1790545578.4598,0.037750,-0.013088,-0.299466,0.035879,-0.010591,-0.299466,0.460090,-0.192612,-0.963029,-0.504256,1.757671,-7.658511
1790545578.4737,0.025761,-0.009273,-0.317337,0.028797,-0.009669,-0.317337,-0.248969,0.991176,-0.709273,-0.657568,4.174371,-19.301868
1790545578.4876,0.017439,0.006285,-0.329323,0.020846,0.001499,-0.329323,-1.137721,0.898902,-0.491942,-5.141942,2.166651,-14.683336
1790545578.5017,0.012998,0.021770,-0.325515,0.015352,0.015689,-0.325515,-1.185072,0.679142,-0.448233,-4.605350,0.493551,-9.599070
1790545578.5161,0.003356,0.035643,-0.336976,0.006955,0.029656,-0.336976,-0.897321,1.059168,-0.372956,-2.535639,1.423051,-4.475993
1790545578.5300,-0.001560,0.043736,-0.349773,0.000995,0.039512,-0.349773,-0.562218,0.640289,-0.364457,-1.309144,0.939711,-4.087881
1790545578.5440,0.017762,0.034709,-0.352388,0.012732,0.036150,-0.352388,0.562078,-1.172425,-0.267326,-3.723807,0.753811,-12.471098
1790545578.5580,0.010060,0.031824,-0.325169,0.010862,0.033122,-0.325169,0.287682,0.286974,0.565576,3.865134,4.880791,-14.760958
1790545578.5720,-0.003967,0.023687,-0.320111,0.000482,0.026518,-0.320111,0.485587,0.957180,0.875182,-2.037376,0.605091,-13.635434
1790545578.5859,-0.008491,0.017179,-0.298027,-0.005799,0.019980,-0.298027,0.452805,0.029576,1.348698,1.143847,2.129471,-11.267951
1790545578.5998,-0.011419,0.007285,-0.284429,-0.009733,0.011094,-0.284429,0.543866,0.109709,1.079158,-0.657568,-0.324409,-5.795574
1790545578.6138,-0.022016,0.004176,-0.261180,-0.018331,0.006251,-0.261180,0.212405,0.443598,1.142293,1.833751,1.497411,-7.580888
1790545578.6277,-0.034575,-0.005524,-0.242552,-0.029702,-0.001991,-0.242552,0.638569,0.662144,1.297704,0.952207,1.125611,-8.434735
1790545578.6414,-0.042747,-0.012144,-0.227094,-0.038833,-0.009098,-0.227094,0.532939,0.416887,1.281920,0.377287,2.910251,-8.939280
1790545578.6551,-0.047888,-0.014950,-0.216400,-0.045172,-0.013194,-0.216400,0.229403,0.293045,1.186003,-0.772552,2.835891,-9.793126
1790545578.6687,-0.051849,-0.018491,-0.203876,-0.049846,-0.016902,-0.203876,0.190550,0.169202,1.121653,0.032335,1.534591,-10.996273
1790545578.6828,-0.045819,-0.020310,-0.191849,-0.047027,-0.019288,-0.191849,0.035140,-0.530144,0.931033,-0.005993,0.976891,-11.306763
1790545578.6968,-0.040542,-0.017418,-0.174399,-0.042488,-0.017979,-0.174399,-0.286607,-0.570210,0.838758,1.910407,1.162791,-12.199420
1790545578.7107,-0.035961,-0.015096,-0.151888,-0.037919,-0.015960,-0.151888,-0.327888,-0.565354,0.680919,2.983590,-0.659029,-11.578441
1790545578.7246,-0.028484,-0.008154,-0.133961,-0.031315,-0.010496,-0.133961,-0.596214,-0.794827,0.531580,2.523654,0.382011,-8.240679
1790545578.7386,-0.018938,0.000811,-0.121572,-0.022651,-0.002581,-0.121572,-0.726127,-0.832465,0.391954,1.143847,0.382011,-7.309210
1790545578.7527,-0.009983,0.011349,-0.112349,-0.013783,0.007170,-0.112349,-0.813545,-0.813039,0.208618,1.910407,0.679451,-8.201867
1790545578.7672,-0.002886,0.023111,-0.109458,-0.006155,0.018328,-0.109458,-0.848755,-0.663699,-0.040281,3.941790,1.608951,-12.859210
1790545578.7813,-0.006931,0.026001,-0.111181,-0.006698,0.023699,-0.111181,-0.269609,0.291831,-0.489514,2.600310,1.162791,-15.964105
1790545578.7952,-0.006645,0.021725,-0.126849,-0.006661,0.022318,-0.126849,0.335033,0.217768,-0.998239,-0.619240,1.943571,-9.676693
1790545578.8095,0.005797,0.012208,-0.154332,0.002059,0.015241,-0.154332,0.741771,-0.482792,-1.226498,-2.114032,1.869211,-6.804665
1790545578.8249,0.012484,0.006100,-0.170858,0.009356,0.008842,-0.170858,0.481945,-0.337095,-0.721415,0.223975,2.055111,-6.377742
1790545578.8393,0.020356,-0.002238,-0.182584,0.017056,0.001086,-0.182584,0.556007,-0.335881,-0.813689,-1.807408,1.608951,-12.393476
1790545578.8539,0.031233,-0.012420,-0.201986,0.026980,-0.008368,-0.201986,0.713846,-0.535000,-1.243496,-0.849208,2.687171,-13.053266
1790545578.8686,0.043834,-0.021142,-0.230601,0.038777,-0.017310,-0.230601,0.683492,-0.596921,-1.462041,-0.964192,2.724351,-7.386832
1790545578.8827,0.050488,-0.025936,-0.247332,0.046975,-0.023348,-0.247332,0.467375,-0.403873,-1.238639,0.683911,2.315371,-5.252217
1790545578.8963,0.058331,-0.035066,-0.263969,0.054924,-0.031551,-0.263969,0.684706,-0.433012,-1.023736,-0.542584,1.608951,-7.619700
1790545578.9102,0.057520,-0.049115,-0.275590,0.056741,-0.043846,-0.275590,1.017381,0.142491,-0.703203,-0.619240,2.315371,-13.480189
1790545578.9242,0.039130,-0.044584,-0.292382,0.044413,-0.044363,-0.292382,-0.302391,1.424625,-0.743269,-1.347472,4.248731,-20.815504
1790545578.9383,0.038478,-0.032017,-0.311660,0.040258,-0.035721,-0.311660,-0.966527,0.319756,-0.784550,-5.141942,0.716631,-16.313406
1790545578.9523,0.039512,-0.020558,-0.316868,0.039736,-0.025107,-0.316868,-1.000523,0.337968,-0.732342,-3.953775,-1.068009,-6.455364
1790545578.9663,0.026854,-0.004880,-0.323688,0.030719,-0.010948,-0.323688,-1.362337,1.032457,-0.572075,-0.350944,-1.142369,-5.368651
1790545578.9803,0.015320,0.012079,-0.335014,0.019940,0.005171,-0.335014,-1.297988,0.952324,-0.575718,-0.197632,0.233291,-5.096972
1790545578.9944,0.000926,0.033613,-0.335835,0.006630,0.025080,-0.335835,-1.316200,1.232791,-0.557506,-0.734224,2.687171,-4.514804
1790545579.0087,-0.005398,0.042620,-0.347595,-0.001789,0.037358,-0.347595,-0.638709,0.626934,-0.422736,-1.385800,1.869211,-10.491728
1790545579.0228,-0.002929,0.036840,-0.346891,-0.002587,0.036996,-0.346891,0.333819,-0.216895,0.197691,0.185647,1.423051,-17.012007
1790545579.0368,-0.010873,0.034942,-0.332891,-0.008387,0.035558,-0.332891,0.123773,0.324612,0.773194,2.140375,2.315371,-11.733686
1790545579.0510,-0.012602,0.030301,-0.311933,-0.011337,0.031878,-0.311933,0.294967,-0.212038,1.149578,1.565455,1.385871,-7.697322
1790545579.0649,-0.003034,0.020544,-0.306503,-0.005525,0.023944,-0.306503,0.574219,-0.675841,0.582574,-1.270816,0.010211,-6.455364
1790545579.0789,-0.020295,0.017967,-0.288771,-0.015864,0.019760,-0.288771,0.212405,0.884332,0.583788,4.593365,2.241011,-9.016902
1790545579.0929,-0.032444,0.009400,-0.280409,-0.027470,0.012508,-0.280409,0.588789,0.693712,0.594715,2.063719,1.906391,-11.733686
1790545579.1066,-0.043448,0.000006,-0.270175,-0.038654,0.003757,-0.270175,0.705347,0.618435,0.822974,1.258831,2.055111,-8.279490
1790545579.1202,-0.052292,-0.002605,-0.263172,-0.048201,-0.000696,-0.263172,0.257328,0.565013,0.894608,-0.159304,3.653851,-10.569350
1790545579.1341,-0.054209,-0.006206,-0.254948,-0.052406,-0.004553,-0.254948,0.270684,0.070857,0.875182,-0.465928,2.687171,-9.987182
1790545579.1479,-0.051705,-0.008957,-0.245796,-0.051915,-0.007636,-0.245796,0.192979,-0.267889,0.750126,0.147319,2.464091,-10.957462
1790545579.1618,-0.042802,-0.006413,-0.232556,-0.045536,-0.006780,-0.232556,-0.217401,-0.793612,0.680919,1.450471,2.129471,-12.199420
1790545579.1758,-0.038529,-0.002780,-0.215886,-0.040631,-0.003980,-0.215886,-0.370383,-0.513146,0.676063,2.332014,0.456371,-11.462007
1790545579.1899,-0.033273,0.002791,-0.197652,-0.035480,0.000760,-0.197652,-0.485727,-0.657629,0.577717,2.983590,0.567911,-8.473546
1790545579.2038,-0.025865,0.009604,-0.184219,-0.028749,0.006951,-0.184219,-0.571931,-0.783899,0.382240,3.213558,0.642271,-9.599070
1790545579.2178,-0.015335,0.021553,-0.176373,-0.019359,0.017172,-0.176373,-0.903392,-0.985447,0.173408,3.481854,1.237151,-10.181238
1790545579.2318,-0.003831,0.036988,-0.173319,-0.008490,0.031044,-0.173319,-1.126794,-1.051011,0.026497,3.251886,1.497411,-8.861658
1790545579.2457,-0.007877,0.041880,-0.169321,-0.008061,0.038629,-0.169321,-0.450517,0.150990,-0.258827,4.286742,0.419191,-12.354665
1790545579.2601,-0.013368,0.038158,-0.182073,-0.011776,0.038299,-0.182073,0.253686,0.656073,-0.806405,-1.577440,1.757671,-11.073895
1790545579.2747,0.004864,0.027466,-0.208542,-0.000128,0.030716,-0.208542,0.774553,-0.849463,-1.203429,-3.723807,2.724351,-11.656063
1790545579.2889,0.002890,0.021005,-0.253135,0.001985,0.023918,-0.253135,0.681064,0.063572,-0.960601,2.408670,2.724351,-4.320748
1790545579.3029,-0.001148,0.011719,-0.249305,-0.000208,0.015379,-0.249305,0.621571,0.266334,-0.710487,2.178703,0.865351,-8.279490
1790545579.3173,0.013714,0.006135,-0.272427,0.009537,0.008908,-0.272427,0.454019,-0.806968,-0.998239,-1.347472,3.244871,-12.005364
1790545579.3313,0.020523,-0.001802,-0.294458,0.017227,0.001411,-0.294458,0.583933,-0.246034,-1.328486,-0.542584,2.017931,-10.103616
1790545579.3450,0.025294,-0.008233,-0.317761,0.022874,-0.005340,-0.317761,0.507442,-0.159830,-1.392835,0.185647,1.497411,-6.183686
1790545579.3590,0.030280,-0.010920,-0.339978,0.028058,-0.009246,-0.339978,0.254900,-0.224180,-1.230140,0.492271,2.092291,-7.231588
1790545579.3732,0.036850,-0.021539,-0.343172,0.034212,-0.017851,-0.343172,0.659209,-0.343166,-1.060160,0.147319,0.344831,-8.784035
1790545579.3873,0.035366,-0.031434,-0.359296,0.035020,-0.027359,-0.359296,0.735700,0.197128,-0.697132,-0.274288,3.467951,-16.235784
1790545579.4013,0.014108,-0.018313,-0.379563,0.020381,-0.021027,-0.379563,-0.914319,1.683237,-0.692275,-1.960720,4.062831,-20.815504
1790545579.4156,0.015389,-0.002316,-0.388963,0.016886,-0.007930,-0.388963,-1.175359,0.232338,-0.638853,-5.601878,0.902531,-13.984735
1790545579.4295,0.012475,0.012057,-0.399078,0.013799,0.006061,-0.399078,-1.106153,0.504305,-0.751768,-1.424128,0.270471,-5.174595
1790545579.4437,-0.006940,0.023471,-0.358812,-0.000718,0.018248,-0.358812,-0.961670,1.169655,-0.433663,1.028863,-0.138509,-1.836832
1790545579.4578,-0.021403,0.037523,-0.400865,-0.015198,0.031741,-0.400865,-0.745553,1.144158,-0.601215,0.338959,2.612811,-4.165504
1790545579.4721,-0.007502,0.025301,-0.400927,-0.009811,0.027233,-0.400927,0.813405,-0.884673,-0.360814,-0.657568,1.757671,-15.692427
1790545579.4861,-0.013869,0.018637,-0.395924,-0.012652,0.021216,-0.395924,0.556007,0.259049,0.531580,3.213558,5.215411,-15.498371
1790545579.5000,-0.018034,0.016460,-0.385241,-0.016419,0.017886,-0.385241,0.095847,0.223839,0.820546,-0.849208,1.199971,-10.530539
1790545579.5142,-0.010475,0.012577,-0.378888,-0.012258,0.014170,-0.378888,0.263399,-0.587208,1.024522,-1.500784,1.534591,-7.542077
1790545579.5286,-0.016090,0.006540,-0.349542,-0.014940,0.008829,-0.349542,0.218476,0.278475,0.737984,0.032335,-1.030829,-7.697322
1790545579.5426,-0.038724,-0.003534,-0.327481,-0.031589,0.000175,-0.327481,0.617929,1.303211,0.914035,3.788478,0.456371,-10.918651
1790545579.5568,-0.049774,-0.019401,-0.316554,-0.044318,-0.013528,-0.316554,1.045307,0.737421,0.950459,-0.925864,0.976891,-9.987182
1790545579.5705,-0.062325,-0.022225,-0.321170,-0.056923,-0.019616,-0.321170,0.305894,0.792057,1.040305,0.530599,3.207691,-7.969000
1790545579.5842,-0.066126,-0.026852,-0.310907,-0.063365,-0.024681,-0.310907,0.260971,0.231123,1.116796,-0.925864,1.460231,-10.414105
1790545579.5982,-0.064009,-0.029452,-0.297058,-0.063816,-0.028021,-0.297058,0.111631,-0.271531,1.121653,0.300631,1.794851,-11.656063
1790545579.6122,-0.057074,-0.029157,-0.277188,-0.059097,-0.028816,-0.277188,-0.161551,-0.626061,0.960172,0.798895,0.344831,-12.898021
1790545579.6262,-0.054939,-0.027138,-0.248362,-0.056187,-0.027641,-0.248362,-0.314533,-0.463366,0.943174,3.711822,-0.361589,-9.909560
1790545579.6402,-0.051219,-0.022500,-0.224453,-0.052710,-0.024042,-0.224453,-0.506367,-0.565354,0.856970,2.945262,-0.435949,-8.046623
1790545579.6541,-0.045122,-0.015148,-0.207862,-0.047399,-0.017816,-0.207862,-0.676347,-0.726835,0.694275,2.791950,-0.212869,-7.503266
1790545579.6679,-0.037603,-0.003564,-0.199624,-0.040541,-0.007840,-0.199624,-0.924032,-0.788756,0.473301,3.175230,0.605091,-9.754315
1790545579.6819,-0.028029,0.012301,-0.195767,-0.031783,0.006259,-0.195767,-1.191143,-0.867675,0.156410,3.175230,1.088431,-11.112707
1790545579.6959,-0.017246,0.029108,-0.193606,-0.021607,0.022253,-0.193606,-1.278561,-0.942952,-0.108273,3.596838,0.716631,-10.957462
1790545579.7099,-0.017776,0.032703,-0.184563,-0.018926,0.029568,-0.184563,-0.363098,0.110923,-0.555077,1.335487,0.270471,-14.605714
1790545579.7237,-0.023477,0.024133,-0.195813,-0.022111,0.025764,-0.195813,0.630070,0.663358,-1.079587,-0.235960,1.571771,-10.297672
1790545579.7377,-0.008773,0.010812,-0.203759,-0.012775,0.015297,-0.203759,0.903252,-0.644273,-1.230140,-3.302199,0.456371,-10.452916
1790545579.7518,-0.009552,0.006235,-0.240859,-0.010519,0.008954,-0.240859,0.388456,-0.011705,-0.697132,2.791950,1.832031,-8.318301
1790545579.7658,-0.004500,-0.003149,-0.240890,-0.006305,0.000482,-0.240890,0.628856,-0.184113,-0.709273,-1.079176,1.125611,-12.820399
1790545579.7804,0.010116,-0.013219,-0.263955,0.005189,-0.009109,-0.263955,0.749056,-0.673412,-1.073516,-3.148887,2.278191,-9.909560
1790545579.7946,0.017655,-0.020966,-0.301562,0.013915,-0.017409,-0.301562,0.671351,-0.332238,-1.301775,-0.350944,3.021791,-8.745224
1790545579.8084,0.021263,-0.023894,-0.346008,0.019059,-0.021949,-0.346008,0.395741,-0.151331,-1.174290,0.492271,2.835891,-6.300119
1790545579.8224,0.029824,-0.031209,-0.360293,0.026594,-0.028431,-0.360293,0.512298,-0.501004,-1.075944,0.223975,1.162791,-8.395923
1790545579.8365,0.038917,-0.042396,-0.377226,0.035221,-0.038206,-0.377226,0.800050,-0.465794,-0.990954,-1.194160,1.460231,-9.133336
1790545579.8508,0.029096,-0.045891,-0.409013,0.030933,-0.043586,-0.409013,0.388456,0.851550,-0.771195,-1.692424,4.583351,-11.539630
1790545579.8649,0.012061,-0.034464,-0.413395,0.017723,-0.037200,-0.413395,-0.849969,1.502330,-0.648566,-5.678534,1.423051,-16.507462
1790545579.8790,0.013335,-0.018466,-0.403127,0.014651,-0.024086,-0.403127,-1.209355,0.249336,-0.510154,-6.330110,0.196111,-12.703965
1790545579.8934,0.002851,-0.001339,-0.406594,0.006391,-0.008163,-0.406594,-1.239709,1.003318,-0.427592,-2.535639,0.419191,-7.153965
1790545579.9074,-0.004637,0.008352,-0.397625,-0.001329,0.003397,-0.397625,-0.900963,0.795700,-0.301322,-1.462456,-0.882109,-4.437182
1790545579.9215,-0.009020,0.019560,-0.401363,-0.006713,0.014711,-0.401363,-0.868181,0.674285,-0.330461,-2.765607,0.158931,-5.252217
1790545579.9357,-0.008651,0.020667,-0.404632,-0.008070,0.018880,-0.404632,-0.156694,0.152204,-0.264897,-2.918919,0.567911,-14.838581
1790545579.9500,-0.008295,0.018919,-0.400416,-0.008228,0.018907,-0.400416,0.063066,-0.117335,0.389525,0.760567,1.385871,-14.722147
1790545579.9639,-0.013290,0.014959,-0.393298,-0.011771,0.016144,-0.393298,0.184480,0.201984,0.727057,0.990535,0.530731,-13.945924
1790545579.9783,-0.015833,0.009258,-0.383434,-0.014615,0.011324,-0.383434,0.386027,0.067214,0.679705,0.108991,1.385871,-7.503266
1790545579.9923,-0.025016,0.001100,-0.382518,-0.021896,0.004167,-0.382518,0.575434,0.392604,0.605643,2.523654,1.385871,-7.736133
1790545580.0064,-0.040792,-0.008720,-0.379955,-0.035123,-0.004854,-0.379955,0.734486,0.826053,0.745269,3.021918,2.055111,-7.697322
1790545580.0212,-0.052362,-0.019997,-0.370224,-0.047191,-0.015454,-0.370224,0.791551,0.631790,0.923748,0.913879,2.315371,-8.434735
1790545580.0351,-0.068445,-0.026865,-0.361257,-0.062069,-0.023442,-0.361257,0.553579,0.947467,1.025736,1.833751,3.021791,-8.589979
1790545580.0490,-0.073710,-0.033485,-0.348855,-0.070218,-0.030472,-0.348855,0.490444,0.245693,1.125295,0.683911,2.947431,-9.831937
1790545580.0631,-0.080367,-0.040113,-0.336286,-0.077322,-0.037221,-0.336286,0.451591,0.335540,1.076730,0.875551,2.129471,-8.667602
1790545580.0772,-0.069593,-0.044612,-0.323189,-0.071912,-0.042394,-0.323189,0.267041,-0.817895,0.932247,-0.312616,2.241011,-12.703965
1790545580.0912,-0.055095,-0.042533,-0.309180,-0.060140,-0.042492,-0.309180,-0.236828,-1.128716,0.837544,0.645583,1.199971,-13.441378
1790545580.1053,-0.048038,-0.035263,-0.284189,-0.051669,-0.037431,-0.284189,-0.683632,-0.792398,0.819332,4.286742,-0.733389,-11.267951
1790545580.1192,-0.042628,-0.024955,-0.264594,-0.045340,-0.028698,-0.264594,-0.892464,-0.694053,0.700346,3.596838,-0.473129,-8.551168
1790545580.1334,-0.034425,-0.008228,-0.257013,-0.037700,-0.014369,-0.257013,-1.249422,-0.912598,0.456303,3.903462,0.642271,-7.503266
1790545580.1476,-0.022764,0.011354,-0.248407,-0.027245,0.003637,-0.248407,-1.450970,-1.103219,0.280253,3.405198,0.530731,-7.736133
1790545580.1618,-0.005261,0.030291,-0.241060,-0.011856,0.022295,-0.241060,-1.381764,-1.441964,0.181907,2.102047,0.865351,-7.270399
1790545580.1759,-0.009728,0.031117,-0.229606,-0.010366,0.028471,-0.229606,-0.172478,0.227481,0.005856,2.983590,0.233291,-16.779140
1790545580.1900,-0.019671,0.025902,-0.243799,-0.016879,0.026673,-0.243799,0.438235,0.948681,-0.607285,-2.305671,3.988471,-14.993826
1790545580.2040,-0.011154,0.021940,-0.256730,-0.012872,0.023360,-0.256730,0.330177,-0.380804,-0.892609,-1.194160,2.984611,-12.975644
1790545580.2183,-0.013203,0.018442,-0.273260,-0.013104,0.019917,-0.273260,0.276755,0.093925,-0.576932,1.987063,1.385871,-6.688231
1790545580.2324,-0.008319,0.010522,-0.266144,-0.009755,0.013341,-0.266144,0.488015,-0.135547,-0.541722,-1.539112,0.382011,-8.822846
1790545580.2464,0.004946,0.001575,-0.279025,0.000536,0.005105,-0.279025,0.693205,-0.663699,-0.846471,-2.305671,2.129471,-8.900469
1790545580.2601,0.009880,-0.008494,-0.301154,0.007077,-0.004414,-0.301154,0.812191,-0.237535,-0.990954,0.415615,2.278191,-8.318301
1790545580.2741,0.016704,-0.011283,-0.333169,0.013816,-0.009222,-0.333169,0.354460,-0.332238,-1.092942,-0.005993,3.021791,-7.270399
1790545580.2887,0.023593,-0.014369,-0.355384,0.020660,-0.012825,-0.355384,0.258542,-0.280030,-1.136651,-0.504256,2.166651,-8.784035
1790545580.3028,0.023629,-0.020082,-0.373715,0.022738,-0.017905,-0.373715,0.445520,0.084212,-1.004310,0.760567,2.055111,-8.939280
1790545580.3172,0.006941,-0.021429,-0.392681,0.011681,-0.020372,-0.392681,0.126201,1.312924,-0.845257,-0.427600,2.835891,-14.062357
1790545580.3312,-0.002056,-0.009559,-0.395305,0.002065,-0.012802,-0.395305,-0.870610,0.970536,-0.647352,-5.218598,1.311511,-13.441378
1790545580.3455,-0.006684,0.004664,-0.388456,-0.004059,-0.000576,-0.388456,-1.112224,0.703425,-0.664350,-3.953775,-0.510309,-8.434735
1790545580.3594,-0.010006,0.016100,-0.388051,-0.008222,0.011097,-0.388051,-0.949529,0.612364,-0.448233,-3.187215,-0.510309,-6.300119
1790545580.3733,-0.016954,0.031361,-0.396517,-0.014334,0.025282,-0.396517,-1.022377,0.693712,-0.422736,-0.887536,1.794851,-5.912007
1790545580.3873,-0.021959,0.039823,-0.403658,-0.019672,0.035461,-0.403658,-0.586500,0.594152,-0.377812,-1.500784,1.385871,-6.649420
1790545580.4014,-0.017740,0.031735,-0.401922,-0.018320,0.032853,-0.401922,0.469803,-0.316455,0.124842,0.032335,0.344831,-13.208511
1790545580.4155,-0.029678,0.021865,-0.390940,-0.026270,0.025161,-0.390940,0.678636,0.567441,1.005095,3.098574,2.910251,-14.528091
1790545580.4294,-0.037972,0.012337,-0.376194,-0.034462,0.016184,-0.376194,0.586361,0.376821,1.153221,0.952207,1.014071,-11.462007
1790545580.4435,-0.036509,0.003641,-0.360639,-0.035895,0.007404,-0.360639,0.557221,-0.060271,0.873968,-2.535639,1.237151,-8.939280
1790545580.4575,-0.051512,-0.002553,-0.356579,-0.046827,0.000434,-0.356579,0.389670,0.767774,0.769552,2.485326,0.828171,-6.377742
1790545580.4717,-0.066583,-0.014431,-0.347640,-0.060656,-0.009972,-0.347640,0.783052,0.875833,0.871540,1.987063,1.423051,-10.375294
1790545580.4855,-0.080037,-0.023097,-0.337953,-0.074223,-0.019160,-0.337953,0.627642,0.805413,0.944388,1.527127,2.352551,-9.210958
1790545580.4993,-0.087663,-0.028741,-0.325679,-0.083631,-0.025866,-0.325679,0.471017,0.578368,0.931033,-1.539112,3.914111,-10.258860
1790545580.5134,-0.086475,-0.034357,-0.311735,-0.085622,-0.031810,-0.311735,0.359316,-0.156188,0.971099,0.070663,2.464091,-10.841028
1790545580.5275,-0.076206,-0.035242,-0.297390,-0.079031,-0.034213,-0.297390,-0.044993,-0.865247,0.904322,1.412143,1.237151,-12.199420
1790545580.5418,-0.067008,-0.030844,-0.283886,-0.070615,-0.031855,-0.283886,-0.432304,-0.867675,0.775622,3.290214,0.456371,-11.694875
1790545580.5558,-0.063094,-0.027798,-0.268856,-0.065350,-0.029015,-0.268856,-0.429876,-0.632132,0.821760,4.861661,-1.291089,-9.482637
1790545580.5699,-0.054601,-0.020231,-0.258048,-0.057826,-0.022866,-0.258048,-0.676347,-0.879817,0.644495,2.485326,-0.101329,-6.455364
1790545580.5846,-0.043535,-0.011007,-0.246278,-0.047822,-0.014565,-0.246278,-0.768622,-0.905314,0.412594,1.450471,-0.250049,-7.580888
1790545580.5986,-0.034495,0.000188,-0.244645,-0.038493,-0.004238,-0.244645,-0.854826,-0.848249,0.277824,2.830278,0.865351,-9.288581
1790545580.6126,-0.024568,0.013547,-0.244424,-0.028746,0.008211,-0.244424,-1.027234,-0.939309,0.104202,4.746677,0.716631,-12.277042
1790545580.6269,-0.019026,0.022984,-0.242687,-0.021942,0.018552,-0.242687,-0.756480,-0.508289,-0.188406,3.443526,0.270471,-12.354665
1790545580.6409,-0.021694,0.021481,-0.249466,-0.021768,0.020603,-0.249466,0.069136,0.272404,-0.711702,1.565455,1.125611,-13.014455
1790545580.6549,-0.007657,0.010524,-0.253828,-0.011890,0.013547,-0.253828,0.804906,-0.737762,-0.943603,-1.845736,1.906391,-10.841028
1790545580.6688,-0.009002,0.007065,-0.330801,-0.009869,0.009010,-0.330801,0.670137,0.029576,-0.773623,2.293686,5.029511,-4.320748
1790545580.6830,-0.008525,-0.002792,-0.336536,-0.008928,0.000748,-0.336536,0.729630,-0.071198,-0.601215,2.791950,2.203831,-11.073895
1790545580.6972,0.005356,-0.009744,-0.354343,0.001071,-0.006597,-0.354343,0.557221,-0.805754,-0.944817,-0.695896,3.319231,-13.363756
1790545580.7112,0.012545,-0.021182,-0.372017,0.009103,-0.016807,-0.372017,0.823119,-0.297028,-1.270207,-0.580912,1.571771,-10.258860
1790545580.7250,0.020455,-0.026390,-0.397060,0.017049,-0.023515,-0.397060,0.630070,-0.346808,-1.367338,-0.465928,2.984611,-4.786483
1790545580.7387,0.025283,-0.031203,-0.413253,0.022813,-0.028896,-0.413253,0.450377,-0.299457,-1.216785,0.952207,1.906391,-5.795574
1790545580.7529,0.031350,-0.044622,-0.422386,0.028789,-0.039904,-0.422386,0.878969,-0.275174,-1.122082,-0.427600,0.344831,-8.434735
1790545580.7670,0.021625,-0.049616,-0.434995,0.023774,-0.046703,-0.434995,0.332605,0.765346,-1.000667,1.182175,2.241011,-20.427392
1790545580.7811,0.012225,-0.035402,-0.440299,0.015690,-0.038792,-0.440299,-1.046660,0.926827,-0.769980,-5.295254,1.348691,-18.642077
1790545580.7960,0.017491,-0.018956,-0.400498,0.016951,-0.024907,-0.400498,-1.200856,0.085426,-0.609714,-7.020013,-0.398769,-8.512357
1790545580.8102,0.006106,-0.001016,-0.400103,0.009359,-0.008183,-0.400103,-1.409689,0.902544,-0.499227,-0.044320,-0.212869,-3.234035
1790545580.8246,-0.004810,0.021961,-0.422121,-0.000559,0.012918,-0.422121,-1.474038,1.015459,-0.612142,-0.925864,1.497411,-3.855014
1790545580.8387,-0.014212,0.034439,-0.438474,-0.010116,0.027983,-0.438474,-0.880323,1.028815,-0.720201,-1.807408,0.939711,-5.368651
1790545580.8531,-0.014697,0.023544,-0.452723,-0.013323,0.024876,-0.452723,0.812191,0.324612,-0.680134,-2.880591,2.873071,-11.423196
1790545580.8671,-0.006950,0.017369,-0.449991,-0.008862,0.019621,-0.449991,0.456448,-0.604206,0.013141,1.488799,3.653851,-16.895574
1790545580.8811,-0.007054,0.015261,-0.444309,-0.007596,0.016569,-0.444309,0.067922,0.021077,0.464802,-1.692424,0.642271,-12.044175
1790545580.8953,-0.008316,0.015179,-0.428988,-0.008100,0.015596,-0.428988,-0.035280,-0.144046,0.939532,1.373815,1.460231,-10.646972
1790545580.9110,-0.000415,0.010502,-0.417589,-0.002721,0.012030,-0.417589,0.253686,-0.610277,0.598358,-0.005993,0.865351,-7.852567
1790545580.9258,-0.019800,0.002235,-0.399867,-0.014676,0.005173,-0.399867,0.556007,0.915900,0.897037,3.980118,1.460231,-7.503266
1790545580.9406,-0.032324,-0.009155,-0.387027,-0.027030,-0.004857,-0.387027,0.730844,0.698568,0.961386,0.530599,1.460231,-10.414105
1790545580.9551,-0.044395,-0.015627,-0.375786,-0.039185,-0.012396,-0.375786,0.460090,0.721637,1.114368,-0.159304,2.501271,-9.948371
1790545580.9693,-0.045761,-0.016936,-0.366944,-0.043789,-0.015574,-0.366944,0.146841,0.049002,1.036663,-1.232488,3.542311,-10.297672
1790545580.9836,-0.042580,-0.019775,-0.352169,-0.042942,-0.018515,-0.352169,0.146841,-0.324954,1.141079,-0.619240,1.906391,-11.617252
1790545580.9977,-0.035601,-0.016552,-0.336121,-0.037803,-0.017141,-0.336121,-0.303605,-0.662485,0.966243,1.067191,1.385871,-12.859210
1790545581.0121,-0.033344,-0.010255,-0.316985,-0.034682,-0.012321,-0.316985,-0.529436,-0.413586,0.893394,2.638638,0.716631,-10.569350
1790545581.0262,-0.027184,-0.002074,-0.300057,-0.029433,-0.005148,-0.300057,-0.628995,-0.723192,0.773194,2.370342,1.051251,-7.619700
1790545581.0406,-0.018057,0.007223,-0.286398,-0.021470,0.003511,-0.286398,-0.695773,-0.828823,0.582574,1.757095,1.125611,-9.443825
1790545581.0549,-0.009805,0.019595,-0.274869,-0.013305,0.014770,-0.274869,-0.917961,-0.809396,0.378598,2.868606,1.162791,-10.025993
1790545581.0689,0.001393,0.034216,-0.269647,-0.003016,0.028382,-0.269647,-1.041804,-0.955093,0.181907,1.910407,2.092291,-10.103616
1790545581.0832,-0.004566,0.031781,-0.261251,-0.004101,0.030761,-0.261251,0.002358,0.334326,-0.313463,4.133430,-1.439808,-14.955014
1790545581.0973,-0.007286,0.025613,-0.277377,-0.006331,0.027158,-0.277377,0.455233,0.509162,-0.995811,-2.343999,2.389731,-12.859210
1790545581.1113,0.008766,0.018693,-0.301222,0.004237,0.021232,-0.301222,0.580290,-0.839750,-1.347912,-0.887536,2.203831,-7.153965
1790545581.1254,0.004521,0.014343,-0.349108,0.004436,0.016410,-0.349108,0.575434,0.184986,-1.039520,2.408670,2.538451,-3.195224
1790545581.1396,0.007485,0.006188,-0.354158,0.006570,0.009254,-0.354158,0.531724,-0.113693,-0.896251,0.913879,0.939711,-9.521448
1790545581.1537,0.020722,-0.003965,-0.372506,0.016476,0.000001,-0.372506,0.739343,-0.708622,-1.171861,-1.270816,2.575631,-13.363756
1790545581.1677,0.029260,-0.011472,-0.400928,0.025425,-0.008030,-0.400928,0.597288,-0.357735,-1.498466,-0.619240,2.724351,-9.637881
1790545581.1814,0.037126,-0.014630,-0.433061,0.033616,-0.012650,-0.433061,0.358102,-0.332238,-1.470540,-0.504256,2.910251,-6.998721
1790545581.1951,0.037567,-0.020845,-0.447704,0.036382,-0.018386,-0.447704,0.430951,0.091497,-1.352769,0.645583,1.274331,-7.542077
1790545581.2092,0.044267,-0.025809,-0.473603,0.041902,-0.023582,-0.473603,0.386027,-0.231465,-1.210714,-1.309144,1.906391,-7.774944
1790545581.2232,0.036151,-0.030693,-0.482363,0.037876,-0.028560,-0.482363,0.352031,0.619649,-0.856184,1.488799,2.798711,-14.760958
1790545581.2371,0.014559,-0.021750,-0.500218,0.021554,-0.023793,-0.500218,-0.645993,1.739088,-0.676491,-2.420655,2.910251,-18.797322
1790545581.2511,0.015593,-0.007801,-0.508477,0.017382,-0.012599,-0.508477,-1.045446,0.229909,-0.570861,-6.100142,1.162791,-15.770049
1790545581.2650,0.008957,0.009905,-0.516962,0.011484,0.003154,-0.516962,-1.300416,0.867334,-0.650994,-2.267343,0.530731,-4.514804
1790545581.2789,-0.013352,0.029078,-0.416637,-0.005901,0.021301,-0.416637,-1.091584,1.243718,-0.536865,1.795423,1.571771,-0.905364
1790545581.2931,-0.018140,0.033353,-0.467162,-0.014468,0.029738,-0.467162,-0.410450,0.702211,-0.568433,-1.385800,-0.212869,-3.699769
1790545581.3077,0.002986,0.020525,-0.468393,-0.002250,0.023289,-0.468393,0.849830,-1.386114,-0.467659,0.070663,1.571771,-12.509909
1790545581.3222,-0.014753,0.021669,-0.459702,-0.011002,0.022155,-0.459702,-0.024353,0.965679,0.547364,5.436581,4.769251,-15.847672
1790545581.3363,-0.015586,0.016165,-0.462998,-0.014211,0.017962,-0.462998,0.339890,0.061144,0.932247,-3.378855,1.683311,-13.557812
1790545581.3506,-0.013164,0.010279,-0.456618,-0.013478,0.012584,-0.456618,0.434593,-0.284887,1.147150,-0.772552,1.683311,-6.416553
1790545581.3647,-0.023847,0.002304,-0.436550,-0.020737,0.005388,-0.436550,0.423666,0.563798,0.968671,0.492271,-0.138509,-5.368651
1790545581.3787,-0.041394,-0.007655,-0.418084,-0.035197,-0.003742,-0.418084,0.616714,1.048241,1.113154,1.373815,0.716631,-11.190329
1790545581.3926,-0.054010,-0.021849,-0.408597,-0.048366,-0.016417,-0.408597,0.966387,0.810269,1.139865,-0.389272,1.571771,-10.336483
1790545581.4063,-0.066100,-0.027929,-0.402203,-0.060780,-0.024475,-0.402203,0.486801,0.753205,1.109512,0.683911,3.356411,-10.491728
1790545581.4199,-0.068652,-0.030566,-0.401015,-0.066290,-0.028739,-0.401015,0.214833,0.155847,1.128938,-1.079176,3.282051,-10.685784
1790545581.4338,-0.063768,-0.029749,-0.385193,-0.064525,-0.029446,-0.385193,-0.093559,-0.521645,1.071873,1.373815,2.501271,-11.384385
1790545581.4478,-0.060103,-0.028315,-0.367301,-0.061429,-0.028654,-0.367301,-0.221044,-0.416014,0.915249,1.335487,0.642271,-11.656063
1790545581.4617,-0.056320,-0.025105,-0.339799,-0.057853,-0.026170,-0.339799,-0.367955,-0.542285,0.866683,3.060246,0.158931,-9.754315
1790545581.4756,-0.047597,-0.018474,-0.315562,-0.050674,-0.020783,-0.315562,-0.597428,-0.900457,0.768338,2.830278,0.344831,-8.861658
1790545581.4896,-0.041369,-0.011343,-0.292772,-0.044161,-0.014175,-0.292772,-0.675133,-0.738976,0.599572,3.596838,-0.584669,-9.133336
1790545581.5035,-0.032185,-0.001328,-0.278422,-0.035777,-0.005182,-0.278422,-0.811117,-0.870103,0.396810,2.370342,0.493551,-8.745224
1790545581.5174,-0.022876,0.010781,-0.269948,-0.026746,0.005992,-0.269948,-0.927674,-0.817895,0.104202,2.293686,0.902531,-9.676693
1790545581.5314,-0.013976,0.025391,-0.265140,-0.017807,0.019571,-0.265140,-1.118295,-0.781471,-0.127699,2.983590,0.716631,-10.375294
1790545581.5456,-0.017351,0.028071,-0.261591,-0.017488,0.025521,-0.261591,-0.321817,0.303972,-0.603643,1.872079,-0.770569,-16.313406
1790545581.5602,-0.023279,0.020643,-0.283339,-0.021541,0.022107,-0.283339,0.551151,0.708281,-1.135437,-1.079176,1.906391,-10.297672
1790545581.5746,-0.007703,0.015115,-0.394599,-0.011855,0.017212,-0.394599,0.757555,-0.617562,-1.346698,-1.232488,2.203831,-2.496623
1790545581.5885,-0.004643,0.015952,-0.396085,-0.006806,0.016330,-0.396085,0.088563,-0.311598,-0.675277,2.140375,2.426911,-5.291028
1790545581.6026,0.005112,0.005716,-0.399064,0.001537,0.008900,-0.399064,0.667708,-0.538643,-0.663136,-0.964192,0.753811,-12.160609
1790545581.6166,0.020362,-0.002436,-0.431523,0.014714,0.000965,-0.431523,0.729630,-0.787542,-1.102655,-2.535639,4.397451,-10.569350
1790545581.6306,0.031277,-0.012521,-0.456804,0.026308,-0.008475,-0.456804,0.764840,-0.531358,-1.349126,-1.002520,2.612811,-10.336483
1790545581.6441,0.036688,-0.016929,-0.473216,0.033574,-0.014393,-0.473216,0.473446,-0.298242,-1.116011,0.492271,3.021791,-6.765853
1790545581.6578,0.044632,-0.028517,-0.486278,0.041314,-0.024280,-0.486278,0.789123,-0.395374,-0.873182,-1.117504,0.605091,-7.813756
1790545581.6718,0.039750,-0.040863,-0.498441,0.040219,-0.035888,-0.498441,0.895967,0.431457,-0.647352,-0.312616,2.278191,-12.354665
1790545581.6858,0.021821,-0.037701,-0.513132,0.027340,-0.037157,-0.513132,-0.206474,1.388201,-0.551435,-1.194160,3.653851,-20.543826
1790545581.7001,0.024574,-0.024524,-0.513737,0.025404,-0.028314,-0.513737,-1.030876,0.153418,-0.566005,-6.215126,-0.584669,-11.617252
1790545581.7144,0.023577,-0.010933,-0.511721,0.024125,-0.016147,-0.511721,-1.136507,0.396247,-0.641281,-2.727279,-1.105189,-6.067252
1790545581.7286,0.008674,0.002827,-0.502231,0.013309,-0.002865,-0.502231,-1.189929,1.085880,-0.388740,0.300631,-0.956469,-4.786483
1790545581.7426,0.004559,0.013870,-0.505909,0.007184,0.008849,-0.505909,-0.898535,0.795700,-0.421522,-3.072231,-0.287229,-3.234035
1790545581.7565,-0.011661,0.025592,-0.516239,-0.006007,0.020569,-0.516239,-0.778335,1.335993,-0.353530,-0.964192,2.166651,-7.658511
1790545581.7709,-0.008148,0.020755,-0.519699,-0.007506,0.020700,-0.519699,0.271898,-0.180471,-0.091275,-1.309144,1.385871,-19.689980
1790545581.7850,-0.006518,0.019612,-0.511736,-0.006814,0.019938,-0.511736,0.120130,-0.199897,0.450232,0.223975,3.430771,-12.898021
1790545581.7996,-0.015426,0.016440,-0.498353,-0.012843,0.017489,-0.498353,0.173553,0.409602,0.865469,1.182175,1.311511,-10.025993
1790545581.8140,-0.012628,0.005388,-0.489230,-0.012692,0.009018,-0.489230,0.656781,-0.248463,0.839972,-0.925864,0.121751,-6.804665
1790545581.8281,-0.023868,-0.004027,-0.484665,-0.020515,-0.000114,-0.484665,0.673779,0.747134,0.450232,0.032335,0.530731,-2.845923
1790545581.8421,-0.043362,-0.009449,-0.473073,-0.036508,-0.006648,-0.473073,0.458876,1.217007,0.503655,2.255358,2.724351,-8.978091
1790545581.8563,-0.052130,-0.018027,-0.465606,-0.047443,-0.014613,-0.465606,0.626428,0.565013,0.648138,0.108991,2.761531,-11.927742
1790545581.8700,-0.061796,-0.023924,-0.452435,-0.057490,-0.021131,-0.452435,0.490444,0.567441,0.785336,1.335487,3.282051,-10.220049
1790545581.8835,-0.065502,-0.027189,-0.436685,-0.063098,-0.025372,-0.436685,0.314393,0.118208,0.895823,1.297159,3.542311,-9.482637
1790545581.8976,-0.058408,-0.031213,-0.424507,-0.059815,-0.029460,-0.424507,0.191765,-0.610277,0.871540,0.453943,0.902531,-10.336483
1790545581.9115,-0.051726,-0.031200,-0.410290,-0.054152,-0.030678,-0.410290,-0.098415,-0.632132,0.737984,1.642111,0.642271,-11.267951
1790545581.9255,-0.046967,-0.029956,-0.391009,-0.049122,-0.030173,-0.391009,-0.244112,-0.581138,0.757410,3.136902,-0.547489,-10.957462
1790545581.9394,-0.043363,-0.025906,-0.371409,-0.045091,-0.027186,-0.371409,-0.445660,-0.562925,0.695489,3.673494,-0.547489,-8.900469
1790545581.9535,-0.037780,-0.018851,-0.359290,-0.039973,-0.021351,-0.359290,-0.614426,-0.573853,0.428378,2.293686,-0.064149,-9.637881
1790545581.9676,-0.029212,-0.007299,-0.351109,-0.032440,-0.011515,-0.351109,-0.882751,-0.789970,0.231687,2.830278,0.790991,-10.297672
1790545581.9816,-0.017182,0.010634,-0.348324,-0.021759,0.003990,-0.348324,-1.288275,-1.038869,-0.000214,3.098574,1.683311,-9.793126
1790545581.9960,-0.005390,0.030209,-0.347242,-0.010301,0.022343,-0.347242,-1.396333,-1.059510,-0.109487,3.980118,0.939711,-8.240679
1790545582.0101,-0.002389,0.040085,-0.338044,-0.004763,0.034762,-0.338044,-0.857254,-0.273960,-0.178693,1.910407,-0.621849,-11.694875
1790545582.0244,-0.008040,0.033325,-0.356876,-0.007057,0.033756,-0.356876,0.474660,0.748348,-0.744483,-3.148887,1.646131,-9.715504
1790545582.0386,-0.003931,0.023750,-0.378354,-0.004868,0.026752,-0.378354,0.683492,0.113352,-1.238639,-3.723807,2.203831,-13.480189
1790545582.0529,0.001805,0.024152,-0.407879,-0.000197,0.024932,-0.407879,0.177195,-0.270317,-1.003096,0.722239,3.839751,-6.882287
1790545582.0672,0.000441,0.017329,-0.414039,0.000249,0.019610,-0.414039,0.469803,0.127921,-0.568433,1.143847,1.385871,-8.551168
1790545582.0813,0.014687,0.007881,-0.430031,0.010356,0.011400,-0.430031,0.633712,-0.655200,-1.039520,-3.340527,1.051251,-10.375294
1790545582.0950,0.025723,-0.001604,-0.449760,0.021112,0.002297,-0.449760,0.769696,-0.590851,-1.179146,-0.580912,2.724351,-8.861658
1790545582.1088,0.029175,-0.004760,-0.473961,0.026756,-0.002643,-0.473961,0.441878,-0.139190,-1.137865,0.568927,3.244871,-5.485084
1790545582.1230,0.034685,-0.009224,-0.495235,0.032306,-0.007250,-0.495235,0.415167,-0.222966,-1.197358,0.032335,2.129471,-5.640329
1790545582.1369,0.039341,-0.017481,-0.510534,0.037230,-0.014412,-0.510534,0.627642,-0.214467,-1.123296,0.300631,1.757671,-6.921098
1790545582.1508,0.026328,-0.020890,-0.520912,0.029599,-0.018947,-0.520912,0.173553,1.040956,-1.027379,1.028863,1.125611,-16.002917
1790545582.1647,0.016675,-0.007075,-0.540822,0.020552,-0.010636,-0.540822,-0.999309,0.947467,-0.777265,-3.110559,2.278191,-14.256413
1790545582.1786,0.012478,0.009666,-0.558613,0.014900,0.003575,-0.558613,-1.257921,0.636647,-0.677706,-3.417183,0.679451,-9.055714
1790545582.1928,0.007772,0.022658,-0.563526,0.009910,0.016933,-0.563526,-1.147434,0.733778,-0.663136,-2.880591,-1.439808,-5.562707
1790545582.2071,-0.009661,0.034914,-0.562038,-0.003790,0.029520,-0.562038,-0.888822,1.124732,-0.510154,1.795423,0.567911,-4.553616
1790545582.2211,-0.006001,0.028724,-0.573671,-0.005337,0.028963,-0.573671,0.403025,-0.006848,-0.631568,-2.573967,1.311511,-12.432287
1790545582.2351,-0.003473,0.014208,-0.563586,-0.004032,0.018635,-0.563586,1.074446,-0.412372,0.180693,3.443526,2.464091,-9.637881
1790545582.2493,-0.028720,0.008472,-0.548736,-0.021313,0.011521,-0.548736,0.353246,1.431910,0.648138,7.467964,1.423051,-14.450469
1790545582.2636,-0.028031,0.000692,-0.537773,-0.026015,0.003941,-0.537773,0.502585,-0.105194,0.994168,-1.884064,1.980751,-12.898021
1790545582.2776,-0.032434,-0.006109,-0.526330,-0.030508,-0.003094,-0.526330,0.407882,0.251764,0.917677,-1.040848,1.014071,-11.617252
1790545582.2918,-0.047112,-0.013029,-0.509840,-0.042131,-0.010048,-0.509840,0.400597,0.688855,0.935889,3.251886,0.493551,-7.386832
1790545582.3058,-0.062018,-0.021922,-0.501178,-0.056052,-0.018360,-0.501178,0.673779,0.807841,1.019665,2.638638,2.798711,-9.055714
1790545582.3208,-0.067376,-0.030891,-0.491205,-0.063979,-0.027132,-0.491205,0.548722,0.324612,1.000239,-0.964192,1.683311,-9.870749
1790545582.3347,-0.071092,-0.033598,-0.483885,-0.068958,-0.031658,-0.483885,0.216047,0.199556,1.047590,-0.235960,2.947431,-9.793126
1790545582.3485,-0.067539,-0.034023,-0.473377,-0.067965,-0.033313,-0.473377,0.015714,-0.337095,1.086443,-0.197632,2.575631,-10.220049
1790545582.3626,-0.061834,-0.031698,-0.457289,-0.063673,-0.032183,-0.457289,-0.224686,-0.576281,1.034235,1.603783,2.055111,-12.160609
1790545582.3767,-0.058457,-0.029578,-0.435377,-0.060022,-0.030360,-0.435377,-0.293892,-0.470651,0.870326,2.830278,0.010211,-10.879840
1790545582.3910,-0.050447,-0.024061,-0.416967,-0.053319,-0.025951,-0.416967,-0.505153,-0.774186,0.678491,2.446998,0.233291,-9.599070
1790545582.4050,-0.043910,-0.014607,-0.398037,-0.046733,-0.018010,-0.398037,-0.846327,-0.636988,0.592287,1.910407,-0.733389,-10.258860
1790545582.4192,-0.034999,-0.002817,-0.386220,-0.038520,-0.007375,-0.386220,-0.916747,-0.817895,0.435663,1.948735,0.530731,-8.201867
1790545582.4334,-0.026723,0.007382,-0.376358,-0.030262,0.002955,-0.376358,-0.803832,-0.796041,0.326390,2.600310,0.456371,-8.706413
1790545582.4474,-0.017736,0.019681,-0.373808,-0.021494,0.014663,-0.373808,-0.898535,-0.817895,0.124842,2.676966,1.497411,-9.637881
1790545582.4614,-0.012187,0.027469,-0.369864,-0.014979,0.023627,-0.369864,-0.621711,-0.459723,-0.168980,2.255358,1.125611,-13.519000
1790545582.4757,-0.013416,0.022567,-0.374670,-0.013885,0.022885,-0.374670,0.286468,0.234766,-0.818546,0.568927,0.939711,-15.110259
1790545582.4896,-0.009641,0.013035,-0.389685,-0.010914,0.015990,-0.389685,0.668922,0.081784,-1.324843,-1.845736,1.125611,-10.841028
1790545582.5035,-0.000309,0.005071,-0.411842,-0.003490,0.008347,-0.411842,0.664066,-0.435441,-1.124510,-0.465928,1.794851,-6.144874
1790545582.5176,0.004993,-0.001186,-0.425196,0.002448,0.001674,-0.425196,0.474660,-0.386875,-0.688633,2.063719,2.017931,-10.220049
1790545582.5315,0.023758,-0.012002,-0.436343,0.017365,-0.007900,-0.436343,0.745413,-1.055867,-1.007952,-3.340527,1.237151,-12.432287
1790545582.5455,0.035340,-0.021929,-0.463392,0.029947,-0.017720,-0.463392,0.793979,-0.590851,-1.262922,-1.309144,3.282051,-10.181238
1790545582.5593,0.043736,-0.028744,-0.499363,0.039599,-0.025437,-0.499363,0.649496,-0.366234,-1.367338,-0.964192,3.170511,-6.765853
1790545582.5733,0.044474,-0.034867,-0.519255,0.043011,-0.032038,-0.519255,0.481945,0.022291,-1.131795,0.683911,2.092291,-7.774944
1790545582.5875,0.041840,-0.043193,-0.541461,0.042191,-0.039847,-0.541461,0.651924,0.328255,-0.966671,-0.695896,2.873071,-10.103616
1790545582.6015,0.028944,-0.046323,-0.546863,0.032918,-0.044380,-0.546863,0.131058,1.004532,-0.710487,-0.082648,0.010211,-16.895574
1790545582.6155,0.029287,-0.037649,-0.557176,0.030376,-0.039668,-0.557176,-0.695773,0.280903,-0.666778,-6.521750,0.121751,-15.653616
1790545582.6294,0.028820,-0.025593,-0.560912,0.029287,-0.029816,-0.560912,-1.015093,0.362251,-0.529580,-4.988630,-1.179549,-10.258860
1790545582.6434,0.018173,-0.007138,-0.566881,0.021507,-0.013941,-0.566881,-1.450970,0.977821,-0.482229,-1.385800,-0.361589,-5.717951
1790545582.6574,0.007013,0.010630,-0.577633,0.011361,0.003259,-0.577633,-1.243351,0.981463,-0.527152,-0.312616,0.493551,-2.224944
1790545582.6713,-0.005244,0.019418,-0.586326,-0.000262,0.014570,-0.586326,-0.734626,1.107734,-0.499227,-0.887536,0.010211,-4.941727
1790545582.6853,-0.009729,0.026306,-0.593377,-0.006889,0.022785,-0.593377,-0.507581,0.480023,-0.427592,-1.654096,2.426911,-16.352217
1790545582.6992,-0.005263,0.021940,-0.591692,-0.005751,0.022194,-0.591692,0.264613,-0.306741,0.066564,-0.619240,1.980751,-18.137532
1790545582.7133,-0.008651,0.020971,-0.581735,-0.007781,0.021338,-0.581735,0.044853,0.114566,0.744055,0.108991,2.203831,-13.402567
1790545582.7273,-0.009668,0.014734,-0.567453,-0.009102,0.016715,-0.567453,0.291324,-0.091838,1.033021,-0.120976,-0.324409,-7.115154
1790545582.7414,-0.007097,0.002585,-0.552157,-0.007698,0.006824,-0.552157,0.764840,0.039289,0.598358,-3.608823,-0.026969,-5.950818
1790545582.7560,-0.025373,-0.007477,-0.549467,-0.020071,-0.003186,-0.549467,0.615500,1.087094,0.651780,1.488799,0.419191,-8.900469
1790545582.7699,-0.040890,-0.017304,-0.539169,-0.034644,-0.013069,-0.539169,0.751484,1.021530,0.736770,0.377287,2.575631,-9.560259
1790545582.7837,-0.052660,-0.028109,-0.526216,-0.047255,-0.023597,-0.526216,0.806121,0.699782,0.961386,1.143847,2.426911,-9.754315
1790545582.7974,-0.061035,-0.033216,-0.510944,-0.056901,-0.030330,-0.510944,0.399383,0.529802,0.988097,-0.005993,2.947431,-10.569350
1790545582.8112,-0.060184,-0.035036,-0.493983,-0.059199,-0.033624,-0.493983,0.160197,-0.134333,1.006309,-0.197632,2.761531,-9.249770
1790545582.8256,-0.053496,-0.037947,-0.479824,-0.055207,-0.036650,-0.479824,0.138342,-0.549570,0.927390,0.032335,1.534591,-11.966553
1790545582.8396,-0.048362,-0.035792,-0.468361,-0.050415,-0.036049,-0.468361,-0.193118,-0.498576,0.734342,1.565455,1.832031,-12.936833
1790545582.8537,-0.047527,-0.034751,-0.463883,-0.048394,-0.035141,-0.463883,-0.217401,-0.343166,0.632354,4.631693,-0.696209,-11.035084
1790545582.8677,-0.036957,-0.027824,-0.457087,-0.040388,-0.030019,-0.457087,-0.573145,-0.970877,0.492727,2.370342,0.456371,-8.163056
1790545582.8816,-0.031255,-0.018512,-0.450164,-0.033995,-0.021964,-0.450164,-0.792905,-0.590851,0.519439,1.718767,-0.175689,-8.007811
1790545582.8956,-0.023036,-0.004678,-0.445911,-0.026324,-0.009864,-0.445911,-1.084299,-0.868889,0.408952,3.711822,0.158931,-9.094525
1790545582.9096,-0.008337,0.012239,-0.443105,-0.013733,0.005608,-0.443105,-1.280990,-1.304766,0.180693,3.865134,0.679451,-10.220049
1790545582.9236,0.002298,0.032741,-0.445088,-0.002511,0.024601,-0.445088,-1.458254,-1.007301,0.044709,3.481854,1.794851,-8.512357
1790545582.9375,-0.004577,0.034582,-0.442538,-0.003957,0.031588,-0.442538,-0.304819,0.429029,-0.410594,4.363398,-1.662888,-15.692427
1790545582.9516,0.000906,0.025930,-0.449970,-0.000553,0.027627,-0.449970,0.570577,-0.108836,-1.094156,-1.615768,1.311511,-14.295224
1790545582.9660,0.007975,0.022617,-0.496531,0.005416,0.024120,-0.496531,0.552365,-0.480364,-1.054090,1.872079,4.137191,-4.398371
1790545582.9807,0.000152,0.019273,-0.501381,0.001731,0.020727,-0.501381,0.263399,0.376821,-0.539293,3.481854,1.683311,-6.571797
1790545582.9962,0.014213,0.016504,-0.510194,0.010468,0.017771,-0.510194,0.200264,-0.653986,-0.800334,-2.842263,2.575631,-11.888930
1790545583.0112,0.021494,0.007549,-0.526676,0.018186,0.010615,-0.526676,0.597288,-0.241178,-1.159720,-1.079176,2.017931,-10.996273
1790545583.0253,0.030183,0.002419,-0.546024,0.026584,0.004878,-0.546024,0.399383,-0.369877,-1.198573,-1.002520,2.315371,-9.094525
1790545583.0403,0.034864,-0.001784,-0.566778,0.032380,0.000215,-0.566778,0.318035,-0.181685,-1.152435,0.492271,1.943571,-7.153965
1790545583.0545,0.037813,-0.010489,-0.582123,0.036183,-0.007278,-0.582123,0.607001,-0.062699,-0.978813,-0.120976,1.385871,-7.348021
1790545583.0686,0.044035,-0.015362,-0.603701,0.041679,-0.012936,-0.603701,0.494086,-0.303099,-0.910821,-0.504256,4.694891,-10.297672
1790545583.0826,0.028273,-0.010597,-0.618331,0.032295,-0.011299,-0.618331,-0.330316,1.225506,-0.765124,0.530599,3.393591,-16.119350
1790545583.0967,0.024279,0.002809,-0.625731,0.026684,-0.001423,-0.625731,-0.961670,0.569869,-0.608499,-5.755190,2.612811,-16.740329
1790545583.1109,0.020744,0.018192,-0.613095,0.022526,0.012307,-0.613095,-1.132864,0.696140,-0.453089,-4.452038,0.642271,-5.834385
1790545583.1248,0.014375,0.025143,-0.612339,0.016820,0.021292,-0.612339,-0.638709,0.737421,-0.236972,-1.730752,-0.250049,-4.320748
1790545583.1387,0.003221,0.036883,-0.618861,0.007300,0.032206,-0.618861,-0.615640,0.813912,-0.416665,0.875551,3.467951,-5.291028
1790545583.1528,0.009904,0.030920,-0.626021,0.009123,0.031305,-0.626021,0.364173,-0.280030,-0.487085,-1.730752,0.902531,-9.909560
1790545583.1669,0.010585,0.023963,-0.616021,0.010146,0.026166,-0.616021,0.559650,-0.271531,0.249899,4.018446,4.025651,-13.208511
1790545583.1808,-0.007117,0.019319,-0.603032,-0.001938,0.021373,-0.603032,0.375100,0.979035,0.748911,5.206613,4.285911,-16.080539
1790545583.1950,-0.011516,0.014102,-0.589194,-0.008643,0.016284,-0.589194,0.320464,0.157061,0.973528,-0.082648,1.534591,-11.927742
1790545583.2089,-0.017488,0.005896,-0.573414,-0.014834,0.009012,-0.573414,0.483159,0.250550,0.863041,0.875551,0.307651,-10.685784
1790545583.2230,-0.029022,-0.004728,-0.553780,-0.024766,-0.000606,-0.553780,0.610644,0.554085,0.984455,1.987063,-0.324409,-8.551168
1790545583.2368,-0.046328,-0.015631,-0.540227,-0.039860,-0.011123,-0.540227,0.764840,1.031243,1.233354,0.990535,1.534591,-7.774944
1790545583.2505,-0.053021,-0.022834,-0.534252,-0.049073,-0.019321,-0.534252,0.569363,0.437528,1.082800,-0.810880,2.649991,-8.473546
1790545583.2643,-0.058829,-0.025406,-0.522530,-0.055902,-0.023580,-0.522530,0.188122,0.285760,1.215142,0.338959,3.096151,-11.617252
1790545583.2782,-0.049711,-0.026681,-0.504823,-0.051568,-0.025751,-0.504823,0.003573,-0.808182,1.160506,0.607255,1.608951,-12.820399
1790545583.2922,-0.044221,-0.022613,-0.486203,-0.046425,-0.023554,-0.486203,-0.377668,-0.606635,1.060946,2.063719,1.311511,-12.742777
1790545583.3062,-0.042939,-0.021300,-0.460475,-0.043985,-0.021976,-0.460475,-0.304819,-0.409944,0.929819,3.520182,-1.253909,-9.366203
1790545583.3209,-0.031909,-0.015212,-0.443735,-0.035532,-0.017242,-0.443735,-0.511224,-0.939309,0.759839,1.450471,0.493551,-8.978091
1790545583.3355,-0.021312,-0.002285,-0.430828,-0.025578,-0.006772,-0.430828,-0.943458,-0.953879,0.663921,1.642111,0.753811,-6.921098
1790545583.3499,-0.014399,0.013049,-0.418400,-0.017752,0.007103,-0.418400,-1.152291,-0.749903,0.570432,3.060246,0.530731,-9.676693
1790545583.3639,-0.000473,0.027559,-0.406430,-0.005657,0.021422,-0.406430,-1.158361,-1.205207,0.224402,2.753622,-0.026969,-10.258860
1790545583.3782,0.008796,0.041929,-0.403293,0.004460,0.035777,-0.403293,-1.104939,-0.802111,-0.122843,3.788478,0.493551,-13.441378
1790545583.3924,0.004129,0.038480,-0.402569,0.004229,0.037669,-0.402569,0.127415,0.480023,-0.678920,0.032335,0.233291,-15.265504
1790545583.4068,0.009217,0.030545,-0.417111,0.007720,0.032682,-0.417111,0.540223,-0.035988,-1.230140,-1.884064,2.501271,-14.411658
1790545583.4213,0.012776,0.031202,-0.503831,0.011259,0.031646,-0.503831,0.267041,-0.361378,-0.926605,2.638638,3.170511,-3.699769
1790545583.4357,0.013543,0.023013,-0.503158,0.012858,0.025603,-0.503158,0.507442,0.004079,-0.532009,0.645583,0.865351,-9.327392
1790545583.4498,0.029365,0.011649,-0.500207,0.024413,0.015835,-0.500207,0.702918,-0.785113,-1.031021,-3.417183,0.419191,-11.656063
1790545583.4637,0.037963,0.002375,-0.529077,0.033898,0.006413,-0.529077,0.750270,-0.416014,-1.319987,-0.082648,2.835891,-8.279490
1790545583.4774,0.044452,-0.004110,-0.557691,0.041286,-0.000953,-0.557691,0.535367,-0.190184,-1.404977,-1.002520,2.315371,-7.153965
1790545583.4910,0.046754,-0.007028,-0.588666,0.045113,-0.005206,-0.588666,0.361745,-0.026275,-1.259280,0.300631,2.575631,-5.368651
1790545583.5050,0.052144,-0.018661,-0.603372,0.050035,-0.014624,-0.603372,0.784266,-0.174400,-1.090514,-1.040848,1.051251,-8.085434
1790545583.5189,0.062365,-0.026695,-0.625109,0.058666,-0.023074,-0.625109,0.673779,-0.541071,-0.859827,-1.577440,2.873071,-8.124245
1790545583.5332,0.030843,-0.018033,-0.629233,0.039190,-0.019545,-0.629233,-0.732197,2.296379,-0.796692,0.645583,0.158931,-15.847672
1790545583.5473,0.039579,-0.004146,-0.623126,0.039462,-0.008765,-0.623126,-1.083085,-0.239964,-0.763910,-8.974740,0.158931,-16.934385
1790545583.5614,0.032025,0.010713,-0.624375,0.034256,0.004870,-0.624375,-1.172931,0.806627,-0.564790,-2.765607,0.010211,-8.900469
1790545583.5759,0.030678,0.027211,-0.627254,0.031751,0.020509,-0.627254,-1.096440,0.539516,-0.393596,-3.915447,1.460231,-4.514804
1790545583.5899,0.024593,0.036661,-0.630445,0.026740,0.031816,-0.630445,-0.836614,0.836980,-0.550221,-1.270816,-0.212869,-2.341378
1790545583.6038,0.011324,0.048382,-0.641824,0.015949,0.043412,-0.641824,-0.686060,1.541183,-0.716558,-2.305671,1.385871,-2.147322
1790545583.6177,0.016789,0.048469,-0.649854,0.016537,0.046952,-0.649854,-0.102058,-0.275174,-0.482229,-0.887536,1.125611,-19.961658
1790545583.6316,0.018201,0.044935,-0.647650,0.017702,0.045540,-0.647650,0.217262,-0.156188,0.172194,0.338959,2.761531,-19.107812
1790545583.6455,0.014233,0.045851,-0.634336,0.015274,0.045758,-0.634336,-0.025567,0.058715,0.884895,0.875551,3.207691,-11.850119
1790545583.6595,0.011484,0.034927,-0.622183,0.012621,0.038177,-0.622183,0.518369,-0.049343,0.979598,0.453943,-1.514168,-5.834385
1790545583.6734,-0.001500,0.022736,-0.615092,0.002736,0.027368,-0.615092,0.887468,0.677928,0.638424,2.063719,1.646131,-7.813756
1790545583.6874,-0.020838,0.013108,-0.608892,-0.013766,0.017386,-0.608892,0.749056,1.123518,0.612927,2.446998,2.129471,-7.153965
1790545583.7012,-0.034657,0.001477,-0.600457,-0.028390,0.006250,-0.600457,0.846187,0.907401,0.796263,-0.044320,2.241011,-10.375294
1790545583.7148,-0.050639,-0.008798,-0.591583,-0.043964,-0.004283,-0.591583,0.812191,1.028815,0.864255,0.990535,3.133331,-9.948371
1790545583.7285,-0.058430,-0.016898,-0.578672,-0.054090,-0.013113,-0.578672,0.598502,0.455740,1.097370,0.032335,2.947431,-11.190329
1790545583.7425,-0.051810,-0.021167,-0.562750,-0.052494,-0.018751,-0.562750,0.213619,-0.583566,1.099798,-0.274288,1.497411,-12.665154
1790545583.7563,-0.044071,-0.019095,-0.547458,-0.046598,-0.018992,-0.547458,-0.244112,-0.734119,0.956530,1.297159,1.051251,-11.927742
1790545583.7703,-0.043044,-0.020045,-0.528564,-0.044110,-0.019729,-0.528564,-0.123912,-0.373519,0.960172,3.405198,-1.030829,-10.297672
1790545583.7843,-0.037428,-0.016509,-0.512587,-0.039432,-0.017475,-0.512587,-0.366741,-0.737762,0.899465,3.175230,0.270471,-8.007811
1790545583.7982,-0.030349,-0.010454,-0.497288,-0.033074,-0.012561,-0.497288,-0.592571,-0.780257,0.719772,3.021918,-0.547489,-9.831937
1790545583.8122,-0.019273,0.000944,-0.485012,-0.023413,-0.003107,-0.485012,-0.953171,-1.055867,0.537651,2.945262,-0.361589,-9.133336
1790545583.8263,-0.011478,0.017818,-0.482626,-0.015059,0.011541,-0.482626,-1.254279,-0.823966,0.276610,3.903462,0.902531,-9.754315
1790545583.8412,0.003454,0.037108,-0.481787,-0.002100,0.029438,-0.481787,-1.287060,-1.211277,0.211046,2.178703,1.757671,-7.852567
1790545583.8555,-0.005606,0.037922,-0.478483,-0.004554,0.035377,-0.478483,-0.172478,0.528588,-0.167766,3.980118,-0.026969,-14.566903
1790545583.8695,-0.004404,0.026967,-0.485558,-0.004449,0.029490,-0.485558,0.787908,0.229909,-0.896251,-3.455511,2.724351,-15.808861
1790545583.8836,0.008245,0.016843,-0.495425,0.004437,0.020637,-0.495425,0.729630,-0.624847,-1.023736,-1.922392,2.241011,-11.927742
1790545583.8975,0.005740,0.013763,-0.520008,0.005349,0.015825,-0.520008,0.250043,-0.051772,-0.508940,4.478381,1.497411,-7.153965
1790545583.9115,0.014237,0.005993,-0.517229,0.011571,0.008943,-0.517229,0.484373,-0.428156,-0.583002,-1.539112,0.642271,-10.841028
1790545583.9255,0.029918,-0.006628,-0.522081,0.024414,-0.001957,-0.522081,0.875327,-0.797255,-0.998239,-3.570495,1.460231,-11.190329
1790545583.9391,0.039669,-0.016023,-0.552923,0.035092,-0.011803,-0.552923,0.887468,-0.501004,-1.057732,-0.772552,2.873071,-5.252217
1790545583.9530,0.048905,-0.019723,-0.583479,0.044761,-0.017347,-0.583479,0.488015,-0.508289,-1.091728,-0.312616,3.356411,-5.407462
1790545583.9669,0.052903,-0.023776,-0.603980,0.050461,-0.021847,-0.603980,0.337462,-0.175614,-1.124510,0.223975,2.166651,-7.464455
1790545583.9809,0.058206,-0.029003,-0.627293,0.055882,-0.026856,-0.627293,0.543866,-0.204754,-0.964243,-1.194160,4.620531,-8.822846
1790545583.9948,0.039618,-0.032752,-0.632084,0.044497,-0.030984,-0.632084,0.200264,1.325066,-0.907178,3.136902,1.385871,-15.032637
1790545584.0089,0.037570,-0.017581,-0.644924,0.039648,-0.021602,-0.644924,-1.061230,0.449669,-0.659493,-6.521750,3.393591,-15.964105
1790545584.0228,0.032557,-0.003837,-0.640205,0.034685,-0.009167,-0.640205,-1.120723,0.687641,-0.453089,-4.375383,-0.584669,-8.978091
1790545584.0366,0.030831,0.010296,-0.640122,0.031987,0.004457,-0.640122,-1.132864,0.470309,-0.398453,-3.647151,-0.064149,-6.998721
1790545584.0506,0.022016,0.028678,-0.651771,0.025008,0.021412,-0.651771,-1.225139,0.800556,-0.524724,-0.465928,1.423051,-3.816203
1790545584.0646,0.017436,0.037544,-0.657759,0.019707,0.032704,-0.657759,-0.728555,0.677928,-0.427592,-2.842263,0.196111,-6.028441
1790545584.0785,0.008966,0.052675,-0.665746,0.012188,0.046684,-0.665746,-1.051517,0.849122,-0.360814,-1.577440,1.683311,-6.028441
1790545584.0932,0.013068,0.053167,-0.666446,0.012804,0.051222,-0.666446,-0.095987,-0.231465,-0.005071,-1.654096,1.869211,-17.400119
1790545584.1073,0.011935,0.048467,-0.656167,0.012196,0.049294,-0.656167,0.250043,-0.147689,0.654208,2.102047,1.014071,-14.644525
1790545584.1214,0.010370,0.042574,-0.642685,0.010918,0.044590,-0.642685,0.352031,-0.137976,0.938318,0.913879,0.939711,-10.336483
1790545584.1356,0.001318,0.039843,-0.631993,0.004198,0.041267,-0.631993,0.359316,0.483665,0.626283,0.415615,2.798711,-5.252217
1790545584.1497,-0.007435,0.030956,-0.620672,-0.003945,0.034049,-0.620672,0.603359,0.376821,0.733128,1.833751,1.385871,-8.861658
1790545584.1634,-0.019016,0.019353,-0.610292,-0.014495,0.023762,-0.610292,0.874112,0.616007,0.788978,1.680439,2.389731,-9.133336
1790545584.1772,-0.037386,0.008404,-0.596399,-0.030519,0.013011,-0.596399,0.807335,1.030029,1.019665,3.098574,2.538451,-10.336483
1790545584.1909,-0.047825,0.001133,-0.587160,-0.042633,0.004696,-0.587160,0.602145,0.662144,1.070659,-0.580912,3.765391,-9.909560
1790545584.2050,-0.053844,-0.007333,-0.575645,-0.050480,-0.003724,-0.575645,0.623999,0.300330,1.028164,0.147319,2.798711,-9.443825
1790545584.2189,-0.040618,-0.013803,-0.561283,-0.043577,-0.010779,-0.561283,0.410310,-1.072865,0.957744,0.032335,2.241011,-13.363756
1790545584.2331,-0.029710,-0.012621,-0.545446,-0.033870,-0.012069,-0.545446,-0.162765,-0.957522,0.751340,1.795423,0.976891,-11.772497
1790545584.2472,-0.024230,-0.009559,-0.520651,-0.027122,-0.010312,-0.520651,-0.422591,-0.707408,0.768338,3.673494,-1.514168,-9.715504
1790545584.2613,-0.019375,-0.001131,-0.502468,-0.021699,-0.003885,-0.502468,-0.735840,-0.751117,0.677277,4.746677,-0.435949,-8.046623
1790545584.2757,-0.006217,0.015471,-0.492869,-0.010862,0.009664,-0.492869,-1.199642,-1.140857,0.360386,2.485326,1.051251,-8.822846
1790545584.2895,0.007727,0.030493,-0.483632,0.002150,0.024244,-0.483632,-1.171717,-1.327835,0.252327,4.248414,0.344831,-9.172147
1790545584.3036,0.015272,0.041418,-0.478446,0.011335,0.036266,-0.478446,-0.783191,-0.735334,0.310606,1.565455,1.497411,-7.658511
1790545584.3176,0.003626,0.034282,-0.480649,0.005939,0.034877,-0.480649,0.474660,0.811483,-0.173837,1.757095,2.092291,-14.528091
1790545584.3318,0.007179,0.028636,-0.491219,0.006807,0.030508,-0.491219,0.403025,-0.020204,-0.773623,-1.845736,2.538451,-13.286133
1790545584.3462,0.011468,0.027132,-0.509688,0.010069,0.028145,-0.509688,0.143199,-0.290958,-0.907178,2.025391,1.794851,-7.037532
1790545584.3607,0.013837,0.022611,-0.523643,0.012707,0.024271,-0.523643,0.358102,-0.180471,-0.590287,1.718767,2.092291,-7.774944
1790545584.3749,0.022063,0.012266,-0.526698,0.019256,0.015867,-0.526698,0.681064,-0.423299,-0.644924,-1.040848,1.088431,-10.763406
1790545584.3889,0.036540,-0.001767,-0.540779,0.031355,0.003523,-0.540779,0.999169,-0.769330,-0.984884,-1.922392,1.683311,-9.055714
1790545584.4025,0.047408,-0.008790,-0.562754,0.042592,-0.005096,-0.562754,0.593646,-0.684340,-1.031021,0.147319,2.724351,-8.589979
1790545584.4162,0.049524,-0.011794,-0.585657,0.047444,-0.009785,-0.585657,0.296181,-0.105194,-1.027379,1.182175,2.873071,-8.434735
1790545584.4302,0.055237,-0.015621,-0.601189,0.052899,-0.013870,-0.601189,0.243973,-0.242392,-1.046805,-0.695896,1.646131,-9.948371
1790545584.4440,0.061175,-0.018162,-0.619606,0.058692,-0.016874,-0.619606,0.197835,-0.235107,-0.901108,-1.577440,2.203831,-9.599070
1790545584.4579,0.045062,-0.020226,-0.633233,0.049151,-0.019220,-0.633233,0.101918,1.264358,-0.865898,0.070663,2.612811,-18.525644
1790545584.4719,0.038128,-0.008655,-0.644750,0.041435,-0.011825,-0.644750,-0.865753,0.823625,-0.642495,-4.873646,1.423051,-11.306763
1790545584.4859,0.030409,0.005609,-0.637309,0.033717,0.000379,-0.637309,-1.238495,0.890403,-0.620641,-3.378855,-1.476988,-7.736133
1790545584.4999,0.025399,0.017789,-0.634946,0.027894,0.012566,-0.634946,-1.086727,0.715566,-0.460374,-2.727279,-1.105189,-5.291028
1790545584.5139,0.016308,0.034559,-0.643268,0.019784,0.027961,-0.643268,-1.225139,0.896473,-0.444590,-1.539112,0.939711,-5.873196
1790545584.5277,0.009353,0.045531,-0.648182,0.012482,0.040260,-0.648182,-0.927674,0.833338,-0.300107,-2.573967,-0.175689,-5.756762
1790545584.5416,0.013105,0.042941,-0.646344,0.012918,0.042137,-0.646344,0.071565,-0.236321,0.003428,-1.155832,0.270471,-17.477742
1790545584.5555,0.007373,0.039314,-0.637488,0.009037,0.040161,-0.637488,0.219690,0.195913,0.780479,1.642111,2.017931,-15.187882
1790545584.5695,0.001259,0.030510,-0.624284,0.003592,0.033405,-0.624284,0.590003,0.089069,1.196930,2.217030,1.423051,-10.724595
1790545584.5836,-0.004991,0.020872,-0.617403,-0.002416,0.024632,-0.617403,0.830403,0.285760,0.852113,0.070663,1.497411,-3.117602
1790545584.5979,-0.021213,0.017005,-0.615987,-0.015574,0.019293,-0.615987,0.348389,0.716780,0.736770,4.938317,2.724351,-7.386832
1790545584.6119,-0.031594,0.004606,-0.605975,-0.026788,0.009012,-0.605975,0.854686,0.504305,0.839972,2.408670,1.906391,-11.462007
1790545584.6255,-0.048042,-0.005706,-0.598416,-0.041666,-0.001290,-0.598416,0.804906,0.940182,1.079158,2.408670,3.021791,-9.637881
1790545584.6391,-0.060352,-0.010663,-0.592374,-0.054746,-0.007852,-0.592374,0.451591,0.765346,1.139865,0.300631,3.951291,-9.521448
1790545584.6530,-0.062927,-0.017107,-0.580877,-0.060473,-0.014330,-0.580877,0.458876,0.096354,1.149578,-0.580912,2.761531,-9.987182
1790545584.6670,-0.051784,-0.021716,-0.563599,-0.054391,-0.019500,-0.563599,0.235474,-0.955093,1.059732,0.722239,1.460231,-12.471098
1790545584.6809,-0.041777,-0.020465,-0.547567,-0.045561,-0.020176,-0.547567,-0.179763,-0.883459,0.861827,1.412143,1.088431,-12.665154
1790545584.6948,-0.038956,-0.018909,-0.521205,-0.040938,-0.019289,-0.521205,-0.275680,-0.543499,0.924962,3.750150,-0.473129,-9.133336
1790545584.7088,-0.033959,-0.012563,-0.499330,-0.036053,-0.014581,-0.499330,-0.602284,-0.690410,0.904322,3.481854,-0.212869,-9.055714
1790545584.7226,-0.025947,-0.002299,-0.482929,-0.028978,-0.005984,-0.482929,-0.887608,-0.850677,0.510940,3.635166,-0.473129,-10.181238
1790545584.7365,-0.015899,0.012545,-0.476267,-0.019823,0.006987,-0.476267,-1.146220,-0.973305,0.272968,3.175230,0.530731,-8.784035
1790545584.7505,-0.005549,0.028572,-0.479698,-0.009831,0.022096,-0.479698,-1.174145,-1.046154,0.101774,3.750150,1.088431,-7.348021
1790545584.7645,-0.001451,0.035585,-0.483881,-0.003965,0.031538,-0.483881,-0.476014,-0.458509,0.083562,2.332014,2.129471,-9.016902
1790545584.7786,-0.008471,0.028452,-0.485329,-0.007119,0.029378,-0.485329,0.451591,0.585653,-0.528366,0.683911,1.051251,-10.996273
1790545584.7925,0.001192,0.019888,-0.492760,-0.001301,0.022735,-0.492760,0.603359,-0.300671,-1.162148,-3.570495,1.608951,-11.500819
1790545584.8065,0.001823,0.013372,-0.513184,0.000886,0.016181,-0.513184,0.503799,0.099996,-1.124510,0.798895,1.720491,-7.852567
1790545584.8205,0.000957,0.009861,-0.528484,0.000935,0.011757,-0.528484,0.262185,-0.055414,-0.640067,3.788478,1.571771,-9.016902
1790545584.8347,0.011713,0.001856,-0.537808,0.008480,0.004826,-0.537808,0.573005,-0.491291,-0.859827,-2.382327,1.869211,-10.530539
1790545584.8494,0.025245,-0.013440,-0.544287,0.020215,-0.007960,-0.544287,0.993098,-0.661271,-1.027379,-2.190688,0.902531,-10.685784
1790545584.8631,0.035015,-0.020040,-0.564308,0.030575,-0.016416,-0.564308,0.528082,-0.418443,-1.108726,-1.845736,1.757671,-6.998721
1790545584.8770,0.033548,-0.022411,-0.567433,0.032656,-0.020612,-0.567433,0.065494,0.283332,-0.854970,-0.887536,0.084571,-7.930189
1790545584.8910,0.032758,-0.023979,-0.564793,0.032727,-0.022969,-0.564793,-0.027995,0.282117,-0.710487,-2.535639,-0.659029,-11.112707
1790545584.9049,0.035505,-0.021000,-0.569610,0.034671,-0.021591,-0.569610,-0.250183,0.006507,-0.604857,-2.650623,1.237151,-11.694875
1790545584.9189,0.025910,-0.013583,-0.573024,0.028538,-0.015985,-0.573024,-0.558575,0.796914,-0.315891,-1.385800,1.571771,-13.014455
1790545584.9329,0.008172,-0.000786,-0.580131,0.014282,-0.005346,-0.580131,-0.900963,1.342063,-0.256398,-0.312616,1.720491,-9.210958
1790545584.9469,0.000237,0.012207,-0.583857,0.004450,0.006941,-0.583857,-0.972598,0.840623,-0.354744,-2.918919,0.753811,-8.434735
1790545584.9611,-0.009312,0.022825,-0.586288,-0.005183,0.018060,-0.586288,-0.779549,0.851550,-0.272182,-1.462456,1.014071,-8.240679
1790545584.9750,-0.011849,0.033285,-0.589298,-0.009849,0.028718,-0.589298,-0.754052,0.397461,-0.232115,-2.688951,1.869211,-10.336483
1790545584.9891,-0.009162,0.031568,-0.587855,-0.009368,0.030713,-0.587855,0.144413,-0.244820,0.180693,0.607255,3.282051,-13.557812
1790545585.0029,-0.012984,0.030952,-0.581362,-0.011900,0.030880,-0.581362,0.082492,0.130350,0.714915,0.568927,3.728211,-13.130889
1790545585.0170,-0.020048,0.025028,-0.570003,-0.017603,0.026784,-0.570003,0.422452,0.153418,1.294061,2.408670,2.649991,-10.918651
1790545585.0310,-0.021289,0.012719,-0.546332,-0.020183,0.016938,-0.546332,0.752698,-0.137976,1.416690,-0.120976,0.270471,-6.921098
1790545585.0450,-0.032275,0.003355,-0.530046,-0.028648,0.007430,-0.530046,0.607001,0.594152,1.205429,0.262303,1.014071,-7.658511
1790545585.0589,-0.047937,-0.006441,-0.518680,-0.042150,-0.002280,-0.518680,0.647068,0.838195,1.263708,2.102047,1.534591,-9.793126
1790545585.0748,-0.065158,-0.019722,-0.507071,-0.058256,-0.014489,-0.507071,0.806121,0.852764,1.210285,2.063719,2.315371,-10.491728
1790545585.0893,-0.077520,-0.028649,-0.498993,-0.071741,-0.024401,-0.498993,0.622785,0.676714,1.124081,1.527127,3.058971,-10.569350
1790545585.1034,-0.080946,-0.035696,-0.487072,-0.078185,-0.032308,-0.487072,0.474660,0.154633,1.104655,0.032335,2.649991,-10.646972
1790545585.1177,-0.074475,-0.039500,-0.472726,-0.075588,-0.037342,-0.472726,0.180837,-0.562925,0.935889,0.913879,1.683311,-13.169700
1790545585.1331,-0.069835,-0.040462,-0.459971,-0.071561,-0.039526,-0.459971,-0.077775,-0.521645,0.759839,3.711822,-0.212869,-11.811308
1790545585.1475,-0.063004,-0.039893,-0.448968,-0.065571,-0.039783,-0.448968,-0.172478,-0.719550,0.759839,2.868606,-0.026969,-8.473546
1790545585.1616,-0.057468,-0.036914,-0.437018,-0.059899,-0.037775,-0.437018,-0.363098,-0.624847,0.706416,2.600310,-0.361589,-8.395923
1790545585.1757,-0.048127,-0.030774,-0.423965,-0.051659,-0.032874,-0.423965,-0.597428,-0.828823,0.492727,2.063719,-0.733389,-9.016902
1790545585.1899,-0.041727,-0.020022,-0.425846,-0.044707,-0.023877,-0.425846,-0.860897,-0.703766,0.245042,4.593365,-0.175689,-10.685784
1790545585.2044,-0.026158,-0.001286,-0.428092,-0.031723,-0.008064,-0.428092,-1.340483,-1.212491,-0.085204,2.945262,0.753811,-10.414105
1790545585.2187,-0.011158,0.018312,-0.433280,-0.017328,0.010400,-0.433280,-1.433972,-1.237988,-0.179907,3.136902,0.605091,-8.512357
1790545585.2327,-0.005500,0.032456,-0.449909,-0.009048,0.025839,-0.449909,-0.981097,-0.556855,-0.335318,2.830278,1.608951,-7.503266
1790545585.2470,-0.010551,0.025969,-0.440310,-0.010100,0.025930,-0.440310,0.394526,0.731350,-0.806405,-3.378855,0.828171,-10.025993
1790545585.2612,-0.004744,0.015330,-0.429179,-0.006351,0.018510,-0.429179,0.617929,0.045360,-1.187645,-4.068759,-0.733389,-10.569350
1790545585.2753,0.007517,0.016273,-0.436629,0.003356,0.016944,-0.436629,-0.068062,-0.361378,-0.783336,-7.863229,1.608951,-10.064805
1790545585.2896,0.002324,0.017643,-0.430528,0.002634,0.017434,-0.430528,-0.166407,0.588081,-0.258827,-3.647151,0.828171,-13.441378
1790545585.3036,0.005240,0.016239,-0.433254,0.004458,0.016598,-0.433254,0.001144,0.188629,-0.471301,-6.521750,-0.212869,-11.267951
1790545585.3174,0.011006,0.016666,-0.442347,0.009041,0.016645,-0.442347,-0.029209,0.013792,-0.513796,-5.563550,1.460231,-8.240679
1790545585.3312,0.007931,0.021738,-0.450992,0.008264,0.020210,-0.450992,-0.248969,0.384105,-0.515011,-0.734224,2.724351,-6.882287
1790545585.3454,0.004433,0.029801,-0.458553,0.005582,0.026924,-0.458553,-0.480870,0.380463,-0.474944,-0.465928,2.426911,-7.115154
1790545585.3596,-0.001201,0.035557,-0.466155,0.000834,0.032967,-0.466155,-0.416521,0.505520,-0.476158,0.032335,1.720491,-9.793126
1790545585.3736,0.002636,0.038976,-0.468497,0.002095,0.037173,-0.468497,-0.250183,-0.113693,-0.442162,-1.117504,1.794851,-9.754315
1790545585.3877,0.003651,0.041447,-0.473126,0.003184,0.040165,-0.473126,-0.225900,0.007721,-0.341388,-0.120976,1.199971,-10.375294
1790545585.4017,0.003189,0.047076,-0.480005,0.003188,0.045003,-0.480005,-0.364312,0.119422,-0.432449,0.185647,3.505131,-12.781588
1790545585.4158,0.010799,0.044342,-0.482532,0.008515,0.044540,-0.482532,0.188122,-0.437869,-0.391168,-0.657568,2.649991,-13.402567
1790545585.4297,0.008830,0.041312,-0.494524,0.008736,0.042280,-0.494524,0.382385,-0.025060,0.265683,2.102047,5.438491,-10.452916
1790545585.4438,0.002266,0.028638,-0.495310,0.004207,0.032731,-0.495310,0.911751,0.161917,0.798691,2.370342,1.869211,-8.861658
1790545585.4577,-0.006973,0.016677,-0.490182,-0.003619,0.021493,-0.490182,0.841331,0.328255,1.088871,2.485326,1.608951,-9.754315
1790545585.4717,-0.015190,0.012332,-0.476648,-0.011719,0.015081,-0.476648,0.335033,0.274833,1.419118,1.565455,2.910251,-10.996273
1790545585.4856,-0.015251,0.006886,-0.452781,-0.014192,0.009344,-0.452781,0.243973,-0.139190,1.291633,-1.002520,-0.175689,-9.909560
1790545585.4995,-0.018052,0.005022,-0.431871,-0.016894,0.006318,-0.431871,0.075207,0.085426,1.210285,-0.925864,1.051251,-8.357112
1790545585.5134,-0.027527,0.000789,-0.417841,-0.024337,0.002448,-0.417841,0.257328,0.408388,1.351126,1.297159,1.423051,-9.443825
1790545585.5274,-0.035445,-0.003003,-0.401913,-0.032113,-0.001368,-0.401913,0.242759,0.260263,1.529605,1.488799,2.055111,-9.599070
1790545585.5414,-0.042678,-0.004190,-0.384295,-0.039509,-0.003343,-0.384295,0.084920,0.308829,1.410619,0.300631,2.389731,-8.706413
1790545585.5554,-0.042658,-0.003219,-0.364595,-0.041713,-0.003256,-0.364595,-0.087488,-0.150117,1.311059,-0.389272,2.203831,-8.822846
1790545585.5694,-0.041400,-0.002286,-0.347234,-0.041494,-0.002577,-0.347234,-0.123912,-0.247249,1.138651,0.108991,1.720491,-10.297672
1790545585.5835,-0.039061,0.002179,-0.334120,-0.039791,0.000752,-0.334120,-0.340030,-0.343166,0.973528,0.798895,2.203831,-10.297672
1790545585.5978,-0.033541,0.006246,-0.321010,-0.035416,0.004598,-0.321010,-0.312104,-0.538643,0.865469,0.492271,2.017931,-10.181238
1790545585.6120,-0.026987,0.010786,-0.312950,-0.029516,0.008929,-0.312950,-0.299963,-0.629703,0.673635,1.182175,2.687171,-10.220049
1790545585.6260,-0.020788,0.017833,-0.307562,-0.023406,0.015162,-0.307562,-0.467515,-0.578709,0.486657,0.990535,2.649991,-9.560259
1790545585.6400,-0.013022,0.025576,-0.304812,-0.016138,0.022452,-0.304812,-0.561003,-0.669770,0.235329,1.680439,2.389731,-12.820399
1790545585.6541,-0.015516,0.022279,-0.308892,-0.015703,0.022331,-0.308892,0.129843,0.097568,-0.150768,3.328542,-0.026969,-15.886483
1790545585.6681,-0.012609,0.023822,-0.320326,-0.013537,0.023375,-0.320326,-0.006141,-0.069984,-0.671635,-0.044320,3.244871,-9.482637
1790545585.6821,-0.012943,0.020083,-0.331718,-0.013121,0.021071,-0.331718,0.152912,0.188629,-1.016451,0.453943,-0.324409,-6.959909
1790545585.6961,-0.011715,0.013412,-0.338285,-0.012137,0.015710,-0.338285,0.377528,0.282117,-1.113583,-2.037376,-0.287229,-7.930189
1790545585.7101,-0.003122,0.008320,-0.346101,-0.005826,0.010537,-0.346101,0.326534,-0.300671,-1.083229,-1.424128,0.493551,-6.804665
1790545585.7240,-0.002323,0.004535,-0.355267,-0.003374,0.006335,-0.355267,0.178409,0.166774,-0.891395,-1.270816,-0.101329,-12.238231
1790545585.7379,-0.000810,0.005360,-0.362138,-0.001579,0.005652,-0.362138,-0.159122,0.192271,-0.888966,-2.995575,-0.287229,-12.626343
1790545585.7518,-0.000804,0.008201,-0.371160,-0.001036,0.007436,-0.371160,-0.301177,0.337968,-0.994597,-3.493839,-0.212869,-13.208511
1790545585.7658,-0.003193,0.011665,-0.381781,-0.002546,0.010397,-0.381781,-0.276894,0.412031,-0.954530,-0.849208,0.828171,-8.163056
1790545585.7795,-0.004643,0.018898,-0.393047,-0.004014,0.016347,-0.393047,-0.512438,0.280903,-0.875611,-0.082648,1.497411,-7.930189
1790545585.7931,-0.008840,0.026480,-0.407104,-0.007392,0.023440,-0.407104,-0.533078,0.413245,-0.756625,0.645583,1.608951,-7.891378
1790545585.8071,-0.010067,0.031864,-0.413953,-0.009264,0.029337,-0.413953,-0.395880,0.249336,-0.613356,-0.427600,1.460231,-9.443825
1790545585.8210,-0.009844,0.038936,-0.421135,-0.009670,0.036057,-0.421135,-0.448088,0.104853,-0.568433,0.070663,2.389731,-8.357112
1790545585.8349,-0.013300,0.047451,-0.428690,-0.012211,0.044033,-0.428690,-0.567074,0.348895,-0.481015,0.300631,2.501271,-9.249770
1790545585.8493,-0.014515,0.053728,-0.434301,-0.013824,0.050819,-0.434301,-0.423805,0.227481,-0.496798,-0.465928,3.430771,-15.575993
1790545585.8638,-0.007530,0.049156,-0.438217,-0.009418,0.049655,-0.438217,0.303466,-0.471865,-0.223616,1.105519,3.282051,-17.361308
1790545585.8779,-0.008076,0.046404,-0.464312,-0.008478,0.047379,-0.464312,0.382385,-0.320097,0.424735,4.286742,4.843611,-7.464455
1790545585.8919,-0.009696,0.037162,-0.463105,-0.009331,0.040227,-0.463105,0.695634,-0.186541,0.714915,2.140375,2.129471,-7.386832
1790545585.9059,-0.004782,0.026890,-0.455342,-0.006147,0.030891,-0.455342,0.829189,-0.607849,0.847257,0.875551,2.129471,-5.523895
1790545585.9199,-0.003811,0.015140,-0.443604,-0.004512,0.019865,-0.443604,0.830403,-0.311598,0.977170,1.297159,2.166651,-11.306763
1790545585.9339,-0.020161,0.012947,-0.431269,-0.015466,0.015023,-0.431269,0.199049,0.894045,1.313487,1.603783,3.616671,-12.315854
1790545585.9479,-0.016273,0.011414,-0.404478,-0.016031,0.012497,-0.404478,0.037569,-0.469437,1.562387,-1.615768,1.906391,-14.217602
1790545585.9619,-0.009249,0.012688,-0.380022,-0.011284,0.012630,-0.380022,-0.123912,-0.776614,1.608524,-0.082648,1.943571,-10.297672
1790545585.9759,-0.015467,0.018798,-0.364025,-0.014212,0.016947,-0.364025,-0.535506,0.068428,1.394835,2.485326,0.605091,-10.181238
1790545585.9899,-0.022043,0.017261,-0.347585,-0.019693,0.017167,-0.347585,-0.017068,0.135206,1.313487,2.178703,0.270471,-10.802217
1790545586.0035,-0.020042,0.014349,-0.326368,-0.019938,0.015194,-0.326368,0.177195,-0.229036,1.098584,-1.309144,1.497411,-8.434735
1790545586.0172,-0.019177,0.018492,-0.312895,-0.019405,0.017502,-0.312895,-0.268395,-0.205968,0.954101,-0.159304,2.612811,-8.978091
1790545586.0308,-0.012881,0.023505,-0.297461,-0.014838,0.021704,-0.297461,-0.400737,-0.602992,0.916463,-0.312616,1.757671,-9.987182
1790545586.0448,-0.005944,0.029778,-0.285874,-0.008612,0.027356,-0.285874,-0.457801,-0.681911,0.801119,0.568927,2.017931,-9.754315
1790545586.0587,-0.000234,0.036271,-0.275865,-0.002748,0.033597,-0.275865,-0.462658,-0.592065,0.728271,0.568927,2.166651,-9.560259
1790545586.0727,0.004977,0.043008,-0.266333,0.002660,0.040185,-0.266333,-0.469943,-0.539857,0.674849,0.377287,2.166651,-9.094525
1790545586.0867,-0.005212,0.039310,-0.264012,-0.002850,0.039572,-0.264012,0.189336,0.667000,0.260826,0.913879,1.274331,-16.313406
1790545586.1007,-0.003474,0.025974,-0.259541,-0.003287,0.030053,-0.259541,0.968816,0.177701,-0.428806,-4.222071,2.464091,-11.500819
1790545586.1152,-0.008652,0.019078,-0.271818,-0.007043,0.022370,-0.271818,0.781838,0.552871,-0.699560,-0.810880,6.293630,-7.503266
1790545586.1292,-0.007627,0.009645,-0.281301,-0.007452,0.013463,-0.281301,0.715060,0.204412,-0.851328,-2.075704,2.278191,-10.530539
1790545586.1432,0.000876,0.015250,-0.294635,-0.001622,0.014714,-0.294635,-0.267181,-0.350451,-1.139080,-1.117504,4.248731,-10.918651
1790545586.1572,-0.003644,0.020319,-0.314763,-0.003037,0.018637,-0.314763,-0.307248,0.630576,-1.419546,-0.580912,2.501271,-9.987182
1790545586.1716,-0.005999,0.023874,-0.336019,-0.005110,0.022303,-0.336019,-0.255040,0.588081,-1.431688,-2.190688,1.088431,-8.589979
1790545586.1855,-0.002457,0.028424,-0.356037,-0.003253,0.026588,-0.356037,-0.297535,0.187414,-1.540961,-2.114032,1.720491,-8.551168
1790545586.1996,-0.007649,0.032445,-0.378775,-0.006330,0.030688,-0.378775,-0.308462,0.657287,-1.413476,0.070663,1.162791,-9.831937
1790545586.2136,-0.014306,0.040687,-0.401745,-0.011913,0.037687,-0.401745,-0.608355,0.754419,-1.386765,0.415615,1.237151,-10.491728
1790545586.2276,-0.024163,0.052461,-0.426400,-0.020488,0.048029,-0.426400,-0.860897,0.960823,-1.369767,1.373815,1.311511,-12.044175
1790545586.2412,-0.032326,0.063392,-0.449608,-0.028775,0.058783,-0.449608,-0.856040,0.863692,-1.273849,0.990535,0.530731,-10.142427
1790545586.2548,-0.038726,0.072819,-0.468471,-0.035740,0.068608,-0.468471,-0.752838,0.705853,-1.028593,0.683911,0.456371,-9.210958
1790545586.2689,-0.044410,0.081577,-0.482609,-0.041809,0.077686,-0.482609,-0.628995,0.574726,-0.749340,0.722239,1.237151,-7.930189
1790545586.2830,-0.037864,0.075320,-0.486499,-0.039047,0.076030,-0.486499,0.359316,-0.379590,-0.324390,0.223975,1.051251,-13.713056
1790545586.2968,-0.034600,0.062547,-0.486902,-0.035934,0.066592,-0.486902,0.961531,-0.515574,0.372527,3.865134,3.505131,-10.375294
1790545586.3107,-0.035935,0.050547,-0.483027,-0.035935,0.055360,-0.483027,0.921464,-0.283673,0.702774,4.670021,3.876931,-9.909560
1790545586.3246,-0.028752,0.042230,-0.472863,-0.030907,0.046169,-0.472863,0.638569,-0.796041,0.808404,1.872079,3.133331,-8.900469
1790545586.3386,-0.020309,0.035136,-0.459924,-0.023488,0.038446,-0.459924,0.541438,-0.817895,0.867897,0.568927,2.389731,-7.425644
1790545586.3527,-0.019970,0.029788,-0.446444,-0.021025,0.032385,-0.446444,0.484373,-0.345594,1.060946,1.757095,3.319231,-7.309210
1790545586.3670,-0.016845,0.023492,-0.427802,-0.018099,0.026160,-0.427802,0.524440,-0.497362,1.325629,0.645583,3.765391,-9.016902
1790545586.3809,-0.013833,0.015539,-0.405062,-0.015113,0.018725,-0.405062,0.695634,-0.550784,1.608524,0.798895,4.062831,-8.201867
1790545586.3950,-0.023249,0.010318,-0.379807,-0.020808,0.012840,-0.379807,0.348389,0.289402,1.898704,1.488799,2.538451,-11.384385
1790545586.4089,-0.023457,0.010456,-0.345555,-0.022662,0.011171,-0.345555,-0.095987,-0.135547,2.088110,-3.647151,1.683311,-11.073895
1790545586.4230,-0.017447,0.011244,-0.309270,-0.019011,0.011223,-0.309270,-0.148195,-0.618776,2.203454,-2.842263,1.274331,-9.055714
1790545586.4369,-0.013349,0.012277,-0.279810,-0.015048,0.011961,-0.279810,-0.212545,-0.509503,1.910845,-1.884064,0.307651,-10.414105
1790545586.4509,-0.015381,0.014712,-0.259187,-0.015281,0.013887,-0.259187,-0.336387,-0.072412,1.453114,-0.389272,-0.361589,-10.336483
1790545586.4646,-0.014189,0.014220,-0.243859,-0.014517,0.014120,-0.243859,-0.109343,-0.170758,0.990526,-1.385800,-0.212869,-10.918651
1790545586.4782,-0.010216,0.016672,-0.232433,-0.011507,0.015906,-0.232433,-0.256254,-0.321311,0.660279,-1.309144,0.828171,-10.181238
1790545586.4922,-0.009749,0.020174,-0.227164,-0.010276,0.018893,-0.227164,-0.309676,-0.198683,0.537651,1.373815,1.088431,-10.646972
1790545586.5062,-0.005822,0.020519,-0.220651,-0.007158,0.020031,-0.220651,-0.043779,-0.339523,0.387097,-0.120976,1.720491,-10.414105
1790545586.5200,-0.005238,0.020936,-0.219710,-0.005814,0.020665,-0.219710,-0.048635,-0.119764,0.163695,0.798895,1.385871,-8.745224
1790545586.5339,-0.005021,0.021865,-0.219921,-0.005259,0.021505,-0.219921,-0.012211,-0.032345,-0.047566,0.492271,2.352551,-8.434735
1790545586.5479,-0.009706,0.013114,-0.226081,-0.008372,0.015631,-0.226081,0.593646,0.461810,-0.423950,-0.695896,1.423051,-13.480189
1790545586.5619,-0.014481,0.002152,-0.233793,-0.012648,0.006195,-0.233793,0.838902,0.532231,-0.692275,-0.772552,2.017931,-8.745224
1790545586.5758,-0.007902,0.004022,-0.240988,-0.009326,0.004674,-0.240988,0.009643,-0.333453,-0.842829,0.108991,4.174371,-10.608161
1790545586.5898,-0.008434,0.004183,-0.256404,-0.008701,0.004331,-0.256404,0.043639,0.215340,-1.120867,0.415615,2.575631,-11.423196
1790545586.6039,-0.010149,0.007354,-0.275131,-0.009715,0.006447,-0.275131,-0.142124,0.368322,-1.391621,0.032335,2.017931,-7.580888
1790545586.6185,-0.005574,0.011525,-0.295725,-0.006816,0.010001,-0.295725,-0.255040,-0.056628,-1.454757,-0.005993,1.646131,-9.055714
1790545586.6325,-0.002043,0.014812,-0.317003,-0.003475,0.013369,-0.317003,-0.257468,0.070857,-1.531247,-0.734224,0.939711,-9.172147
1790545586.6466,-0.000590,0.017966,-0.336989,-0.001456,0.016587,-0.336989,-0.229543,0.164346,-1.398906,-0.159304,1.274331,-8.861658
1790545586.6605,-0.005519,0.021924,-0.357171,-0.004300,0.020323,-0.357171,-0.354599,0.532231,-1.170647,0.913879,0.419191,-11.112707
1790545586.6744,-0.013832,0.029798,-0.376126,-0.010972,0.026955,-0.376126,-0.621711,0.725279,-1.023736,1.718767,0.753811,-11.151518
1790545586.6884,-0.022458,0.040149,-0.392870,-0.019012,0.036191,-0.392870,-0.788048,0.744706,-0.887752,1.258831,0.716631,-9.482637
1790545586.7020,-0.030474,0.048278,-0.404871,-0.027036,0.044652,-0.404871,-0.670276,0.711924,-0.654637,0.722239,0.382011,-9.055714
1790545586.7156,-0.038059,0.054685,-0.412978,-0.034752,0.051675,-0.412978,-0.535506,0.658501,-0.434877,0.453943,0.567911,-8.240679
1790545586.7296,-0.042590,0.058964,-0.416560,-0.040239,0.056777,-0.416560,-0.378882,0.410817,-0.244257,0.147319,0.753811,-10.336483
1790545586.7436,-0.037579,0.054160,-0.416205,-0.038377,0.054945,-0.416205,0.259757,-0.389303,0.022854,0.875551,1.014071,-11.927742
1790545586.7575,-0.030778,0.043396,-0.412816,-0.033058,0.046860,-0.412816,0.710203,-0.619990,0.326390,1.565455,1.720491,-12.820399
1790545586.7715,-0.027105,0.034514,-0.407277,-0.028891,0.038218,-0.407277,0.713846,-0.596921,0.747697,3.328542,3.765391,-9.172147
1790545586.7856,-0.017942,0.023662,-0.394108,-0.021226,0.028029,-0.394108,0.780624,-0.944166,1.028164,1.680439,2.687171,-9.831937
1790545586.7996,-0.015121,0.013100,-0.378805,-0.016953,0.017578,-0.378805,0.813405,-0.568996,1.300132,2.102047,2.910251,-8.279490
1790545586.8136,-0.018842,0.005320,-0.358654,-0.018275,0.008998,-0.358654,0.673779,-0.055414,1.542960,1.182175,3.914111,-8.395923
1790545586.8276,-0.027369,0.003324,-0.338237,-0.024641,0.005026,-0.338237,0.131058,0.358608,1.576956,0.415615,2.835891,-12.238231
