t,imu_roll,imu_pitch,imu_yaw,lpf_roll,lpf_pitch,lpf_yaw,gyro_x,gyro_y,gyro_z,acc_x,acc_y,acc_z
1790541960.0101,-0.013468,-0.017983,0.008414,-0.009427,-0.012588,0.008414,0.017907,0.011437,0.005319,0.338959,1.311511,-9.793126
1790541960.0255,-0.017784,-0.019560,0.009286,-0.015277,-0.017469,0.009286,-0.016089,-0.006776,-0.001966,0.453943,1.311511,-10.181238
1790541960.0393,-0.010889,-0.018441,0.007856,-0.012205,-0.018149,0.007856,-0.030659,-0.007990,-0.000752,0.185647,1.311511,-9.831937
1790541960.0529,-0.004364,-0.018261,0.006342,-0.006716,-0.018227,0.006342,-0.017303,-0.015275,-0.004395,0.070663,1.348691,-10.220049
1790541960.0670,-0.000463,-0.019177,0.005045,-0.002339,-0.018892,0.005045,0.006979,-0.006776,-0.004395,0.070663,1.311511,-10.258860
1790541960.0809,-0.003361,-0.018443,0.005788,-0.003054,-0.018577,0.005788,-0.014875,-0.001919,-0.011679,0.415615,1.385871,-10.297672
1790541960.0950,-0.003674,-0.016690,0.005809,-0.003488,-0.017256,0.005809,-0.071940,0.027220,-0.018964,0.262303,1.423051,-10.297672
1790541960.1095,-0.005029,-0.014101,0.005406,-0.004567,-0.015047,0.005406,-0.143574,0.103711,-0.028677,0.262303,1.385871,-9.909560
1790541960.1236,-0.001601,-0.011801,0.004061,-0.002491,-0.012775,0.004061,-0.187283,0.103711,0.035672,-0.159304,1.311511,-9.637881
1790541960.1375,0.000525,-0.009778,0.005147,-0.000380,-0.010677,0.005147,-0.142360,0.064859,0.147373,-0.082648,1.348691,-9.521448
1790541960.1515,-0.000086,-0.010751,0.008176,-0.000174,-0.010729,0.008176,-0.034301,-0.012846,0.328280,0.223975,1.199971,-9.521448
1790541960.1653,-0.006649,-0.013708,0.014213,-0.004706,-0.012814,0.014213,0.079828,-0.004347,0.507973,0.875551,1.125611,-9.560259
1790541960.1793,-0.012352,-0.019834,0.020334,-0.010058,-0.017728,0.020334,0.085899,0.021150,0.624531,0.875551,0.753811,-10.258860
1790541960.1932,0.005661,-0.015096,0.039777,0.000946,-0.015886,0.039777,-0.088938,-0.204681,0.585678,-1.922392,1.757671,-9.482637
1790541960.2072,0.009054,-0.015565,0.042878,0.006621,-0.015662,0.042878,-0.063441,0.024792,0.401129,-0.580912,1.348691,-11.500819
1790541960.2212,0.011570,-0.020479,0.036230,0.010086,-0.019034,0.036230,0.030048,-0.033487,0.319781,-0.350944,0.753811,-11.656063
1790541960.2349,0.006364,-0.019726,0.042893,0.007481,-0.019518,0.042893,0.054331,0.077000,0.361062,0.645583,1.385871,-8.900469
1790541960.2489,0.005355,-0.019548,0.050955,0.005993,-0.019539,0.050955,0.064044,0.083071,0.353777,0.032335,1.423051,-9.482637
1790541960.2624,0.005232,-0.017655,0.057031,0.005460,-0.018220,0.057031,-0.079225,0.046647,0.259074,-0.005993,1.348691,-9.094525
1790541960.2760,0.006656,-0.014895,0.063967,0.006297,-0.015893,0.063967,-0.096223,-0.068697,0.185012,-0.005993,1.608951,-9.831937
1790541960.2899,0.006817,-0.011345,0.072330,0.006661,-0.012710,0.072330,-0.098651,-0.182826,0.118234,0.568927,1.794851,-9.793126
1790541960.3037,0.005251,-0.007846,0.080632,0.005674,-0.009305,0.080632,-0.092580,-0.158543,0.083024,0.875551,1.794851,-9.443825
1790541960.3177,0.004839,-0.003789,0.089611,0.005089,-0.005444,0.089611,-0.118077,-0.279957,0.085452,1.067191,1.980751,-9.831937
1790541960.3316,0.010770,0.005949,0.098369,0.009066,0.002531,0.098369,-0.342693,-0.594420,0.107306,0.530599,2.538451,-9.172147
1790541960.3465,0.011532,0.017801,0.114977,0.010792,0.013220,0.114977,-0.419184,-0.499717,0.185012,1.603783,3.058971,-9.793126
1790541960.3619,0.002928,0.004239,0.119928,0.005287,0.006934,0.119928,0.666259,0.471596,-0.039605,0.990535,1.274331,-17.710609
1790541960.3768,0.009935,0.019111,-0.058543,0.008541,0.015457,-0.058543,0.675972,0.453384,-0.411132,-1.884064,6.107730,-4.786483
1790541960.3913,0.025491,0.019333,-0.089514,0.020406,0.018170,-0.089514,0.269234,-0.390444,-0.808157,-1.654096,2.203831,-7.542077
1790541960.4066,0.035279,0.011872,-0.101742,0.030817,0.013761,-0.101742,0.465925,-0.504574,-0.942926,-0.082648,1.608951,-10.258860
1790541960.4205,0.022960,0.014008,-0.006995,0.025317,0.013934,-0.006995,0.167246,0.306473,-1.082553,2.025391,2.389731,-8.124245
1790541960.4343,0.023103,0.009776,-0.018787,0.023767,0.011023,-0.018787,0.047046,0.098855,-1.029131,0.223975,0.567911,-10.414105
1790541960.4485,0.025939,0.003742,-0.065897,0.025287,0.005927,-0.065897,0.156319,0.279762,-1.224607,-1.232488,0.456371,-10.957462
1790541960.4623,0.022640,-0.001631,-0.086582,0.023434,0.000637,-0.086582,0.297159,0.431530,-1.424941,0.108991,1.162791,-10.452916
1790541960.4763,0.023013,-0.001017,-0.100364,0.023139,-0.000521,-0.100364,0.034905,0.135279,-1.536642,0.262303,1.943571,-10.452916
1790541960.4899,0.015729,0.006605,-0.092907,0.017952,0.004467,-0.092907,-0.399758,0.481310,-1.422513,0.990535,1.906391,-8.279490
1790541960.5035,0.014873,0.003309,-0.110557,0.015797,0.003656,-0.110557,-0.110792,0.199629,-1.245248,0.415615,-0.175689,-11.888930
1790541960.5180,0.024928,0.000250,-0.142301,0.022189,0.001272,-0.142301,0.031262,-0.340665,-1.054627,-0.925864,0.567911,-9.560259
1790541960.5320,0.024904,0.000422,-0.138667,0.024089,0.000677,-0.138667,0.048260,-0.071125,-0.819084,0.760567,1.534591,-8.395923
1790541960.5460,0.019584,0.010099,-0.131134,0.020936,0.007273,-0.131134,-0.234635,0.369609,-0.792373,0.530599,3.319231,-7.930189
1790541960.5600,0.015459,0.014346,-0.136287,0.017102,0.012224,-0.136287,-0.254061,0.355039,-0.724381,0.453943,2.389731,-12.548721
1790541960.5741,0.014725,0.018121,-0.170186,0.015438,0.016352,-0.170186,-0.381546,0.418174,-0.611466,-1.654096,1.423051,-13.402567
1790541960.5880,0.016431,0.016016,-0.173911,0.016133,0.016117,-0.173911,-0.012447,-0.118477,-0.066316,0.147319,1.162791,-15.265504
1790541960.6022,0.014796,0.006983,-0.165897,0.015197,0.009723,-0.165897,0.442857,-0.031058,0.461836,0.492271,0.493551,-10.452916
1790541960.6165,0.001314,-0.002852,-0.141959,0.005479,0.000921,-0.141959,0.539988,0.597867,0.911069,1.105519,0.493551,-7.697322
1790541960.6305,0.005683,-0.012875,-0.168224,0.005622,-0.008737,-0.168224,0.448927,0.198414,0.976632,-2.535639,-0.064149,-6.649420
1790541960.6444,0.008072,-0.019510,-0.166186,0.007337,-0.016278,-0.166186,0.387006,-0.035915,0.957206,-1.270816,0.790991,-8.861658
1790541960.6584,0.008074,-0.022252,-0.167503,0.007853,-0.020459,-0.167503,0.000909,0.043004,0.809081,-0.772552,0.196111,-10.297672
1790541960.6723,-0.003533,-0.027820,-0.159493,-0.000117,-0.025612,-0.159493,0.208527,0.584512,0.801796,1.488799,0.121751,-12.082986
1790541960.6862,-0.010309,-0.037940,-0.151551,-0.007251,-0.034242,-0.151551,0.536345,0.321043,0.963277,0.568927,0.084571,-8.628791
1790541960.7003,-0.022389,-0.046640,-0.135916,-0.017847,-0.042920,-0.135916,0.649261,0.778774,0.976632,0.262303,1.199971,-8.279490
1790541960.7139,-0.031638,-0.049566,-0.114805,-0.027501,-0.047572,-0.114805,0.359081,0.804271,0.849147,-0.734224,1.943571,-8.978091
1790541960.7275,-0.033427,-0.052525,-0.101060,-0.031649,-0.051039,-0.101060,0.281376,0.331970,0.731376,-1.232488,1.608951,-9.754315
1790541960.7416,-0.034929,-0.057160,-0.087192,-0.033945,-0.055324,-0.087192,0.378507,0.066073,0.594177,0.530599,1.720491,-11.656063
1790541960.7557,-0.027330,-0.066375,-0.095470,-0.029314,-0.063060,-0.095470,0.385792,-0.471792,0.595392,-0.427600,-0.882109,-12.044175
1790541960.7696,-0.020356,-0.066802,-0.093036,-0.023043,-0.065679,-0.093036,-0.088938,-0.583493,0.517687,0.837223,0.233291,-12.160609
1790541960.7836,-0.016840,-0.066010,-0.073944,-0.018701,-0.065911,-0.073944,-0.388831,-0.726762,0.634244,3.673494,-1.588528,-10.181238
1790541960.7975,-0.017328,-0.061907,-0.047254,-0.017740,-0.063108,-0.047254,-0.615875,-0.573780,0.611175,4.938317,-1.588528,-10.025993
1790541960.8115,-0.014408,-0.050086,-0.042161,-0.015407,-0.053993,-0.042161,-1.085748,-0.600491,0.334351,2.868606,-0.696209,-9.172147
1790541960.8254,-0.016064,-0.037908,-0.033901,-0.015867,-0.042734,-0.033901,-1.193807,-0.412299,0.101236,4.210086,-1.365448,-8.900469
1790541960.8393,-0.012902,-0.020835,-0.040698,-0.013791,-0.027405,-0.040698,-1.357716,-0.630845,-0.054174,2.830278,0.196111,-7.930189
1790541960.8532,-0.008100,-0.002879,-0.048305,-0.009807,-0.010236,-0.048305,-1.380785,-0.828750,-0.159805,2.983590,0.419191,-6.649420
1790541960.8674,-0.016777,0.000210,-0.036338,-0.014686,-0.002924,-0.036338,-0.447110,0.449742,-0.187730,2.906934,-0.473129,-14.256413
1790541960.8814,-0.024832,-0.011970,-0.012737,-0.021788,-0.009256,-0.012737,0.742750,0.983964,-0.843367,-2.612295,0.344831,-16.740329
1790541960.8952,-0.009930,-0.010695,-0.073191,-0.013487,-0.010263,-0.073191,0.546059,-0.691552,-1.397016,-1.500784,5.661571,-8.163056
1790541960.9090,-0.025339,-0.007612,-0.095479,-0.021784,-0.008407,-0.095479,-0.011233,0.448528,-0.610251,5.168285,1.980751,-5.795574
1790541960.9228,-0.020206,-0.015434,-0.083318,-0.020679,-0.013326,-0.083318,0.513277,-0.029844,-0.570185,-1.692424,0.828171,-9.831937
1790541960.9369,-0.003755,-0.026815,-0.095209,-0.008832,-0.022768,-0.095209,0.935798,-0.902812,-0.749878,-1.347472,2.166651,-10.258860
1790541960.9505,0.007081,-0.031007,-0.131305,0.002307,-0.028535,-0.131305,0.635905,-0.748616,-0.942926,0.415615,2.389731,-6.300119
1790541960.9639,0.008437,-0.032945,-0.150299,0.006598,-0.031622,-0.150299,0.288660,-0.202252,-0.900431,1.718767,2.055111,-9.016902
1790541960.9778,0.019577,-0.037338,-0.161643,0.015683,-0.035624,-0.161643,0.310515,-0.651485,-0.997563,-0.350944,0.976891,-9.676693
1790541960.9917,0.021040,-0.043498,-0.169085,0.019433,-0.041136,-0.169085,0.417360,-0.142759,-0.944141,1.220503,0.865351,-9.831937
1790541961.0055,0.028509,-0.042686,-0.195391,0.025787,-0.042221,-0.195391,0.102897,-0.315168,-0.912573,-1.155832,2.315371,-9.366203
1790541961.0195,0.020855,-0.035779,-0.207977,0.022335,-0.037711,-0.207977,-0.479891,0.827340,-0.746235,-3.072231,2.315371,-17.788231
1790541961.0334,0.020501,-0.021438,-0.203720,0.021051,-0.026320,-0.203720,-1.067536,0.432744,-0.492480,-5.141942,1.423051,-15.537182
1790541961.0473,0.015615,-0.010757,-0.196927,0.017245,-0.015426,-0.196927,-0.840492,0.747207,-0.249651,-2.995575,0.642271,-8.900469
1790541961.0613,0.001114,0.007996,-0.180328,0.005953,0.000970,-0.180328,-0.651086,0.891690,-0.043247,0.722239,3.430771,-2.884734
1790541961.0752,0.004850,0.008199,-0.181077,0.005181,0.006030,-0.181077,-0.067083,-0.207109,-0.044461,-0.312616,0.939711,-8.628791
1790541961.0890,0.000872,0.004444,-0.173507,0.002165,0.004920,-0.173507,0.336012,0.134065,0.431482,1.297159,2.761531,-12.238231
1790541961.1031,-0.002180,-0.001413,-0.165257,-0.000877,0.000487,-0.165257,0.277733,0.276120,0.904998,-1.960720,0.382011,-12.044175
1790541961.1179,-0.002869,-0.004506,-0.149118,-0.002272,-0.003008,-0.149118,0.173317,-0.086909,1.234030,-0.274288,1.608951,-11.423196
1790541961.1319,0.003865,-0.010240,-0.134882,0.002024,-0.008071,-0.134882,0.302016,-0.550711,0.943850,-0.580912,0.605091,-11.073895
1790541961.1459,-0.007281,-0.019818,-0.101902,-0.004490,-0.016294,-0.101902,0.536345,0.373251,1.010628,2.638638,0.047391,-8.163056
1790541961.1598,-0.014988,-0.030403,-0.083596,-0.011838,-0.026170,-0.083596,0.624978,0.447314,1.071335,0.108991,0.233291,-10.569350
1790541961.1737,-0.024196,-0.038299,-0.067444,-0.020489,-0.034660,-0.067444,0.527846,0.546873,1.328733,0.147319,1.348691,-10.957462
1790541961.1874,-0.032258,-0.041963,-0.063118,-0.028727,-0.039772,-0.063118,0.325085,0.687714,1.224317,-1.654096,2.129471,-9.482637
1790541961.2013,-0.033296,-0.043076,-0.056228,-0.031925,-0.042085,-0.056228,0.079828,0.163204,1.030054,-1.270816,1.423051,-8.667602
1790541961.2151,-0.028364,-0.047351,-0.042747,-0.029432,-0.045771,-0.042747,0.083470,-0.362519,0.818794,-0.427600,-1.030829,-12.703965
1790541961.2289,-0.022254,-0.045458,-0.031688,-0.024407,-0.045552,-0.031688,-0.159358,-0.594420,0.608747,1.833751,1.571771,-13.790679
1790541961.2429,-0.017579,-0.042999,-0.015817,-0.019627,-0.043765,-0.015817,-0.351192,-0.578636,0.510402,3.213558,-0.733389,-13.596623
1790541961.2566,-0.014174,-0.038121,0.001433,-0.015810,-0.039814,0.001433,-0.561239,-0.595634,0.584464,3.175230,-0.807749,-9.249770
1790541961.2704,-0.008693,-0.026776,0.010163,-0.010828,-0.030687,0.010163,-0.919411,-0.746188,0.515258,2.178703,0.233291,-6.338930
1790541961.2844,0.000042,-0.014868,0.022915,-0.003219,-0.019614,0.022915,-1.039611,-0.999944,0.392630,2.485326,-0.398769,-6.494175
1790541961.2981,0.009832,-0.003144,0.033499,0.005917,-0.008085,0.033499,-0.998330,-0.951378,0.228721,1.757095,-0.026969,-7.658511
1790541961.3119,0.006435,0.002465,0.030329,0.006280,-0.000700,0.030329,-0.427683,0.106140,0.040529,2.293686,1.794851,-14.139979
1790541961.3257,-0.004577,-0.009362,0.033424,-0.001320,-0.006763,0.033424,0.743964,0.880762,-0.598110,0.837223,0.233291,-18.215154
1790541961.3397,0.002819,-0.013473,0.007960,0.001578,-0.011460,0.007960,0.427073,-0.192539,-1.312026,-1.884064,2.835891,-11.384385
1790541961.3535,-0.011436,-0.015028,-0.060476,-0.007532,-0.013957,-0.060476,0.306873,0.596653,-0.872506,4.248414,1.571771,-5.019350
1790541961.3696,-0.002281,-0.023115,-0.072414,-0.003857,-0.020368,-0.072414,0.570341,-0.426869,-0.426916,-1.117504,2.352551,-11.927742
1790541961.3836,0.011381,-0.040601,-0.067913,0.006810,-0.034531,-0.067913,1.216265,-0.678196,-0.760805,-3.072231,0.865351,-13.014455
1790541961.3976,0.024034,-0.047509,-0.109508,0.018866,-0.043615,-0.109508,0.825311,-0.757115,-0.969638,-0.427600,3.319231,-6.765853
1790541961.4113,0.033111,-0.049658,-0.136333,0.028838,-0.047845,-0.136333,0.326299,-0.579851,-0.992706,0.070663,3.058971,-10.452916
1790541961.4249,0.035526,-0.051113,-0.151756,0.033519,-0.050132,-0.151756,0.122323,-0.092980,-0.970852,-0.005993,0.939711,-7.348021
1790541961.4388,0.051424,-0.059887,-0.160117,0.046052,-0.056960,-0.160117,0.580055,-0.979303,-0.876149,-1.079176,0.456371,-8.512357
1790541961.4528,0.052339,-0.070657,-0.160426,0.050453,-0.066548,-0.160426,0.718467,-0.084481,-0.511906,0.645583,0.642271,-16.391028
1790541961.4665,0.031248,-0.061858,-0.174066,0.037009,-0.063265,-0.174066,-0.584308,1.618961,-0.369851,-1.155832,2.649991,-16.817952
1790541961.4805,0.025021,-0.044279,-0.161062,0.028617,-0.049975,-0.161062,-1.323720,0.834625,-0.468197,-5.793518,0.567911,-13.169700
1790541961.4944,0.027559,-0.035438,-0.085791,0.027877,-0.039799,-0.085791,-0.930338,0.470382,-0.538617,-4.988630,-1.811608,-4.747672
1790541961.5082,0.000045,-0.014734,-0.145219,0.008395,-0.022254,-0.145219,-1.191379,1.591035,-0.386849,2.025391,1.534591,-2.457811
1790541961.5222,-0.014315,-0.002798,-0.152586,-0.007502,-0.008635,-0.152586,-0.872059,1.196439,-0.352853,-0.580912,0.567911,-5.679140
1790541961.5364,-0.025052,0.007999,-0.155426,-0.019787,0.003009,-0.155426,-0.825922,0.897760,-0.259364,-0.810880,0.865351,-13.480189
1790541961.5502,-0.008869,-0.000150,-0.143989,-0.012144,0.000797,-0.143989,0.366366,-1.008443,-0.048104,-3.340527,-2.257768,-19.767602
1790541961.5641,-0.008495,-0.001500,-0.131912,-0.009590,-0.000811,-0.131912,0.022763,-0.216822,0.704664,1.220503,0.790991,-9.327392
1790541961.5780,-0.002876,-0.009931,-0.111640,-0.004890,-0.007195,-0.111640,0.423430,-0.471792,0.931709,-0.619240,-0.473129,-10.064805
1790541961.5918,0.010129,-0.020593,-0.089130,0.005623,-0.016574,-0.089130,0.418574,-0.718263,0.790868,-1.577440,-1.179549,-3.466902
1790541961.6058,0.003196,-0.035355,-0.084642,0.003924,-0.029721,-0.084642,1.134917,0.318615,0.755658,0.722239,1.274331,-5.562707
1790541961.6204,-0.013501,-0.047783,-0.080589,-0.008274,-0.042364,-0.080589,0.923657,0.949968,0.837006,1.795423,2.092291,-9.560259
1790541961.6341,-0.033333,-0.057606,-0.072633,-0.025815,-0.053033,-0.072633,0.791315,1.331209,0.976632,0.798895,2.241011,-9.443825
1790541961.6477,-0.048016,-0.060335,-0.063410,-0.041356,-0.058145,-0.063410,0.291089,1.075025,0.955992,-0.235960,2.426911,-8.939280
1790541961.6614,-0.052640,-0.065127,-0.049612,-0.049255,-0.063033,-0.049612,0.243737,0.410889,0.903784,-1.232488,0.344831,-11.073895
1790541961.6754,-0.046941,-0.066164,-0.037044,-0.047635,-0.065225,-0.037044,0.059188,-0.384374,0.823650,-0.580912,1.646131,-11.500819
1790541961.6893,-0.037391,-0.065744,-0.024975,-0.040464,-0.065588,-0.024975,-0.127790,-0.747402,0.805438,0.645583,0.419191,-13.635434
1790541961.7032,-0.034763,-0.065486,-0.015343,-0.036474,-0.065517,-0.015343,-0.273487,-0.507002,0.921996,3.865134,-1.960328,-10.025993
1790541961.7171,-0.025083,-0.065123,-0.000147,-0.028500,-0.065241,-0.000147,-0.296556,-0.951378,1.031269,2.600310,-1.997508,-9.793126
1790541961.7310,-0.020911,-0.059179,0.006027,-0.023187,-0.060998,0.006027,-0.632873,-0.753473,1.100475,4.363398,-1.105189,-7.930189
1790541961.7450,-0.014119,-0.044590,0.016065,-0.016839,-0.049512,0.016065,-1.204734,-0.843319,0.874644,2.830278,-0.584669,-6.804665
1790541961.7588,-0.009598,-0.024519,0.025112,-0.011771,-0.032017,0.025112,-1.619971,-0.611418,0.539541,2.561982,-0.547489,-7.930189
1790541961.7726,0.000932,-0.004870,0.032325,-0.002879,-0.013014,0.032325,-1.582332,-1.027869,0.329494,3.098574,-0.510309,-10.258860
1790541961.7865,0.007046,0.017061,0.012913,0.004069,0.008039,0.012913,-1.541052,-0.777756,0.220222,4.325070,1.980751,-10.258860
1790541961.8004,-0.019151,0.009265,0.025248,-0.012185,0.008897,0.025248,0.407646,1.746446,0.161943,4.440053,-0.696209,-18.137532
1790541961.8141,-0.005752,-0.006075,0.087722,-0.007682,-0.001583,0.087722,0.988006,-0.431725,-0.695241,-7.441621,-0.101329,-13.363756
1790541961.8279,-0.016921,-0.010730,-0.012602,-0.014150,-0.007986,-0.012602,0.529061,0.412104,-0.441486,5.244941,2.166651,-7.348021
1790541961.8419,-0.020997,-0.025742,0.003909,-0.018943,-0.020415,0.003909,1.109421,0.555372,-0.323714,-1.730752,1.237151,-7.270399
1790541961.8556,-0.004709,-0.037552,0.040112,-0.008979,-0.032411,0.040112,0.878734,-0.709764,-0.681886,-4.375383,1.237151,-8.201867
1790541961.8694,0.000229,-0.053501,0.020816,-0.002534,-0.047174,0.020816,1.170128,-0.408657,-0.707383,1.680439,0.753811,-9.599070
1790541961.8830,0.010922,-0.059347,-0.008597,0.006886,-0.055695,-0.008597,0.665045,-0.647843,-0.845795,-0.580912,2.724351,-6.921098
1790541961.8971,0.025256,-0.059148,-0.030948,0.019745,-0.058112,-0.030948,0.153891,-0.914954,-0.779017,-0.465928,2.352551,-7.425644
1790541961.9111,0.031805,-0.063147,-0.050659,0.028187,-0.061637,-0.050659,0.314157,-0.521572,-0.884648,1.603783,1.237151,-9.676693
1790541961.9250,0.035779,-0.065376,-0.075150,0.033502,-0.064254,-0.075150,0.292303,-0.317596,-0.701312,1.182175,2.984611,-11.229140
1790541961.9389,0.019052,-0.052371,-0.092596,0.023387,-0.055936,-0.092596,-0.906055,1.277787,-0.862793,0.262303,2.538451,-17.788231
1790541961.9528,0.013829,-0.035246,-0.068129,0.016697,-0.041453,-0.068129,-1.309151,0.750849,-0.656389,-5.141942,0.196111,-12.005364
1790541961.9666,0.008772,-0.023245,-0.032932,0.011149,-0.028707,-0.032932,-1.082106,0.898974,-0.694027,-3.340527,-1.068009,-4.747672
1790541961.9805,-0.003085,-0.010433,-0.033422,0.001185,-0.015915,-0.033422,-0.983760,1.172156,-0.381993,-1.270816,0.121751,-3.660958
1790541961.9945,-0.022777,0.000686,-0.039252,-0.015588,-0.004294,-0.039252,-0.753073,1.655385,-0.507049,-1.117504,1.051251,-6.144874
1790541962.0085,-0.012194,-0.000186,-0.049841,-0.013212,-0.001418,-0.049841,0.246165,-0.647843,-0.446342,-0.350944,3.430771,-8.434735
1790541962.0225,-0.005593,-0.008837,-0.040947,-0.007879,-0.006612,-0.040947,0.604337,-0.471792,0.426626,-0.925864,2.055111,-14.256413
1790541962.0365,-0.001576,-0.011133,-0.026905,-0.003467,-0.009776,-0.026905,0.133250,-0.364947,0.852790,-0.465928,1.571771,-12.238231
1790541962.0504,-0.002278,-0.019736,-0.015852,-0.002635,-0.016748,-0.015852,0.542416,-0.186469,1.138113,1.182175,0.530731,-8.551168
1790541962.0643,0.002499,-0.028383,-0.014264,0.000959,-0.024892,-0.014264,0.733036,-0.088123,0.681596,-2.573967,1.571771,-4.708860
1790541962.0783,-0.016216,-0.039684,-0.020077,-0.011063,-0.035247,-0.020077,0.824097,0.946326,1.025198,3.980118,1.460231,-8.395923
1790541962.0922,-0.028475,-0.053471,-0.005004,-0.023252,-0.048004,-0.005004,0.975865,0.754492,1.195178,0.760567,1.683311,-11.850119
1790541962.1058,-0.040969,-0.061474,0.013478,-0.035654,-0.057433,0.013478,0.629834,0.889261,1.338447,-0.619240,2.315371,-9.172147
1790541962.1201,-0.049316,-0.061769,0.033630,-0.045217,-0.060468,0.033630,0.049474,0.662217,1.366372,-2.075704,2.464091,-9.172147
1790541962.1343,-0.045344,-0.061945,0.050413,-0.045306,-0.061502,0.050413,-0.046443,-0.211966,1.172109,-1.845736,1.237151,-9.948371
1790541962.1482,-0.040698,-0.060594,0.063316,-0.042080,-0.060867,0.063316,-0.220065,-0.487576,1.064050,2.370342,0.270471,-16.585084
1790541962.1622,-0.041372,-0.053302,0.072713,-0.041584,-0.055571,0.072713,-0.655942,-0.196182,0.992416,3.558510,-0.138509,-12.393476
1790541962.1760,-0.039242,-0.049299,0.079536,-0.039945,-0.051181,0.079536,-0.569738,-0.462079,1.074978,4.095102,-2.555208,-11.306763
1790541962.1900,-0.025979,-0.044516,0.087999,-0.030169,-0.046515,0.087999,-0.591593,-1.361758,1.006986,2.446998,-0.956469,-4.514804
1790541962.2039,-0.022353,-0.032551,0.093289,-0.024698,-0.036740,0.093289,-0.863560,-0.780184,1.054337,3.251886,0.790991,-4.204315
1790541962.2179,-0.006979,-0.019061,0.108310,-0.012295,-0.024365,0.108310,-1.090605,-1.335047,0.784798,1.143847,0.010211,-5.446273
1790541962.2318,0.004395,-0.005300,0.115527,-0.000612,-0.011019,0.115527,-1.046896,-1.167495,0.652456,3.711822,0.716631,-9.210958
1790541962.2457,-0.009883,-0.008720,0.125766,-0.007101,-0.009410,0.125766,0.105325,0.821269,0.324638,6.088157,-1.216729,-21.281238
1790541962.2595,-0.007764,-0.025735,0.132315,-0.007565,-0.020837,0.132315,1.233263,0.066073,-0.454841,-3.455511,1.943571,-17.632987
1790541962.2733,-0.005378,-0.028101,0.092451,-0.006034,-0.025922,0.092451,0.394291,-0.278743,-0.889504,1.757095,2.055111,-4.825294
1790541962.2872,-0.008707,-0.028878,0.069593,-0.007905,-0.027991,0.069593,0.471996,0.124352,-0.222940,1.028863,2.984611,-3.195224
1790541962.3009,0.002922,-0.043660,0.115316,-0.000326,-0.038959,0.115316,0.998934,-0.408657,-0.368637,-3.417183,0.010211,-5.213406
1790541962.3148,0.024394,-0.069484,0.110087,0.016978,-0.060327,0.110087,1.890114,-1.287695,-0.656389,-3.953775,1.385871,-12.354665
1790541962.3284,0.034566,-0.081490,0.080889,0.029290,-0.075141,0.080889,1.139774,-0.882172,-0.820298,2.485326,4.025651,-8.318301
1790541962.3418,0.043181,-0.087217,0.067068,0.039013,-0.083595,0.067068,0.567913,-0.817822,-0.810585,2.753622,2.501271,-8.279490
1790541962.3557,0.053653,-0.090895,0.040625,0.049261,-0.088705,0.040625,0.504778,-0.787469,-0.885862,0.760567,3.282051,-6.959909
1790541962.3700,0.034756,-0.100597,0.067213,0.039108,-0.097030,0.067213,0.379721,1.337280,-0.891932,0.568927,-4.711648,-13.092077
1790541962.3839,0.027035,-0.092280,0.048370,0.030657,-0.093705,0.048370,-0.580665,0.815199,-0.748664,-5.141942,1.274331,-14.760958
1790541962.3979,0.024418,-0.082065,0.049326,0.026290,-0.085557,0.049326,-0.919411,0.418174,-0.764448,-3.225543,-2.480848,-11.073895
1790541962.4119,0.025085,-0.071359,0.047238,0.025447,-0.075618,0.047238,-1.048110,0.317400,-0.695241,-3.762135,-2.889828,-6.532986
1790541962.4269,0.013060,-0.048099,0.037717,0.016776,-0.056355,0.037717,-1.534981,0.946326,-0.560472,-0.964192,0.939711,-7.192776
1790541962.4415,0.000780,-0.031233,0.030022,0.005578,-0.038769,0.030022,-1.424494,1.038601,-0.550759,-0.925864,-1.662888,-4.708860
1790541962.4556,-0.014884,-0.011394,0.017963,-0.008745,-0.019607,0.017963,-1.606615,1.128447,-0.503407,0.492271,-0.844929,-4.126693
1790541962.4701,-0.024359,0.013647,0.016359,-0.019675,0.003671,0.016359,-1.757169,0.837053,-0.440272,-1.347472,1.051251,-11.733686
1790541962.4847,-0.011063,0.014486,0.015281,-0.013647,0.011242,0.015281,-0.336623,-0.776542,-0.201086,-3.148887,-6.533468,-21.281238
1790541962.4986,-0.015691,-0.005666,0.014493,-0.015078,-0.000594,0.014493,1.318253,0.221483,0.409628,1.143847,-0.473129,-10.375294
1790541962.5124,-0.005403,-0.008855,0.021752,-0.008305,-0.006376,0.021752,0.537560,-0.768043,0.690095,-0.619240,4.062831,-5.213406
1790541962.5266,0.010131,-0.012003,0.048779,0.004600,-0.010315,0.048779,0.297159,-0.825107,0.637887,-2.803935,1.274331,-4.165504
1790541962.5406,0.002233,-0.022623,0.044750,0.002943,-0.018931,0.044750,0.742750,0.313758,0.694951,2.370342,1.051251,-8.900469
1790541962.5542,-0.009722,-0.035681,0.045862,-0.005923,-0.030656,0.045862,0.952796,0.692570,0.679167,2.523654,1.646131,-13.053266
1790541962.5678,-0.025535,-0.042197,0.056480,-0.019651,-0.038735,0.056480,0.552129,1.185512,0.554111,-0.695896,2.426911,-9.870749
1790541962.5814,-0.037391,-0.045136,0.070606,-0.032069,-0.043215,0.070606,0.322656,0.890475,0.755658,-0.964192,3.876931,-11.966553
1790541962.5953,-0.040009,-0.046351,0.081128,-0.037627,-0.045410,0.081128,0.098040,0.136493,0.660955,0.415615,1.869211,-10.452916
1790541962.6096,-0.040114,-0.046170,0.089270,-0.039368,-0.045942,0.089270,0.115038,-0.080838,0.522543,0.952207,2.910251,-7.852567
1790541962.6239,-0.027007,-0.042065,0.099870,-0.030715,-0.043229,0.099870,-0.256489,-1.027869,0.619674,1.297159,2.278191,-10.414105
1790541962.6381,-0.023631,-0.035667,0.099574,-0.025756,-0.037936,0.099574,-0.546669,-0.524000,0.569895,4.670021,0.047391,-11.462007
1790541962.6521,-0.016495,-0.027769,0.103570,-0.019273,-0.030819,0.103570,-0.647443,-0.723119,0.484905,2.446998,0.233291,-8.861658
1790541962.6660,-0.002780,-0.015581,0.104743,-0.007728,-0.020153,0.104743,-0.802853,-1.175994,0.308854,1.220503,1.348691,-4.864105
1790541962.6799,0.009892,-0.004567,0.104557,0.004606,-0.009243,0.104557,-0.782213,-1.184493,0.131589,1.987063,0.828171,-4.825294
1790541962.6938,0.002959,-0.005157,0.101082,0.003453,-0.006383,0.101082,0.051903,0.338041,-0.052960,2.485326,1.348691,-8.551168
1790541962.7078,-0.004745,-0.013629,0.086703,-0.002286,-0.011455,0.086703,0.733036,0.776346,-0.588397,-2.650623,4.323091,-13.635434
1790541962.7217,0.003576,-0.016756,0.063609,0.001818,-0.015166,0.063609,0.429501,-0.296955,-1.251319,-2.114032,4.285911,-9.909560
1790541962.7357,-0.003647,-0.025681,0.045317,-0.002007,-0.022526,0.045317,0.640762,0.707140,-1.275601,-0.082648,0.865351,-10.375294
1790541962.7496,0.008422,-0.037529,0.033768,0.005293,-0.033028,0.033768,0.929727,-0.547069,-0.815442,-2.497311,1.460231,-6.804665
1790541962.7635,0.025030,-0.053670,0.022582,0.019109,-0.047478,0.022582,1.126419,-1.063079,-0.908930,-0.619240,0.382011,-9.521448
1790541962.7773,0.041584,-0.070796,0.011086,0.034842,-0.063801,0.011086,1.308540,-1.163853,-0.993920,0.492271,1.943571,-9.715504
1790541962.7909,0.054499,-0.079489,-0.000812,0.048602,-0.074783,-0.000812,0.697826,-0.958663,-1.106836,0.837223,1.683311,-8.279490
1790541962.8046,0.061150,-0.093220,-0.009567,0.057385,-0.087688,-0.009567,0.899374,-0.542212,-1.140832,1.527127,-0.435949,-10.064805
1790541962.8184,0.050481,-0.101147,-0.022081,0.052553,-0.097110,-0.022081,0.499921,0.724138,-1.168757,1.910407,0.010211,-13.557812
1790541962.8323,0.037695,-0.103504,-0.034219,0.042152,-0.101585,-0.034219,0.030048,1.038601,-1.042486,-1.960720,-2.109048,-15.770049
1790541962.8462,0.037719,-0.101056,-0.048048,0.039049,-0.101215,-0.048048,-0.352407,0.297974,-1.088623,-5.793518,-3.001368,-13.169700
1790541962.8600,0.030633,-0.091172,-0.061283,0.033157,-0.094185,-0.061283,-0.858704,0.756920,-0.981779,-2.573967,-1.253909,-8.201867
1790541962.8746,0.030584,-0.073960,-0.074430,0.031356,-0.080027,-0.074430,-1.193807,0.234839,-0.999991,-2.343999,0.493551,-8.201867
1790541962.8887,0.030001,-0.059378,-0.090912,0.030407,-0.065573,-0.090912,-1.287296,0.313758,-0.774161,-2.727279,-2.443668,-7.425644
1790541962.9025,0.028505,-0.041529,-0.099956,0.029076,-0.048742,-0.099956,-1.464561,0.454598,-0.821512,-2.765607,-1.105189,-6.106063
1790541962.9164,0.023903,-0.018843,-0.109954,0.025455,-0.027813,-0.109954,-1.774167,0.591797,-0.624821,-1.999048,-0.696209,-6.688231
1790541962.9304,0.013621,0.007244,-0.120576,0.017171,-0.003273,-0.120576,-1.949003,0.958467,-0.649104,-1.462456,0.047391,-7.813756
1790541962.9443,0.006538,0.028946,-0.124716,0.009728,0.019280,-0.124716,-1.629684,0.804271,-0.606609,-3.532167,0.753811,-13.130889
1790541962.9582,0.030686,0.014886,-0.140332,0.024399,0.016204,-0.140332,0.848380,-1.694433,-0.315215,-0.964192,-1.551348,-19.030189
1790541962.9721,0.025345,0.003784,-0.144699,0.025061,0.007510,-0.144699,0.808313,0.208128,0.368347,1.833751,1.794851,-10.142427
1790541962.9860,0.023612,0.000748,-0.140855,0.024047,0.002777,-0.140855,0.281376,-0.034701,0.418127,1.412143,2.352551,-9.288581
1790541962.9999,0.021897,-0.009863,-0.147781,0.022542,-0.006071,-0.147781,0.804671,-0.091765,0.143731,2.523654,1.720491,-8.007811
1790541963.0138,0.012792,-0.020471,-0.151996,0.015717,-0.016151,-0.151996,0.808313,0.316186,0.283357,3.596838,1.460231,-6.532986
1790541963.0275,-0.000817,-0.033883,-0.148931,0.004143,-0.028564,-0.148931,1.086352,0.850409,0.353777,2.217030,3.170511,-10.918651
1790541963.0411,-0.008331,-0.040372,-0.137027,-0.004589,-0.036829,-0.137027,0.539988,0.514091,0.584464,-0.082648,2.612811,-11.229140
1790541963.0551,-0.017718,-0.039798,-0.117592,-0.013779,-0.038907,-0.117592,0.084685,0.648861,0.703450,-0.312616,3.058971,-8.628791
1790541963.0689,-0.021007,-0.040088,-0.102386,-0.018839,-0.039734,-0.102386,0.071329,0.192344,0.762943,-0.120976,2.203831,-9.249770
1790541963.0829,-0.027900,-0.043590,-0.093740,-0.025181,-0.042433,-0.093740,0.278947,0.274905,0.719234,2.791950,2.017931,-9.715504
1790541963.0969,-0.012597,-0.039132,-0.080834,-0.016372,-0.040122,-0.080834,-0.169071,-1.160211,0.370775,0.798895,4.806431,-11.966553
1790541963.1109,0.000820,-0.031469,-0.074013,-0.004338,-0.034065,-0.074013,-0.536956,-1.137142,0.384131,3.481854,2.426911,-15.226693
1790541963.1254,0.007931,-0.018859,-0.070330,0.004251,-0.023421,-0.070330,-0.913340,-0.726762,0.208080,4.018446,0.716631,-10.879840
1790541963.1393,0.015516,-0.007198,-0.066598,0.012136,-0.012065,-0.066598,-0.921839,-0.857889,0.056313,4.325070,-0.101329,-7.930189
1790541963.1533,0.022806,0.007510,-0.071098,0.019605,0.001638,-0.071098,-0.980118,-0.726762,-0.082100,1.220503,0.939711,-3.350469
1790541963.1673,0.020276,0.009718,-0.075596,0.020074,0.007294,-0.075596,-0.133861,0.165633,-0.173160,0.760567,2.055111,-10.297672
1790541963.1812,0.008700,0.001388,-0.085659,0.012112,0.003160,-0.085659,0.563057,0.963324,-0.758377,0.108991,1.348691,-15.381938
1790541963.1952,0.016254,-0.000738,-0.102783,0.015012,0.000431,-0.102783,0.252236,-0.289671,-1.088623,-1.884064,3.802571,-12.665154
1790541963.2090,0.010517,-0.008016,-0.114667,0.011865,-0.005482,-0.114667,0.482923,0.465526,-1.002419,2.178703,0.790991,-12.820399
1790541963.2230,0.014594,-0.020545,-0.125897,0.013775,-0.016026,-0.125897,0.898160,-0.102693,-0.925928,-0.734224,0.865351,-7.503266
1790541963.2369,0.024972,-0.037878,-0.136646,0.021613,-0.031323,-0.136646,1.185911,-0.533713,-1.159044,-0.925864,0.084571,-7.386832
1790541963.2504,0.039278,-0.048514,-0.157309,0.033979,-0.043357,-0.157309,0.905445,-0.902812,-1.285314,-0.312616,1.832031,-5.795574
1790541963.2640,0.051954,-0.053360,-0.177032,0.046561,-0.050359,-0.177032,0.480495,-0.907669,-1.227036,0.760567,2.315371,-6.765853
1790541963.2779,0.061603,-0.061991,-0.190338,0.057090,-0.058501,-0.190338,0.519347,-0.634487,-1.299884,0.530599,-0.026969,-10.452916
1790541963.2919,0.070049,-0.072610,-0.199321,0.066161,-0.068377,-0.199321,0.691756,-0.627202,-0.885862,1.067191,0.344831,-9.948371
1790541963.3059,0.043202,-0.069092,-0.205134,0.050090,-0.068878,-0.205134,-0.380332,1.816866,-0.857936,4.899989,-1.216729,-18.021098
1790541963.3197,0.033293,-0.052737,-0.210692,0.038332,-0.057579,-0.210692,-1.301866,1.009461,-0.899217,-5.180270,-1.105189,-14.256413
1790541963.3337,0.036209,-0.037948,-0.217019,0.036846,-0.043837,-0.217019,-1.288510,0.226340,-1.010918,-4.337055,-2.071868,-6.610609
1790541963.3475,0.028767,-0.022636,-0.234920,0.031190,-0.028996,-0.234920,-1.451205,0.963324,-1.049771,-2.650623,-2.443668,-4.475993
1790541963.3612,0.014520,-0.003458,-0.243580,0.019521,-0.011119,-0.243580,-1.432993,1.329995,-0.963567,-1.270816,0.419191,-5.407462
1790541963.3758,0.006483,0.018779,-0.253030,0.010395,0.009809,-0.253030,-1.531339,0.890475,-1.014561,-1.654096,0.865351,-6.106063
1790541963.3899,0.019795,0.008953,-0.282280,0.016975,0.009210,-0.282280,0.464711,-0.894313,-0.809371,2.217030,-5.046268,-21.281238
1790541963.4039,0.015399,-0.014513,-0.299491,0.015872,-0.007396,-0.299491,1.552582,0.154705,0.012603,3.405198,-0.919289,-13.363756
1790541963.4178,0.013863,-0.015291,-0.299179,0.014465,-0.012922,-0.299179,0.254664,-0.066268,0.497046,1.450471,3.616671,-7.153965
1790541963.4317,0.033660,-0.016633,-0.280327,0.027902,-0.015520,-0.280327,0.197600,-1.328976,0.276072,-2.037376,2.501271,-8.163056
1790541963.4460,0.018855,-0.034394,-0.292891,0.021569,-0.028732,-0.292891,1.273330,0.642790,0.596606,5.436581,1.385871,-8.706413
1790541963.4600,0.001139,-0.053525,-0.294135,0.007268,-0.046087,-0.294135,1.336465,1.051956,0.488547,3.021918,0.493551,-10.103616
1790541963.4736,-0.020710,-0.063172,-0.287507,-0.012317,-0.058047,-0.287507,0.805885,1.615318,0.545612,-0.274288,2.092291,-8.007811
1790541963.4872,-0.036645,-0.069142,-0.273254,-0.029346,-0.065814,-0.273254,0.436786,1.224365,0.687666,-1.309144,1.571771,-12.548721
1790541963.5007,-0.043775,-0.074021,-0.259484,-0.039446,-0.071559,-0.259484,0.319014,0.537160,0.767800,-0.542584,1.088431,-13.053266
1790541963.5148,-0.038141,-0.077920,-0.247653,-0.038533,-0.076012,-0.247653,0.209741,-0.432939,0.704664,0.300631,0.419191,-11.267951
1790541963.5288,-0.025822,-0.077374,-0.235050,-0.029635,-0.076965,-0.235050,-0.125362,-0.914954,0.714378,0.223975,0.010211,-11.733686
1790541963.5442,-0.019232,-0.077141,-0.226658,-0.022353,-0.077088,-0.226658,-0.167857,-0.675768,0.889214,3.520182,-1.328269,-9.094525
1790541963.5599,-0.018728,-0.074672,-0.215720,-0.019815,-0.075397,-0.215720,-0.305055,-0.350378,1.022770,4.401726,-1.216729,-8.318301
1790541963.5758,-0.011082,-0.062004,-0.202109,-0.013702,-0.066022,-0.202109,-0.929124,-0.706121,0.931709,2.983590,-0.956469,-9.599070
1790541963.5907,-0.001866,-0.038626,-0.201581,-0.005417,-0.046845,-0.201581,-1.635755,-0.846962,0.431482,2.753622,0.084571,-8.007811
1790541963.6049,0.003649,-0.011853,-0.193133,0.000929,-0.022350,-0.193133,-2.016995,-0.704907,0.238434,3.941790,-0.770569,-7.153965
1790541963.6193,0.020768,0.013352,-0.179743,0.014817,0.002641,-0.179743,-1.907723,-1.358116,0.118234,2.217030,-0.882109,-9.055714
1790541963.6335,0.029068,0.027357,-0.183628,0.024793,0.019943,-0.183628,-1.066322,-0.744974,-0.039605,2.523654,0.456371,-10.375294
1790541963.6479,0.011139,0.002179,-0.168024,0.015235,0.007508,-0.168024,1.495518,1.061670,-0.125809,5.781533,-3.782148,-12.936833
1790541963.6620,0.017214,-0.001745,-0.210421,0.016620,0.001031,-0.210421,0.691756,-0.220465,-0.725595,-2.037376,7.446210,-6.804665
1790541963.6759,0.006353,-0.005697,-0.242174,0.009433,-0.003678,-0.242174,0.419788,0.636720,-0.428130,4.095102,3.728211,-10.918651
1790541963.6905,-0.000843,-0.020822,-0.249722,0.002240,-0.015679,-0.249722,1.098493,0.684071,-0.678243,-1.385800,2.241011,-10.220049
1790541963.7043,0.017355,-0.039351,-0.228084,0.012820,-0.032249,-0.228084,1.279400,-1.047295,-0.758377,-2.190688,0.233291,-7.852567
1790541963.7182,0.023634,-0.054769,-0.249822,0.020390,-0.048013,-0.249822,1.205338,-0.412299,-0.758377,0.300631,1.534591,-6.649420
1790541963.7318,0.034598,-0.062722,-0.265742,0.030336,-0.058309,-0.265742,0.666259,-0.697622,-0.774161,-0.580912,1.683311,-7.503266
1790541963.7458,0.052329,-0.067898,-0.277728,0.045731,-0.065021,-0.277728,0.356652,-1.195421,-0.911359,-0.197632,0.642271,-7.231588
1790541963.7597,0.060604,-0.072405,-0.295611,0.056142,-0.070190,-0.295611,0.320228,-0.698837,-0.935642,1.948735,0.902531,-7.969000
1790541963.7735,0.048633,-0.074290,-0.301588,0.050886,-0.073060,-0.301588,0.031262,0.829768,-0.919858,2.638638,-0.510309,-16.740329
1790541963.7875,0.029177,-0.050110,-0.307874,0.035689,-0.056995,-0.307874,-1.729244,1.599534,-0.884648,-3.800463,2.352551,-17.710609
1790541963.8018,0.031746,-0.030003,-0.279697,0.032929,-0.038101,-0.279697,-1.599330,0.112210,-0.936856,-3.762135,-1.811608,-12.315854
1790541963.8156,0.023370,-0.006573,-0.274267,0.026237,-0.016031,-0.274267,-1.776595,0.974251,-1.069197,-1.117504,0.084571,-3.117602
1790541963.8296,0.000629,0.013478,-0.300938,0.008311,0.004625,-0.300938,-1.435421,1.591035,-0.678243,1.373815,0.679451,-4.825294
1790541963.8435,0.002161,0.008224,-0.315075,0.004006,0.007144,-0.315075,0.481709,0.181417,-0.930785,-1.615768,2.241011,-7.270399
1790541963.8574,0.004794,-0.006965,-0.365756,0.004558,-0.002732,-0.365756,1.344964,-0.487576,-0.163447,4.670021,4.174371,-6.959909
1790541963.8712,-0.005032,-0.008101,-0.377076,-0.002155,-0.006490,-0.377076,0.235238,0.567514,0.473977,1.603783,3.876931,-9.637881
1790541963.8853,0.002761,-0.016987,-0.353564,0.001286,-0.013838,-0.353564,0.578840,-0.493646,0.603891,-2.573967,0.976891,-11.462007
1790541963.9000,0.001080,-0.026572,-0.348661,0.001142,-0.022752,-0.348661,0.673544,0.015079,0.643957,0.568927,2.129471,-11.617252
1790541963.9144,-0.013585,-0.038581,-0.338155,-0.009167,-0.033832,-0.338155,0.805885,0.803057,0.735018,2.408670,0.828171,-8.900469
1790541963.9298,-0.024436,-0.053393,-0.325220,-0.019855,-0.047525,-0.325220,0.950368,0.665859,0.942636,-0.504256,1.348691,-9.637881
1790541963.9435,-0.035884,-0.064162,-0.319618,-0.031075,-0.059171,-0.319618,0.825311,0.728995,1.130828,0.607255,1.980751,-8.706413
1790541963.9573,-0.047461,-0.064164,-0.315234,-0.042545,-0.062666,-0.315234,0.095612,0.743564,1.275311,0.453943,2.873071,-7.930189
1790541963.9713,-0.039979,-0.064526,-0.297361,-0.040749,-0.063968,-0.297361,0.095612,-0.460865,1.146612,-2.343999,3.430771,-9.870749
1790541963.9852,-0.026555,-0.062519,-0.273853,-0.030813,-0.062954,-0.273853,-0.261346,-1.087362,1.278954,0.760567,0.270471,-11.578441
1790541963.9991,-0.022128,-0.054421,-0.253251,-0.024733,-0.056981,-0.253251,-0.679011,-0.497289,1.036125,2.600310,0.419191,-14.799770
1790541964.0130,-0.019302,-0.048281,-0.202991,-0.020932,-0.050891,-0.202991,-0.694795,-0.497289,1.060408,4.363398,-2.555208,-11.462007
1790541964.0269,-0.005806,-0.038706,-0.175860,-0.010343,-0.042362,-0.175860,-0.867203,-1.223346,0.820008,2.638638,-1.030829,-8.939280
1790541964.0408,0.008187,-0.017376,-0.199255,0.002628,-0.024871,-0.199255,-1.249658,-1.168709,0.756873,0.185647,0.902531,-1.371098
1790541964.0547,0.012874,0.001092,-0.161550,0.009800,-0.006697,-0.161550,-1.441492,-0.777756,1.005772,3.098574,0.010211,-5.640329
1790541964.0686,0.005718,0.007696,-0.155213,0.006942,0.003378,-0.155213,-0.460465,0.341683,0.838220,0.952207,1.906391,-9.909560
1790541964.0826,-0.003928,-0.006044,-0.134862,-0.000667,-0.003217,-0.134862,0.843523,0.771490,-0.048104,-1.270816,-1.030829,-18.176343
1790541964.0964,0.010651,-0.010931,-0.162713,0.007255,-0.008617,-0.162713,0.529061,-0.837249,-0.861579,-1.232488,2.835891,-7.115154
1790541964.1104,-0.000967,-0.018439,-0.166657,0.001500,-0.015493,-0.166657,0.521776,0.557801,-0.490051,4.171758,0.530731,-5.834385
1790541964.1246,0.003131,-0.029776,-0.176643,0.002641,-0.025491,-0.176643,0.859307,-0.271458,-0.179231,0.185647,1.757671,-8.745224
1790541964.1393,0.018328,-0.054068,-0.176979,0.013622,-0.045495,-0.176979,1.636358,-0.934380,-0.411132,-1.155832,0.828171,-11.733686
1790541964.1535,0.030752,-0.075167,-0.196094,0.025613,-0.066265,-0.196094,1.547726,-0.713406,-0.950211,-1.539112,1.720491,-10.103616
1790541964.1671,0.043284,-0.081524,-0.228253,0.037983,-0.076946,-0.228253,0.628620,-0.956235,-0.938070,0.952207,2.166651,-6.610609
1790541964.1807,0.054562,-0.085330,-0.253689,0.049589,-0.082815,-0.253689,0.366366,-0.829964,-1.033987,0.530599,1.534591,-6.688231
1790541964.1945,0.049638,-0.094171,-0.273481,0.049623,-0.090764,-0.273481,0.685685,0.363538,-0.838510,0.607255,2.278191,-14.101168
1790541964.2084,0.043835,-0.098189,-0.280239,0.045571,-0.095961,-0.280239,0.219454,0.515306,-0.907716,-1.577440,-0.212869,-15.459560
1790541964.2224,0.038017,-0.093996,-0.271429,0.040283,-0.094586,-0.271429,-0.448324,0.582083,-0.853080,-3.148887,-1.923148,-14.683336
1790541964.2362,0.042201,-0.089020,-0.246047,0.041626,-0.090689,-0.246047,-0.608591,-0.061412,-0.906502,-3.685479,-3.112908,-10.608161
1790541964.2502,0.035947,-0.075464,-0.250310,0.037651,-0.080032,-0.250310,-1.068750,0.806700,-0.972066,-3.532167,-0.435949,-6.377742
1790541964.2639,0.028145,-0.059461,-0.252048,0.030997,-0.065632,-0.252048,-1.286082,0.824912,-0.826369,-1.309144,-0.398769,-4.087881
1790541964.2777,0.017910,-0.041539,-0.255203,0.021836,-0.048767,-0.255203,-1.420852,0.932970,-0.813013,-0.925864,-0.435949,-5.756762
1790541964.2915,0.007487,-0.021479,-0.257570,0.011792,-0.029665,-0.257570,-1.615114,0.977894,-0.774161,-1.539112,-1.179549,-8.512357
1790541964.3054,-0.001665,-0.000629,-0.262561,0.002372,-0.009340,-0.262561,-1.615114,0.917187,-0.760805,-2.305671,-0.807749,-10.685784
1790541964.3194,0.001017,0.017228,-0.265721,0.001424,0.009258,-0.265721,-1.368643,-0.069911,-0.579898,-0.312616,-0.064149,-11.617252
1790541964.3334,0.013306,-0.001608,-0.267714,0.009741,0.001652,-0.267714,1.255118,-0.996301,0.051456,3.405198,-0.064149,-20.699071
1790541964.3472,0.009561,-0.010176,-0.290591,0.009615,-0.006627,-0.290591,0.743964,-0.045628,0.681596,4.325070,3.839751,-11.112707
1790541964.3610,0.008284,-0.016338,-0.280812,0.008683,-0.013425,-0.280812,0.422216,0.126780,0.368347,-1.079176,0.976891,-8.978091
1790541964.3750,0.004200,-0.025211,-0.300046,0.005545,-0.021675,-0.300046,0.707539,-0.000705,0.336779,3.941790,2.017931,-8.512357
1790541964.3896,-0.011683,-0.041636,-0.304497,-0.006515,-0.035648,-0.304497,1.127633,0.846766,0.464264,4.325070,1.348691,-11.345574
1790541964.4033,-0.030444,-0.049678,-0.323856,-0.023265,-0.045469,-0.323856,0.811956,1.167300,0.563824,2.217030,3.542311,-6.765853
1790541964.4170,-0.042178,-0.055310,-0.317889,-0.036504,-0.052357,-0.317889,0.447713,0.926900,0.586893,-1.270816,1.906391,-9.521448
1790541964.4309,-0.044733,-0.060803,-0.306783,-0.042264,-0.058269,-0.306783,0.351796,0.180202,0.699808,-0.350944,1.051251,-10.879840
1790541964.4447,-0.052006,-0.063121,-0.299558,-0.049084,-0.061665,-0.299558,0.133250,0.435172,0.663384,1.795423,1.348691,-13.557812
1790541964.4585,-0.038172,-0.064861,-0.280495,-0.041446,-0.063903,-0.280495,-0.005162,-1.098289,0.800582,1.373815,-0.361589,-14.838581
1790541964.4723,-0.025694,-0.052881,-0.274828,-0.030419,-0.056188,-0.274828,-0.865989,-1.084934,0.674311,3.060246,1.943571,-12.354665
1790541964.4862,-0.025339,-0.040852,-0.244690,-0.026863,-0.045452,-0.244690,-1.045682,-0.362519,0.677953,4.976645,-1.179549,-9.055714
1790541964.5006,-0.016149,-0.022830,-0.229984,-0.019364,-0.029616,-0.229984,-1.363787,-0.845748,0.505545,2.102047,-0.101329,-7.309210
1790541964.5158,-0.001636,-0.004068,-0.221067,-0.006954,-0.011733,-0.221067,-1.321292,-1.228202,0.299141,2.983590,-0.026969,-6.416553
1790541964.5301,0.013846,0.014172,-0.223358,0.007606,0.006401,-0.223358,-1.265441,-1.325334,0.334351,1.872079,1.088431,-6.028441
1790541964.5441,0.015899,0.015833,-0.218165,0.013411,0.013003,-0.218165,-0.136289,-0.232606,0.291856,0.645583,1.423051,-10.025993
1790541964.5586,-0.006738,-0.002499,-0.217374,-0.000693,0.002152,-0.217374,1.211408,1.671169,-0.394134,-0.274288,0.902531,-14.760958
1790541964.5726,0.000838,-0.009972,-0.234149,0.000379,-0.006335,-0.234149,0.652903,-0.247176,-0.962353,-3.762135,4.211551,-14.217602
1790541964.5863,-0.008665,-0.018222,-0.252893,-0.005952,-0.014656,-0.252893,0.638333,0.636720,-0.741379,3.596838,1.794851,-12.044175
1790541964.6002,-0.005774,-0.029666,-0.265816,-0.005827,-0.025163,-0.265816,0.886018,-0.099050,-0.595682,-0.235960,1.423051,-7.425644
1790541964.6143,0.006270,-0.041342,-0.280709,0.002641,-0.036488,-0.280709,0.906659,-0.689123,-0.847009,-1.117504,1.869211,-9.482637
1790541964.6280,0.014644,-0.048838,-0.308153,0.011043,-0.045133,-0.308153,0.679614,-0.524000,-1.019417,0.262303,2.464091,-8.784035
1790541964.6420,0.021779,-0.047174,-0.343555,0.018558,-0.046562,-0.343555,0.085899,-0.448723,-1.106836,0.645583,3.170511,-7.425644
1790541964.6562,0.031793,-0.050369,-0.349973,0.027823,-0.049227,-0.349973,0.176959,-0.696408,-1.095908,1.527127,0.419191,-10.064805
1790541964.6701,0.037812,-0.057898,-0.352616,0.034815,-0.055296,-0.352616,0.461069,-0.447509,-1.060698,1.680439,0.047391,-9.599070
1790541964.6843,0.027049,-0.056969,-0.367741,0.029379,-0.056467,-0.367741,-0.053728,0.800629,-0.802086,0.837223,1.980751,-16.041728
1790541964.6986,0.010765,-0.036930,-0.380132,0.016349,-0.042791,-0.380132,-1.373500,1.345779,-0.697670,-3.072231,2.241011,-14.528091
1790541964.7127,0.007668,-0.020634,-0.364474,0.010272,-0.027281,-0.364474,-1.271512,0.499522,-0.565328,-4.528694,-0.621849,-13.130889
1790541964.7266,0.001953,-0.002233,-0.364318,0.004448,-0.009747,-0.364318,-1.282439,0.866193,-0.579898,-1.615768,0.493551,-2.224944
1790541964.7406,-0.019997,0.014971,-0.398731,-0.012663,0.007555,-0.398731,-0.891486,1.478120,-0.362567,2.063719,4.211551,-5.019350
1790541964.7546,-0.012885,0.012560,-0.387903,-0.012819,0.011058,-0.387903,0.067687,-0.282386,-0.328571,-2.229015,-0.138509,-8.434735
1790541964.7687,-0.006360,0.003363,-0.389725,-0.008298,0.005671,-0.389725,0.826525,-0.746188,0.280929,4.746677,4.955151,-9.443825
1790541964.7826,-0.017836,-0.002752,-0.371013,-0.014975,-0.000225,-0.371013,0.362723,0.633077,0.914711,1.642111,0.790991,-11.073895
1790541964.7965,-0.011051,-0.013432,-0.347924,-0.012228,-0.009470,-0.347924,0.662616,-0.636915,1.127186,0.108991,0.642271,-12.665154
1790541964.8104,-0.009933,-0.024014,-0.327969,-0.010622,-0.019651,-0.327969,0.661402,-0.145188,0.864931,-0.427600,0.121751,-8.512357
1790541964.8242,-0.025123,-0.028610,-0.321788,-0.020773,-0.025923,-0.321788,0.370008,0.736279,0.796939,3.405198,1.423051,-6.028441
1790541964.8381,-0.040121,-0.038789,-0.308882,-0.034316,-0.034929,-0.308882,0.696612,0.827340,1.055551,3.175230,1.497411,-10.841028
1790541964.8523,-0.054235,-0.050242,-0.295942,-0.048260,-0.045648,-0.295942,0.758533,0.829768,1.276525,1.297159,1.423051,-9.482637
1790541964.8663,-0.070246,-0.053683,-0.292043,-0.063650,-0.051272,-0.292043,0.246165,1.070169,1.152683,0.377287,2.166651,-9.521448
1790541964.8799,-0.070968,-0.058812,-0.273072,-0.068773,-0.056550,-0.273072,0.260735,0.188701,1.042196,-3.263871,0.716631,-11.073895
1790541964.8943,-0.064090,-0.058956,-0.259548,-0.065495,-0.058234,-0.259548,-0.075582,-0.547069,0.854004,0.913879,1.088431,-13.092077
1790541964.9083,-0.054382,-0.055248,-0.243913,-0.057716,-0.056144,-0.243913,-0.373047,-0.741331,0.719234,0.492271,0.419191,-13.907112
1790541964.9222,-0.053317,-0.054201,-0.205063,-0.054637,-0.054784,-0.205063,-0.347550,-0.388016,0.866145,5.053301,-2.443668,-10.064805
1790541964.9360,-0.046424,-0.050394,-0.183367,-0.048888,-0.051711,-0.183367,-0.449538,-0.706121,0.789654,2.332014,-0.621849,-8.201867
1790541964.9498,-0.030452,-0.043629,-0.162580,-0.035983,-0.046054,-0.162580,-0.642587,-1.273126,0.583250,1.143847,-0.473129,-8.201867
1790541964.9637,-0.030113,-0.032788,-0.151245,-0.031874,-0.036768,-0.151245,-0.948550,-0.294527,0.584464,2.676966,-0.770569,-6.494175
1790541964.9776,-0.024449,-0.017858,-0.144676,-0.026676,-0.023531,-0.144676,-1.154954,-0.617489,0.510402,2.676966,0.344831,-9.327392
1790541964.9914,-0.019778,-0.004030,-0.135158,-0.021848,-0.009880,-0.135158,-1.119744,-0.520358,0.284571,2.791950,-0.250049,-10.025993
1790541965.0054,-0.025997,-0.002272,-0.127609,-0.024752,-0.004554,-0.127609,-0.232206,0.397534,-0.119738,2.485326,-0.324409,-14.489280
1790541965.0194,-0.027826,-0.013701,-0.131352,-0.026904,-0.010957,-0.131352,0.833810,0.404819,-0.766876,-3.493839,1.757671,-16.158161
1790541965.0331,-0.019100,-0.023787,-0.142578,-0.021441,-0.019938,-0.142578,0.791315,-0.381945,-0.946569,-1.999048,1.832031,-11.423196
1790541965.0469,-0.017014,-0.032946,-0.145176,-0.018342,-0.029043,-0.145176,0.677186,-0.037129,-0.408704,-0.465928,0.828171,-7.153965
1790541965.0607,-0.002666,-0.047997,-0.147193,-0.007369,-0.042311,-0.147193,1.097279,-0.836035,-0.486409,-2.688951,1.162791,-11.656063
1790541965.0741,0.019826,-0.066562,-0.158376,0.011667,-0.059286,-0.158376,1.412956,-1.388469,-0.870078,-3.915447,1.162791,-10.763406
1790541965.0873,0.032349,-0.073874,-0.217768,0.026145,-0.069498,-0.217768,0.861736,-0.944093,-0.969638,0.607255,3.876931,-6.998721
1790541965.1003,0.037602,-0.077833,-0.243818,0.034165,-0.075332,-0.243818,0.408861,-0.449937,-0.928357,1.220503,1.832031,-7.930189
1790541965.1143,0.045797,-0.088771,-0.255608,0.042308,-0.084739,-0.255608,0.775531,-0.540998,-0.791159,-0.120976,0.753811,-9.948371
1790541965.1282,0.025809,-0.097570,-0.245973,0.030759,-0.093721,-0.245973,0.396719,1.412557,-0.896789,2.446998,-5.120628,-17.594175
1790541965.1426,0.017244,-0.088815,-0.243465,0.021299,-0.090287,-0.243465,-0.715435,0.880762,-0.758377,-6.023486,-1.662888,-13.868301
1790541965.1566,0.020288,-0.077686,-0.242825,0.020591,-0.081466,-0.242825,-0.930338,0.089142,-0.802086,-5.678534,-2.109048,-12.548721
1790541965.1705,0.013825,-0.062786,-0.244333,0.015855,-0.068390,-0.244333,-1.235088,0.758134,-0.760805,-2.114032,-1.105189,-5.329839
1790541965.1845,0.007442,-0.038028,-0.258202,0.009966,-0.047137,-0.258202,-1.683106,0.698641,-0.657603,-1.462456,1.162791,-4.902916
1790541965.1985,0.007890,-0.019776,-0.278413,0.008512,-0.027984,-0.278413,-1.604187,0.342897,-0.576256,-3.110559,-2.592388,-4.786483
1790541965.2125,-0.003219,0.000294,-0.285352,0.000300,-0.008189,-0.285352,-1.509484,0.830983,-0.419631,0.722239,0.010211,-10.220049
1790541965.2265,-0.010636,0.013968,-0.291920,-0.007355,0.007321,-0.291920,-1.021399,0.624578,-0.532546,0.415615,0.902531,-13.751868
1790541965.2403,0.005968,-0.000955,-0.284426,0.001971,0.001528,-0.284426,0.893303,-1.137142,-0.079671,-1.845736,-3.298808,-21.281238
1790541965.2542,0.010208,-0.008629,-0.309989,0.007737,-0.005582,-0.309989,0.658974,-0.579851,0.324638,2.906934,2.464091,-7.503266
1790541965.2681,0.004679,-0.009452,-0.329837,0.005596,-0.008291,-0.329837,0.253450,0.062431,0.826079,3.175230,3.876931,-7.503266
1790541965.2819,0.012501,-0.015703,-0.321962,0.010430,-0.013480,-0.321962,0.571556,-0.486362,0.358634,-1.692424,2.649991,-7.464455
1790541965.2958,0.004745,-0.025077,-0.328679,0.006450,-0.021598,-0.328679,0.729394,0.284619,0.454551,4.785005,2.612811,-11.927742
1790541965.3097,-0.008122,-0.036251,-0.328019,-0.003750,-0.031855,-0.328019,0.836239,0.778774,0.584464,2.178703,2.315371,-12.898021
1790541965.3233,-0.022268,-0.042399,-0.331064,-0.016713,-0.039236,-0.331064,0.581269,0.930542,0.611175,0.952207,2.835891,-8.007811
1790541965.3369,-0.027039,-0.044031,-0.326229,-0.023941,-0.042592,-0.326229,0.183030,0.314972,0.690095,-0.082648,2.278191,-8.861658
1790541965.3508,-0.031823,-0.044000,-0.316471,-0.029458,-0.043578,-0.316471,-0.037944,0.251837,0.769014,0.645583,0.939711,-8.628791
1790541965.3647,-0.035866,-0.042288,-0.305574,-0.033944,-0.042675,-0.305574,-0.163000,0.242124,0.736232,0.108991,1.014071,-9.405014
1790541965.3786,-0.035231,-0.040589,-0.299851,-0.034845,-0.041215,-0.299851,-0.090152,-0.122119,0.693737,0.530599,2.055111,-9.016902
1790541965.3932,-0.023136,-0.031612,-0.297025,-0.026649,-0.034493,-0.297025,-0.456823,-0.868816,0.493404,0.070663,4.583351,-9.676693
1790541965.4072,-0.013478,-0.022703,-0.291888,-0.017429,-0.026240,-0.291888,-0.618304,-0.810538,0.450909,1.833751,2.575631,-13.363756
1790541965.4211,-0.004959,-0.011702,-0.279912,-0.008700,-0.016063,-0.279912,-0.844134,-0.828750,0.283357,3.750150,0.865351,-11.578441
1790541965.4351,0.004581,-0.000890,-0.268799,0.000597,-0.005442,-0.268799,-0.842920,-0.885814,-0.003180,2.945262,0.344831,-8.124245
1790541965.4490,0.003093,0.009334,-0.275380,0.002344,0.004901,-0.275380,-0.649871,-0.071125,-0.175589,2.217030,1.757671,-5.640329
1790541965.4630,-0.005846,0.002697,-0.282102,-0.003389,0.003358,-0.282102,0.475638,0.835839,-0.634534,-1.309144,1.423051,-10.918651
1790541965.4771,0.000157,-0.004269,-0.293754,-0.000907,-0.001981,-0.293754,0.556986,-0.037129,-1.252533,-4.260399,2.612811,-12.471098
1790541965.4909,0.001597,-0.008115,-0.311702,0.000846,-0.006275,-0.311702,0.329941,0.147421,-1.239177,-1.040848,1.906391,-10.258860
1790541965.5048,-0.000311,-0.016358,-0.325022,0.000036,-0.013333,-0.325022,0.621335,0.291903,-0.921072,-0.197632,1.460231,-10.220049
1790541965.5187,0.009346,-0.030380,-0.334026,0.006553,-0.025266,-0.334026,0.980721,-0.429297,-1.134761,-2.382327,0.605091,-12.238231
1790541965.5327,0.028302,-0.044088,-0.353743,0.021777,-0.038442,-0.353743,1.094851,-1.063079,-1.348450,-1.615768,1.832031,-6.028441
1790541965.5463,0.037213,-0.047539,-0.368569,0.032582,-0.044810,-0.368569,0.428287,-0.800824,-1.420084,2.868606,2.538451,-5.174595
1790541965.5599,0.041188,-0.049268,-0.383684,0.038607,-0.047931,-0.383684,0.162390,-0.350378,-1.287743,2.408670,1.646131,-8.085434
1790541965.5738,0.045330,-0.053651,-0.400334,0.043313,-0.051935,-0.400334,0.274091,-0.243533,-1.439511,1.335487,0.939711,-11.500819
1790541965.5877,0.054536,-0.055187,-0.426016,0.051169,-0.054211,-0.426016,0.242523,-0.613847,-1.193040,0.760567,3.430771,-9.172147
1790541965.6017,0.031439,-0.057046,-0.419419,0.037358,-0.056196,-0.419419,-0.090152,1.644458,-1.184541,2.523654,-2.406488,-11.617252
1790541965.6156,0.023327,-0.043491,-0.429699,0.027536,-0.047302,-0.429699,-1.048110,0.777560,-1.023060,-2.152360,-0.064149,-14.178791
1790541965.6295,0.019635,-0.028096,-0.430796,0.022006,-0.033858,-0.430796,-1.280011,0.551730,-0.930785,-3.225543,-1.811608,-10.569350
1790541965.6437,0.016091,-0.010931,-0.431080,0.017865,-0.017809,-0.431080,-1.412353,0.535946,-0.791159,-2.343999,-1.662888,-7.542077
1790541965.6580,0.010066,0.006805,-0.436781,0.012406,-0.000579,-0.436781,-1.354074,0.682857,-0.738951,-2.229015,-0.547489,-9.210958
1790541965.6721,0.002433,0.019860,-0.445436,0.005425,0.013728,-0.445436,-1.079678,0.914758,-0.692813,-3.302199,-0.993649,-7.774944
1790541965.6862,0.010065,0.019707,-0.449686,0.008673,0.017913,-0.449686,-0.069511,-0.248390,-0.524047,-4.260399,0.158931,-12.044175
1790541965.7001,0.008385,0.009733,-0.449651,0.008472,0.012187,-0.449651,0.672329,-0.049270,0.303998,2.945262,1.237151,-13.829490
1790541965.7141,0.010010,-0.004008,-0.440591,0.009548,0.000850,-0.440591,1.006218,-0.294527,0.832149,0.990535,2.166651,-10.608161
1790541965.7281,0.012012,-0.009421,-0.450642,0.011273,-0.006339,-0.450642,0.697826,-0.288456,0.868574,0.338959,5.364131,-6.532986
1790541965.7420,0.013555,-0.017781,-0.445021,0.012871,-0.014349,-0.445021,0.565485,-0.362519,0.441196,3.366870,0.753811,-10.064805
1790541965.7569,-0.004937,-0.033909,-0.437086,0.000405,-0.028041,-0.437086,0.998934,1.033744,0.551682,3.405198,-0.212869,-11.733686
1790541965.7710,-0.021050,-0.046795,-0.443368,-0.014613,-0.041169,-0.443368,1.108206,1.060455,0.602676,0.645583,3.467951,-7.192776
1790541965.7846,-0.035555,-0.050198,-0.442230,-0.029273,-0.047489,-0.442230,0.374865,0.974251,0.794511,0.798895,2.984611,-8.201867
1790541965.7982,-0.043039,-0.056480,-0.433219,-0.038909,-0.053783,-0.433219,0.459854,0.522590,0.932923,-0.312616,1.571771,-8.706413
1790541965.8122,-0.051925,-0.062069,-0.422594,-0.048020,-0.059583,-0.422594,0.361509,0.557801,0.886786,0.607255,0.976891,-8.163056
1790541965.8261,-0.036224,-0.072258,-0.394155,-0.039763,-0.068456,-0.394155,0.458640,-1.092219,0.896499,-2.190688,-4.042408,-14.683336
1790541965.8400,-0.024903,-0.067367,-0.385155,-0.029361,-0.067693,-0.385155,-0.357263,-0.955020,0.711949,2.830278,2.129471,-15.226693
1790541965.8539,-0.024365,-0.056232,-0.366690,-0.025864,-0.059671,-0.366690,-0.984975,-0.362519,0.611175,5.858189,-2.034688,-10.452916
1790541965.8678,-0.018423,-0.039133,-0.357135,-0.020655,-0.045294,-0.357135,-1.335862,-0.734047,0.512830,4.171758,-0.324409,-8.318301
1790541965.8816,-0.008645,-0.022430,-0.340839,-0.012248,-0.029289,-0.340839,-1.437850,-0.969590,0.243290,2.638638,-1.514168,-5.834385
1790541965.8956,0.007623,-0.005898,-0.319232,0.001662,-0.012916,-0.319232,-1.365001,-1.140784,0.263931,-0.427600,-0.584669,-4.592427
1790541965.9101,0.023999,0.007623,-0.323967,0.017298,0.001462,-0.323967,-0.920625,-1.416394,0.453337,2.217030,1.051251,-6.222497
1790541965.9242,0.030241,0.016775,-0.332809,0.026358,0.012181,-0.332809,-0.614661,-0.787469,0.446052,3.405198,1.348691,-7.115154
1790541965.9382,0.018081,0.004100,-0.328380,0.020564,0.006524,-0.328380,0.828954,0.880762,-0.083314,0.645583,0.679451,-19.107812
1790541965.9522,0.010045,0.000398,-0.357408,0.013201,0.002236,-0.357408,0.441642,0.753277,-0.814227,-0.887536,4.732071,-10.957462
1790541965.9659,0.016347,0.001158,-0.400062,0.015403,0.001482,-0.400062,0.387006,-0.318810,-0.527690,-0.542584,4.062831,-3.389280
1790541965.9797,0.003290,-0.012256,-0.403765,0.006924,-0.008134,-0.403765,0.944297,0.980322,-0.414775,0.453943,0.456371,-5.523895
1790541965.9935,0.006391,-0.027385,-0.413900,0.006551,-0.021610,-0.413900,1.194410,-0.027416,-0.428130,-1.845736,2.166651,-8.007811
1790541966.0070,0.018220,-0.038275,-0.424111,0.014719,-0.033276,-0.424111,0.858093,-0.718263,-0.645462,-1.654096,2.129471,-11.694875
1790541966.0206,0.020594,-0.041474,-0.435994,0.018831,-0.039014,-0.435994,0.293517,-0.204681,-0.755949,1.910407,2.055111,-10.025993
1790541966.0345,0.024582,-0.044387,-0.444053,0.022856,-0.042775,-0.444053,0.210955,-0.262960,-0.656389,0.683911,1.088431,-10.064805
1790541966.0483,0.036967,-0.046515,-0.447549,0.032734,-0.045393,-0.447549,0.116252,-0.710978,-0.652746,-1.577440,0.382011,-7.153965
1790541966.0622,0.042027,-0.049713,-0.461670,0.039239,-0.048417,-0.461670,0.385792,-0.256889,-0.338284,-1.539112,3.914111,-10.375294
1790541966.0761,0.022291,-0.046481,-0.463605,0.027375,-0.047062,-0.463605,-0.278344,1.355492,-0.626035,2.293686,0.530731,-10.297672
1790541966.0900,0.012741,-0.030886,-0.472874,0.017131,-0.035739,-0.472874,-1.117316,0.855265,-0.542260,-2.573967,2.055111,-16.158161
1790541966.1040,0.007952,-0.018105,-0.453048,0.010706,-0.023395,-0.453048,-1.134314,0.653718,-0.657603,-3.225543,-2.071868,-8.201867
1790541966.1179,0.001324,-0.007122,-0.437252,0.004138,-0.012004,-0.437252,-1.043253,0.618508,-0.371065,-0.657568,-1.551348,-5.135783
1790541966.1321,-0.004734,0.008230,-0.436645,-0.002072,0.002160,-0.436645,-1.165882,0.725352,-0.390492,-1.845736,-0.026969,-4.786483
1790541966.1464,-0.000691,0.009706,-0.431822,-0.001105,0.007442,-0.431822,-0.224922,-0.090551,-0.197443,-3.992103,-0.919289,-15.459560
1790541966.1609,0.002765,-0.002552,-0.420927,0.001604,0.000447,-0.420927,0.714824,-0.248390,0.365919,-1.040848,-1.030829,-16.313406
1790541966.1749,-0.002333,-0.013225,-0.415195,-0.001152,-0.009124,-0.415195,0.699040,0.069715,0.891642,3.290214,0.567911,-10.491728
1790541966.1889,0.002829,-0.025600,-0.403583,0.001635,-0.020657,-0.403583,0.947940,-0.329737,0.827293,-1.960720,2.203831,-8.085434
1790541966.2028,0.003028,-0.032716,-0.398779,0.002610,-0.029098,-0.398779,0.590982,0.084285,0.399915,-1.309144,1.497411,-5.562707
1790541966.2168,-0.009643,-0.038875,-0.397955,-0.005967,-0.035942,-0.397955,0.452570,0.783631,0.375632,1.987063,1.608951,-11.345574
1790541966.2307,-0.026105,-0.047656,-0.395799,-0.020064,-0.044141,-0.395799,0.635905,1.047100,0.498260,2.102047,1.423051,-10.608161
1790541966.2443,-0.040332,-0.050472,-0.393781,-0.034252,-0.048573,-0.393781,0.293517,0.945112,0.670668,1.412143,3.133331,-10.646972
1790541966.2578,-0.043307,-0.052786,-0.384909,-0.040590,-0.051522,-0.384909,0.166032,0.233625,0.703450,-0.580912,1.385871,-8.667602
1790541966.2717,-0.045056,-0.055808,-0.375302,-0.043717,-0.054522,-0.375302,0.184244,0.061216,0.730161,0.453943,0.902531,-7.619700
1790541966.2857,-0.044005,-0.057475,-0.369784,-0.043919,-0.056589,-0.369784,0.185458,-0.141545,0.674311,0.722239,2.798711,-9.948371
1790541966.2995,-0.029891,-0.056686,-0.358577,-0.034100,-0.056657,-0.358577,-0.101079,-0.970804,0.659741,-1.692424,1.199971,-12.781588
1790541966.3134,-0.017125,-0.044406,-0.348962,-0.022218,-0.048081,-0.348962,-0.974047,-1.243986,0.641529,6.049829,-0.026969,-11.811308
1790541966.3274,-0.016457,-0.032186,-0.336835,-0.018185,-0.036954,-0.336835,-1.067536,-0.437796,0.626959,6.356453,-2.071868,-9.288581
1790541966.3413,-0.004206,-0.012556,-0.328463,-0.008400,-0.019875,-0.328463,-1.519197,-1.015728,0.232363,1.527127,-0.212869,-7.930189
1790541966.3552,0.003405,0.002943,-0.326353,-0.000136,-0.003902,-0.326353,-1.181666,-0.780184,0.211723,3.136902,0.382011,-8.784035
1790541966.3692,0.017045,0.015639,-0.324827,0.011890,0.009777,-0.324827,-0.986189,-1.274340,0.163157,3.750150,0.270471,-8.163056
1790541966.3830,0.014224,0.012026,-0.319419,0.013524,0.011351,-0.319419,0.084685,-0.066268,-0.000752,7.467964,-2.332128,-14.528091
1790541966.3970,0.005029,0.004013,-0.331688,0.007578,0.006215,-0.331688,0.655331,0.850409,-0.525262,-2.114032,3.765391,-13.557812
1790541966.4113,0.007365,0.000031,-0.350286,0.007429,0.001886,-0.350286,0.376079,0.154705,-1.132333,-3.532167,4.100011,-14.101168
1790541966.4252,0.008000,-0.005737,-0.373479,0.007828,-0.003450,-0.373479,0.572770,0.163204,-0.944141,-0.542584,1.869211,-4.786483
1790541966.4392,0.014506,-0.019199,-0.378976,0.012502,-0.014474,-0.378976,0.996505,-0.191325,-0.634534,-2.152360,1.199971,-6.610609
1790541966.4531,0.029050,-0.035989,-0.386278,0.024086,-0.029534,-0.386278,1.222336,-0.832392,-0.751092,-2.420655,1.534591,-10.802217
1790541966.4666,0.043743,-0.044315,-0.412358,0.037846,-0.039881,-0.412358,0.835024,-1.031511,-1.006062,0.415615,3.319231,-6.455364
1790541966.4802,0.052555,-0.049969,-0.429985,0.048142,-0.046943,-0.429985,0.484137,-0.629630,-0.993920,0.760567,1.943571,-7.852567
1790541966.4941,0.062893,-0.058223,-0.439743,0.058468,-0.054839,-0.439743,0.507206,-0.674554,-1.038844,0.032335,0.084571,-7.774944
1790541966.5079,0.066623,-0.063371,-0.458536,0.064176,-0.060811,-0.458536,0.541202,-0.239891,-0.616322,-0.044320,4.806431,-11.462007
1790541966.5218,0.044325,-0.058689,-0.464829,0.050281,-0.059326,-0.464829,-0.439825,1.621389,-0.770518,1.488799,-0.398769,-19.728791
1790541966.5356,0.031763,-0.040471,-0.471129,0.037318,-0.046127,-0.471129,-1.408710,1.047100,-0.737736,-1.769080,-0.101329,-17.283686
1790541966.5495,0.035566,-0.027529,-0.461592,0.036091,-0.033108,-0.461592,-1.175595,0.017507,-0.819084,-3.417183,-2.741108,-9.366203
1790541966.5634,0.030999,-0.010827,-0.462383,0.032526,-0.017512,-0.462383,-1.395355,0.639148,-0.811799,-2.075704,-1.068009,-5.795574
1790541966.5777,0.019674,0.011199,-0.467802,0.023530,0.002586,-0.467802,-1.658823,1.028888,-0.675815,-1.424128,-0.250049,-6.804665
1790541966.5941,0.009985,0.025917,-0.472685,0.014049,0.018917,-0.472685,-1.077249,0.835839,-0.604181,-2.727279,-2.257768,-10.569350
1790541966.6085,0.015489,0.023157,-0.474681,0.015057,0.021885,-0.474681,0.066472,-0.091765,-0.561686,-3.762135,-0.696209,-11.112707
1790541966.6226,0.020980,0.014932,-0.478799,0.019203,0.017018,-0.478799,0.532703,-0.602919,0.261503,3.175230,0.865351,-11.694875
1790541966.6374,0.019482,0.000473,-0.472241,0.019398,0.005436,-0.472241,0.921228,-0.148830,0.817580,2.638638,0.493551,-12.471098
1790541966.6516,0.019462,-0.011397,-0.479202,0.019443,-0.006347,-0.479202,1.110635,-0.197396,0.794511,0.683911,2.910251,-4.126693
1790541966.6654,0.017208,-0.018560,-0.477241,0.017878,-0.014896,-0.477241,0.584911,0.068501,0.426626,0.607255,2.241011,-9.094525
1790541966.6797,0.004057,-0.029195,-0.475559,0.008203,-0.024905,-0.475559,0.751249,0.707140,0.532256,2.868606,1.348691,-9.987182
1790541966.6940,-0.012169,-0.040616,-0.475038,-0.006057,-0.035902,-0.475038,0.876305,0.940255,0.659741,2.178703,2.315371,-8.551168
1790541966.7076,-0.032721,-0.043567,-0.474715,-0.024722,-0.041267,-0.474715,0.379721,1.331209,0.900141,1.910407,3.988471,-8.861658
1790541966.7213,-0.039149,-0.048705,-0.462062,-0.034821,-0.046474,-0.462062,0.378507,0.491023,0.998487,-1.270816,1.794851,-9.055714
1790541966.7353,-0.045587,-0.052459,-0.451766,-0.042357,-0.050663,-0.451766,0.270448,0.335613,0.996058,0.760567,1.311511,-6.494175
1790541966.7492,-0.049511,-0.054638,-0.441440,-0.047365,-0.053445,-0.441440,0.121109,0.205699,0.838220,0.568927,1.088431,-8.434735
1790541966.7632,-0.026343,-0.056455,-0.422636,-0.032649,-0.055552,-0.422636,0.039761,-1.695647,1.055551,-0.849208,0.865351,-13.130889
1790541966.7771,-0.014166,-0.041200,-0.403292,-0.019711,-0.045506,-0.403292,-1.174381,-1.223346,0.793297,7.391308,0.530731,-14.101168
1790541966.7910,-0.012651,-0.027579,-0.375368,-0.014769,-0.032957,-0.375368,-1.199878,-0.480291,0.660955,6.318125,-2.555208,-10.220049
1790541966.8050,-0.000871,-0.008072,-0.368405,-0.005040,-0.015538,-0.368405,-1.445134,-1.077649,0.407200,2.868606,0.642271,-8.784035
1790541966.8189,0.012088,0.011908,-0.370297,0.006949,0.003674,-0.370297,-1.419637,-1.359330,0.293070,2.255358,0.567911,-2.884734
1790541966.8328,0.035661,0.025634,-0.369061,0.027047,0.019046,-0.369061,-0.898771,-1.835274,0.437553,0.185647,1.311511,-4.126693
1790541966.8467,0.032767,0.023600,-0.374454,0.031051,0.022234,-0.374454,0.280161,-0.065054,0.487333,2.332014,2.724351,-6.998721
1790541966.8607,0.017081,0.011080,-0.387802,0.021272,0.014426,-0.387802,1.039000,1.331209,-0.145235,-3.493839,4.880791,-11.966553
1790541966.8745,0.023885,0.005777,-0.400816,0.023101,0.008372,-0.400816,0.430715,-0.230178,-0.864007,-3.570495,3.728211,-16.002917
1790541966.8884,0.016737,0.001478,-0.410088,0.018646,0.003546,-0.410088,0.320228,0.510449,-0.657603,1.872079,1.683311,-9.793126
1790541966.9023,0.021080,-0.012449,-0.408944,0.020350,-0.007650,-0.408944,0.979507,-0.068697,-0.411132,-2.229015,0.716631,-6.959909
1790541966.9161,0.030116,-0.027765,-0.416418,0.027186,-0.021731,-0.416418,1.094851,-0.474220,-0.712239,-1.232488,0.865351,-7.813756
1790541966.9299,0.049225,-0.041273,-0.429021,0.042613,-0.035411,-0.429021,1.058427,-1.110431,-0.867650,-2.075704,1.497411,-5.717951
1790541966.9439,0.057682,-0.045003,-0.446224,0.053161,-0.042125,-0.446224,0.390648,-0.653913,-1.026702,1.872079,2.873071,-7.386832
1790541966.9580,0.060724,-0.046411,-0.459167,0.058455,-0.045125,-0.459167,0.095612,-0.228964,-1.049771,1.757095,1.757671,-10.685784
1790541966.9720,0.049402,-0.053759,-0.468746,0.052118,-0.051169,-0.468746,0.444071,0.906259,-0.893147,-0.504256,0.307651,-14.799770
1790541966.9859,0.029121,-0.046137,-0.489498,0.036020,-0.047647,-0.489498,-0.532100,1.581322,-1.127476,-0.274288,3.170511,-19.418301
1790541966.9999,0.021326,-0.035138,-0.495176,0.025734,-0.038891,-0.495176,-0.908484,0.766633,-1.055842,-2.075704,-1.030829,-13.557812
1790541967.0138,0.019521,-0.024175,-0.491208,0.021385,-0.028589,-0.491208,-0.977690,0.459455,-0.953854,-1.769080,-0.919289,-4.747672
1790541967.0277,0.024645,-0.009479,-0.491905,0.023667,-0.015212,-0.491905,-1.181666,0.147421,-0.929571,-4.452038,-0.696209,-5.252217
1790541967.0417,0.016007,0.010600,-0.507628,0.018305,0.002856,-0.507628,-1.425708,0.840696,-0.973280,-0.465928,0.828171,-4.475993
1790541967.0556,0.007005,0.024254,-0.516950,0.010395,0.017835,-0.516950,-1.116102,0.979108,-0.919858,-2.650623,-0.770569,-9.948371
1790541967.0694,0.018207,0.019657,-0.521841,0.015864,0.019110,-0.521841,0.159961,-0.500931,-0.837296,-5.295254,-2.555208,-18.021098
1790541967.0834,0.020163,0.008730,-0.516757,0.018873,0.011844,-0.516757,0.671115,-0.312739,0.361062,3.481854,-0.435949,-18.642077
1790541967.0975,0.014651,-0.001470,-0.503896,0.015918,0.002524,-0.503896,0.638333,0.305259,0.783584,-0.350944,0.084571,-8.434735
1790541967.1114,0.027170,-0.010786,-0.502230,0.023794,-0.006793,-0.502230,0.916372,-0.647843,0.470335,-2.497311,2.352551,-3.117602
1790541967.1255,0.014287,-0.017294,-0.504223,0.017139,-0.014143,-0.504223,0.522990,0.665859,0.297927,2.408670,1.460231,-5.989630
1790541967.1394,-0.001925,-0.034204,-0.501238,0.003794,-0.028186,-0.501238,1.179841,1.099308,0.335565,1.028863,0.790991,-13.014455
1790541967.1533,-0.021323,-0.049221,-0.497567,-0.013788,-0.042911,-0.497567,1.142202,1.220722,0.631816,2.140375,2.241011,-9.210958
1790541967.1676,-0.042347,-0.053520,-0.491928,-0.033779,-0.050337,-0.491928,0.445285,1.331209,0.920782,1.795423,4.285911,-9.754315
1790541967.1813,-0.050676,-0.061287,-0.479141,-0.045607,-0.058002,-0.479141,0.507206,0.635506,1.005772,-0.925864,0.753811,-7.697322
1790541967.1954,-0.040581,-0.065680,-0.470059,-0.042089,-0.063376,-0.470059,0.406432,-0.774113,0.810295,0.338959,3.096151,-8.745224
1790541967.2093,-0.028128,-0.065418,-0.455866,-0.032316,-0.064806,-0.455866,-0.127790,-0.987802,0.823650,0.990535,-0.138509,-12.082986
1790541967.2233,-0.024989,-0.061753,-0.436160,-0.027188,-0.062669,-0.436160,-0.476249,-0.532499,0.820008,6.049829,-2.927008,-12.354665
1790541967.2372,-0.022110,-0.054457,-0.419391,-0.023634,-0.056921,-0.419391,-0.733647,-0.527642,0.806652,5.858189,-2.592388,-11.733686
1790541967.2510,-0.020409,-0.039701,-0.411170,-0.021376,-0.044867,-0.411170,-1.221732,-0.537356,0.624531,4.746677,-0.993649,-6.222497
1790541967.2649,-0.015634,-0.016419,-0.407524,-0.017357,-0.024953,-0.407524,-1.713460,-0.616275,0.452123,2.830278,0.642271,-6.765853
1790541967.2788,-0.003477,0.008276,-0.394888,-0.007641,-0.001693,-0.394888,-1.896795,-1.093433,0.437553,0.645583,-0.026969,-2.380189
1790541967.2927,0.022339,0.026965,-0.385424,0.013345,0.018368,-0.385424,-1.344361,-1.970043,0.432697,0.185647,1.460231,-7.658511
1790541967.3066,0.033326,0.039468,-0.380563,0.027332,0.033138,-0.380563,-0.908484,-1.184493,0.620889,5.589893,1.832031,-12.082986
1790541967.3207,0.009387,0.019352,-0.361010,0.014770,0.023488,-0.361010,1.195625,1.484191,0.435125,6.893044,-4.897548,-21.281238
1790541967.3346,0.014452,0.010776,-0.373379,0.014548,0.014590,-0.373379,0.753677,-0.249604,-0.165875,-1.769080,4.360271,-11.112707
1790541967.3486,0.005241,0.013373,-0.419261,0.008033,0.013738,-0.419261,0.149034,0.554158,-0.527690,2.753622,5.103871,-6.106063
1790541967.3624,-0.008141,0.000685,-0.415250,-0.003289,0.004601,-0.415250,0.842309,0.867407,-0.301859,2.753622,0.158931,-8.900469
1790541967.3762,-0.003429,-0.013796,-0.410258,-0.003387,-0.008277,-0.410258,1.045071,-0.027416,-0.397777,-3.992103,1.125611,-9.249770
1790541967.3898,0.007164,-0.029006,-0.414865,0.003999,-0.022787,-0.414865,1.142202,-0.764400,-0.286076,0.415615,1.571771,-10.414105
1790541967.4034,0.013934,-0.036585,-0.425902,0.010953,-0.032446,-0.425902,0.628620,-0.407442,-0.463340,-0.504256,1.943571,-8.939280
1790541967.4180,0.027429,-0.037066,-0.433867,0.022486,-0.035680,-0.433867,0.055545,-0.856675,-0.514334,-0.274288,1.274331,-8.551168
1790541967.4322,0.033333,-0.038239,-0.438560,0.030079,-0.037471,-0.438560,0.061616,-0.443867,-0.476696,1.067191,0.753811,-8.939280
1790541967.4462,0.033741,-0.043445,-0.441545,0.032642,-0.041653,-0.441545,0.362723,-0.107549,-0.235082,1.488799,0.902531,-9.133336
1790541967.4602,0.016196,-0.034518,-0.449586,0.021130,-0.036658,-0.449586,-0.664441,1.346993,-0.602967,-0.389272,1.497411,-18.525644
1790541967.4740,0.007719,-0.017262,-0.450892,0.011742,-0.023081,-0.450892,-1.299437,0.828554,-0.570185,-2.688951,0.567911,-12.432287
1790541967.4878,0.000936,-0.003165,-0.432408,0.004178,-0.009140,-0.432408,-1.277583,0.782417,-0.651532,-2.037376,-1.960328,-6.688231
1790541967.5017,0.000295,0.014071,-0.434274,0.001460,0.007108,-0.434274,-1.371072,0.606366,-0.542260,-2.573967,-0.473129,-2.186133
1790541967.5156,-0.008594,0.031374,-0.454007,-0.005578,0.024094,-0.454007,-1.083320,0.720496,-0.531332,0.300631,1.980751,-4.475993
1790541967.5294,0.015391,0.009571,-0.441906,0.009101,0.013928,-0.441906,1.385031,-1.621584,-0.220512,-2.190688,-2.183408,-14.450469
1790541967.5433,0.009530,-0.001227,-0.455056,0.009401,0.003319,-0.455056,0.960081,0.106140,0.708307,5.206613,6.070550,-12.626343
1790541967.5572,0.010377,-0.011246,-0.438142,0.010084,-0.006876,-0.438142,0.689327,-0.130618,1.000915,-1.385800,1.423051,-12.393476
1790541967.5710,0.015465,-0.023039,-0.422815,0.013851,-0.018191,-0.422815,0.837453,-0.481505,0.976632,-0.312616,1.237151,-11.073895
1790541967.5848,0.010330,-0.030979,-0.414786,0.011387,-0.027142,-0.414786,0.529061,0.206913,0.640315,1.488799,0.493551,-9.521448
1790541967.5988,-0.011241,-0.040424,-0.410502,-0.004453,-0.036440,-0.410502,0.623764,1.221936,0.868574,4.631693,0.382011,-10.452916
1790541967.6127,-0.024565,-0.052101,-0.400523,-0.018531,-0.047403,-0.400523,0.830168,0.872263,0.912283,0.453943,1.237151,-9.637881
1790541967.6261,-0.039393,-0.055248,-0.397554,-0.033135,-0.052895,-0.397554,0.317800,1.025245,0.937780,0.377287,2.501271,-8.318301
1790541967.6397,-0.044314,-0.059148,-0.381805,-0.040961,-0.057272,-0.381805,0.249808,0.444885,0.946279,-2.075704,1.274331,-9.909560
1790541967.6538,-0.043952,-0.060214,-0.369918,-0.043054,-0.059331,-0.369918,0.061616,0.029649,0.759301,-1.232488,1.311511,-8.551168
1790541967.6681,-0.036379,-0.062764,-0.356256,-0.038381,-0.061734,-0.356256,0.091969,-0.623560,0.809081,1.220503,0.419191,-13.480189
1790541967.6824,-0.026524,-0.055926,-0.343649,-0.030081,-0.057669,-0.343649,-0.555168,-0.791111,0.737446,1.335487,0.419191,-12.471098
1790541967.6963,-0.018915,-0.048638,-0.327135,-0.022265,-0.051347,-0.327135,-0.726362,-0.752259,0.726519,2.791950,-1.923148,-10.375294
1790541967.7104,-0.005884,-0.037129,-0.323093,-0.010798,-0.041394,-0.323093,-0.943694,-1.262198,0.516472,3.980118,-0.696209,-7.309210
1790541967.7245,0.000029,-0.020627,-0.323297,-0.003219,-0.026857,-0.323297,-1.201092,-0.690338,0.444838,2.255358,0.530731,-5.717951
1790541967.7384,0.011350,-0.002626,-0.317401,0.006979,-0.009895,-0.317401,-1.362573,-1.042439,0.384131,2.025391,0.307651,-6.959909
1790541967.7523,0.021860,0.012611,-0.314438,0.017396,0.005859,-0.314438,-1.154954,-0.953806,0.157086,2.446998,0.530731,-8.822846
1790541967.7663,0.015370,0.007115,-0.304449,0.015977,0.006739,-0.304449,0.159961,0.367180,-0.395348,6.701404,-4.934728,-21.281238
1790541967.7802,0.011222,0.004454,-0.335940,0.012649,0.005139,-0.335940,0.374865,0.421817,-0.901646,0.415615,5.959010,-13.519000
1790541967.7942,0.022796,0.001551,-0.352142,0.019752,0.002627,-0.352142,0.274091,-0.610204,-1.058270,-0.810880,1.794851,-7.076343
1790541967.8083,0.019553,-0.007469,-0.374232,0.019613,-0.004440,-0.374232,0.794958,0.398748,-0.721953,-0.619240,2.241011,-5.562707
1790541967.8220,0.018343,-0.027476,-0.377363,0.018724,-0.020565,-0.377363,1.439667,0.296760,-0.651532,-1.960720,1.051251,-10.142427
1790541967.8358,0.033809,-0.038724,-0.398252,0.029284,-0.033276,-0.398252,1.032930,-0.815394,-1.054627,-2.727279,3.653851,-6.959909
1790541967.8494,0.040781,-0.045770,-0.418949,0.037332,-0.042022,-0.418949,0.582483,-0.400158,-1.125048,-0.082648,1.980751,-8.473546
1790541967.8631,0.050120,-0.053135,-0.431322,0.046284,-0.049801,-0.431322,0.487780,-0.669697,-1.108050,1.182175,0.530731,-9.560259
1790541967.8770,0.065040,-0.059941,-0.437856,0.059413,-0.056899,-0.437856,0.406432,-1.086148,-0.881005,0.913879,0.047391,-8.357112
1790541967.8908,0.074079,-0.068522,-0.449114,0.069679,-0.065035,-0.449114,0.570341,-0.752259,-0.933213,1.910407,0.530731,-7.891378
1790541967.9045,0.059138,-0.068738,-0.464124,0.062301,-0.067627,-0.464124,-0.030659,1.211009,-1.019417,-1.539112,1.348691,-15.498371
1790541967.9186,0.040703,-0.050492,-0.473601,0.047182,-0.055633,-0.473601,-1.362573,1.467193,-0.908930,-2.535639,0.679451,-18.021098
1790541967.9326,0.038376,-0.033817,-0.458960,0.041018,-0.040362,-0.458960,-1.434207,0.527447,-0.998777,-3.570495,-1.960328,-7.658511
1790541967.9466,0.034291,-0.022194,-0.459135,0.036309,-0.027645,-0.459135,-0.994688,0.432744,-0.813013,-0.427600,-0.696209,-6.183686
1790541967.9605,0.026018,0.000011,-0.474288,0.029105,-0.008286,-0.474288,-1.505842,0.965752,-0.723167,-1.922392,1.237151,-3.738581
1790541967.9744,0.019833,0.014621,-0.478138,0.022615,0.007749,-0.478138,-1.179237,1.007033,-0.657603,-2.573967,-0.361589,-2.380189
1790541967.9883,0.023122,0.005197,-0.480022,0.022970,0.005962,-0.480022,0.529061,0.016293,-0.675815,-4.413711,-1.774428,-18.215154
1790541968.0023,0.029452,-0.005492,-0.479992,0.027508,-0.002055,-0.479992,0.788887,-0.630845,0.380488,2.523654,2.464091,-13.635434
1790541968.0163,0.022214,-0.008350,-0.479834,0.023802,-0.006461,-0.479834,0.306873,0.212984,0.965705,3.596838,3.728211,-12.044175
1790541968.0304,0.030339,-0.019827,-0.456265,0.028378,-0.015817,-0.456265,0.758533,-0.547069,1.068907,-2.650623,0.233291,-8.318301
1790541968.0442,0.026774,-0.032691,-0.453764,0.027255,-0.027629,-0.453764,0.917586,0.040576,0.608747,1.910407,0.679451,-8.240679
1790541968.0580,0.000084,-0.036531,-0.466315,0.008235,-0.033861,-0.466315,0.360295,1.515759,0.783584,5.283269,1.980751,-7.503266
1790541968.0718,-0.013866,-0.049945,-0.453792,-0.007235,-0.045119,-0.453792,0.933370,0.970609,0.837006,-0.312616,0.716631,-10.142427
1790541968.0853,-0.029249,-0.055353,-0.455111,-0.022645,-0.052283,-0.455111,0.589768,1.042243,0.861289,0.607255,3.505131,-7.309210
1790541968.0989,-0.038453,-0.058933,-0.446554,-0.033711,-0.056938,-0.446554,0.297159,0.619722,0.941422,0.147319,2.538451,-11.190329
1790541968.1129,-0.026163,-0.064565,-0.425062,-0.028427,-0.062277,-0.425062,0.248594,-0.911311,0.960848,-0.504256,-0.919289,-13.092077
1790541968.1268,-0.019402,-0.061715,-0.411846,-0.022110,-0.061884,-0.411846,-0.300198,-0.607776,0.776299,1.412143,-0.064149,-11.500819
1790541968.1405,-0.012162,-0.061672,-0.393147,-0.015146,-0.061736,-0.393147,-0.154501,-0.662412,0.953564,1.412143,-1.142369,-11.811308
1790541968.1546,-0.003366,-0.059289,-0.378809,-0.006900,-0.060023,-0.378809,-0.325695,-0.911311,0.877073,3.635166,-1.328269,-9.210958
1790541968.1692,0.003097,-0.046935,-0.374651,0.000098,-0.050861,-0.374651,-0.867203,-0.715834,0.726519,3.021918,0.642271,-7.813756
1790541968.1832,0.010479,-0.030533,-0.364062,0.007365,-0.036631,-0.364062,-1.304294,-0.809323,0.504331,3.290214,-0.844929,-7.969000
1790541968.1972,0.020597,-0.012823,-0.360049,0.016627,-0.019965,-0.360049,-1.356502,-1.023012,0.333137,3.750150,-0.212869,-8.357112
1790541968.2112,0.033705,0.002859,-0.359930,0.028582,-0.003988,-0.359930,-1.159811,-1.151712,0.142517,2.140375,0.567911,-7.231588
1790541968.2251,0.030013,0.000055,-0.343142,0.029583,-0.001158,-0.343142,0.019121,0.194772,0.117020,1.603783,-2.109048,-16.002917
1790541968.2390,0.017185,-0.011501,-0.347515,0.020904,-0.008398,-0.347515,0.859307,1.204938,-0.678243,-3.532167,2.464091,-12.626343
1790541968.2529,0.020519,-0.023563,-0.356695,0.020634,-0.019014,-0.356695,0.877519,0.072144,-1.193040,-2.918919,1.720491,-11.423196
1790541968.2668,0.020763,-0.030505,-0.397729,0.020724,-0.027057,-0.397729,0.707539,-0.137903,-0.770518,2.025391,2.464091,-5.291028
1790541968.2807,0.026112,-0.047961,-0.393797,0.024496,-0.041690,-0.393797,1.230835,-0.154901,-0.542260,-2.842263,0.679451,-9.793126
1790541968.2945,0.042405,-0.066988,-0.402260,0.037032,-0.059399,-0.402260,1.417813,-0.955020,-0.855508,-2.842263,1.906391,-10.530539
1790541968.3082,0.055539,-0.078644,-0.431326,0.049987,-0.072870,-0.431326,1.098493,-0.827536,-0.989064,-1.079176,3.542311,-6.532986
1790541968.3217,0.058396,-0.079484,-0.461619,0.055874,-0.077500,-0.461619,0.286232,-0.265388,-0.998777,1.297159,3.691031,-7.115154
1790541968.3356,0.068140,-0.083686,-0.475000,0.064460,-0.081830,-0.475000,0.282590,-0.635701,-0.917429,-0.350944,0.605091,-6.571797
1790541968.3495,0.059234,-0.092431,-0.478133,0.060802,-0.089251,-0.478133,0.560628,0.674358,-0.464554,-0.619240,-0.212869,-14.295224
1790541968.3633,0.031751,-0.088482,-0.490742,0.040466,-0.088713,-0.490742,-0.240705,2.036626,-0.494908,-0.580912,3.021791,-19.457112
1790541968.3772,0.032056,-0.074229,-0.489604,0.034579,-0.078574,-0.489604,-1.052967,0.262764,-0.657603,-5.755190,0.605091,-13.092077
1790541968.3911,0.029279,-0.060504,-0.453772,0.030869,-0.065925,-0.453772,-1.314007,0.631863,-0.724381,-3.723807,-2.703928,-4.320748
1790541968.4049,0.017962,-0.044885,-0.453854,0.021834,-0.051197,-0.453854,-1.378357,1.003391,-0.696456,-0.925864,-1.625708,-4.941727
1790541968.4192,0.005245,-0.026583,-0.459098,0.010222,-0.033967,-0.459098,-1.352860,0.975465,-0.497336,-0.082648,0.010211,-6.416553
1790541968.4331,-0.003940,-0.006220,-0.464206,0.000308,-0.014545,-0.464206,-1.491272,0.702283,-0.347997,0.377287,0.716631,-8.745224
1790541968.4469,0.006195,0.001272,-0.461030,0.004429,-0.003473,-0.461030,-0.643801,-0.498503,-0.407490,-4.222071,-0.510309,-14.916203
1790541968.4609,0.020979,-0.005974,-0.453196,0.016014,-0.005224,-0.453196,0.333584,-1.027869,0.120662,-1.845736,-3.224448,-19.612357
1790541968.4749,0.020345,-0.014223,-0.443846,0.019046,-0.011523,-0.443846,0.650475,-0.051699,0.777513,-0.159304,2.017931,-8.473546
1790541968.4887,0.024225,-0.027550,-0.435102,0.022671,-0.022742,-0.435102,0.906659,-0.355234,0.529828,0.032335,0.196111,-6.144874
1790541968.5025,0.015182,-0.039631,-0.453098,0.017428,-0.034564,-0.453098,0.966152,0.355039,0.463050,3.098574,1.832031,-6.998721
1790541968.5165,0.000282,-0.052949,-0.450786,0.005426,-0.047434,-0.450786,0.990435,1.009461,0.453337,0.722239,2.166651,-13.596623
1790541968.5304,-0.019391,-0.059089,-0.454193,-0.011946,-0.055592,-0.454193,0.573984,1.323924,0.524971,1.105519,3.058971,-9.055714
1790541968.5440,-0.037000,-0.064826,-0.449868,-0.029484,-0.062056,-0.449868,0.476852,1.275359,0.595392,0.108991,1.943571,-9.055714
1790541968.5575,-0.042461,-0.069293,-0.443651,-0.038568,-0.067122,-0.443651,0.393077,0.419388,0.620889,-0.465928,2.464091,-9.987182
1790541968.5713,-0.047209,-0.072668,-0.436989,-0.044617,-0.071004,-0.436989,0.260735,0.329542,0.582036,0.185647,1.534591,-9.327392
1790541968.5852,-0.033102,-0.075993,-0.421444,-0.036557,-0.074497,-0.421444,0.118681,-0.991445,0.701022,-1.079176,-0.584669,-12.936833
1790541968.5991,-0.023013,-0.069046,-0.415497,-0.027076,-0.070681,-0.415497,-0.569738,-0.922239,0.660955,3.290214,0.196111,-11.345574
1790541968.6129,-0.010847,-0.064666,-0.403654,-0.015716,-0.066471,-0.403654,-0.528457,-1.129857,0.811509,3.481854,-2.332128,-9.987182
1790541968.6268,-0.010134,-0.056139,-0.400947,-0.011808,-0.059238,-0.400947,-0.762787,-0.449937,0.844291,4.823333,-1.216729,-7.231588
1790541968.6406,-0.000049,-0.044707,-0.388376,-0.003577,-0.049066,-0.388376,-0.965548,-0.859103,0.555325,1.220503,-0.807749,-8.745224
1790541968.6547,0.002667,-0.028922,-0.387444,0.000794,-0.034966,-0.387444,-1.241159,-0.453580,0.346492,3.941790,-0.844929,-9.637881
1790541968.6707,0.015025,-0.009432,-0.394727,0.010756,-0.017092,-0.394727,-1.215662,-1.008443,0.189868,4.056774,1.274331,-9.754315
1790541968.6857,0.014227,0.009683,-0.410178,0.013185,0.001651,-0.410178,-1.209591,-0.176755,-0.020178,4.171758,2.501271,-9.172147
1790541968.6997,0.000275,0.004302,-0.413587,0.004148,0.003506,-0.413587,0.292303,1.058027,-0.626035,1.948735,-0.101329,-17.827042
1790541968.7143,0.016828,-0.010217,-0.404070,0.013024,-0.006100,-0.404070,1.089994,-0.585921,-1.224607,-8.054869,3.579491,-9.599070
1790541968.7285,0.008521,-0.018313,-0.452646,0.009872,-0.014649,-0.452646,0.932156,0.421817,-0.724381,2.523654,3.653851,-3.777392
1790541968.7421,0.003456,-0.030381,-0.461885,0.005381,-0.025662,-0.461885,0.905445,0.357467,-0.431773,1.258831,1.348691,-9.560259
1790541968.7564,0.021403,-0.041837,-0.467123,0.016596,-0.036984,-0.467123,0.860521,-1.037582,-0.691599,-3.685479,2.835891,-13.945924
1790541968.7700,0.030145,-0.057288,-0.479150,0.026080,-0.051197,-0.479150,1.147059,-0.485148,-1.013347,-1.385800,1.460231,-13.014455
1790541968.7835,0.040756,-0.058933,-0.503497,0.036353,-0.056613,-0.503497,0.357867,-0.720691,-0.929571,0.032335,2.947431,-5.679140
1790541968.7975,0.047298,-0.059580,-0.518963,0.044015,-0.058689,-0.518963,0.091969,-0.457222,-0.828797,0.645583,1.497411,-7.774944
1790541968.8114,0.055579,-0.066000,-0.529671,0.052109,-0.063807,-0.529671,0.440428,-0.531285,-0.823940,-0.312616,0.865351,-10.414105
1790541968.8253,0.046733,-0.067947,-0.546528,0.048346,-0.066705,-0.546528,0.253450,0.742350,-0.644247,-1.654096,4.285911,-14.023546
1790541968.8391,0.026615,-0.059550,-0.560302,0.033134,-0.061696,-0.560302,-0.510245,1.571609,-0.477910,-1.615768,3.579491,-13.480189
1790541968.8530,0.025817,-0.042383,-0.543736,0.028012,-0.048177,-0.543736,-1.295795,0.437600,-0.507049,-7.671589,0.233291,-11.850119
1790541968.8671,0.019089,-0.029044,-0.536089,0.021766,-0.034783,-0.536089,-1.108817,0.678001,-0.405061,-1.462456,-0.844929,-5.756762
1790541968.8811,0.008815,-0.009924,-0.545556,0.012700,-0.017382,-0.545556,-1.286082,0.864978,-0.381993,-0.427600,1.051251,-3.816203
1790541968.8949,0.003501,0.000557,-0.536090,0.006261,-0.004825,-0.536090,-0.933981,0.578441,-0.213227,-1.347472,-0.844929,-5.368651
1790541968.9089,0.003549,0.002870,-0.530036,0.004362,0.000562,-0.530036,-0.311126,0.015079,-0.048104,0.032335,-1.885968,-21.203616
1790541968.9229,0.013593,-0.007559,-0.516779,0.010824,-0.005123,-0.516779,0.652903,-0.826321,0.605105,0.377287,0.047391,-16.817952
1790541968.9372,0.012555,-0.012173,-0.507232,0.012036,-0.010058,-0.507232,0.400362,-0.247176,1.067693,3.673494,3.356411,-11.500819
1790541968.9511,0.019140,-0.021280,-0.484285,0.017008,-0.017913,-0.484285,0.582483,-0.401372,1.011842,-2.190688,0.158931,-6.106063
1790541968.9652,0.012175,-0.035153,-0.474825,0.013625,-0.029981,-0.474825,0.978293,0.392677,0.738660,0.262303,0.753811,-7.076343
1790541968.9790,-0.007776,-0.047354,-0.470270,-0.001356,-0.042142,-0.470270,0.921228,1.254718,0.748374,2.063719,1.646131,-9.016902
1790541968.9928,-0.027834,-0.056549,-0.461039,-0.019890,-0.052227,-0.461039,0.701469,1.391916,0.958420,0.147319,1.869211,-9.288581
1790541969.0063,-0.040734,-0.063222,-0.450124,-0.034481,-0.059923,-0.450124,0.542416,0.965752,1.013056,-0.887536,2.278191,-8.978091
1790541969.0199,-0.042765,-0.068714,-0.435938,-0.040280,-0.066077,-0.435938,0.391863,0.172918,1.051909,-1.424128,2.092291,-12.005364
1790541969.0338,-0.032946,-0.074304,-0.415291,-0.035146,-0.071836,-0.415291,0.181816,-0.689123,0.955992,-1.462456,-2.666748,-13.945924
1790541969.0476,-0.027560,-0.074885,-0.401453,-0.029836,-0.073970,-0.401453,-0.056156,-0.537356,0.970562,2.255358,-0.026969,-13.247322
1790541969.0615,-0.021338,-0.073644,-0.386536,-0.023887,-0.073742,-0.386536,-0.212780,-0.662412,1.050695,3.136902,-0.584669,-11.617252
1790541969.0756,-0.014597,-0.073917,-0.369765,-0.017384,-0.073864,-0.369765,-0.167857,-0.770471,1.074978,3.903462,-1.774428,-9.482637
1790541969.0896,-0.012339,-0.065716,-0.361101,-0.013853,-0.068161,-0.361101,-0.669298,-0.429297,0.815151,3.175230,-0.138509,-8.124245
1790541969.1035,-0.010475,-0.051912,-0.350498,-0.011488,-0.056787,-0.350498,-1.139171,-0.396515,0.658527,3.175230,-1.030829,-8.124245
1790541969.1174,-0.006586,-0.034068,-0.343354,-0.008057,-0.040884,-0.343354,-1.398997,-0.463293,0.384131,2.906934,-0.659029,-10.841028
1790541969.1315,0.003402,-0.012405,-0.341469,-0.000035,-0.020949,-0.341469,-1.571405,-0.914954,0.341636,2.868606,0.828171,-9.909560
1790541969.1453,0.003010,0.009293,-0.342852,0.002097,0.000220,-0.342852,-1.641825,-0.374661,0.302783,4.785005,0.084571,-6.532986
1790541969.1592,-0.006288,0.016180,-0.333149,-0.003773,0.011392,-0.333149,-0.679011,0.476453,0.120662,6.624748,-2.480848,-18.409210
1790541969.1733,-0.004329,0.001567,-0.313879,-0.004162,0.004515,-0.313879,0.941869,0.270049,-0.572613,-6.291782,-0.138509,-11.694875
1790541969.1879,-0.006077,0.004361,-0.340119,-0.005502,0.004407,-0.340119,0.125965,0.455813,-0.528904,-4.682006,6.665430,-7.348021
1790541969.2021,-0.013187,-0.010394,-0.336468,-0.010882,-0.005954,-0.336468,0.955224,0.562657,-0.168304,-0.120976,-0.101329,-11.345574
1790541969.2160,0.001410,-0.016015,-0.337382,-0.002277,-0.012997,-0.337382,0.476852,-0.788683,-0.494908,-3.340527,2.501271,-10.025993
1790541969.2297,0.007983,-0.029895,-0.332206,0.004905,-0.024826,-0.332206,0.940655,-0.204681,-0.493694,-2.842263,-0.101329,-8.279490
1790541969.2433,0.018667,-0.032682,-0.358678,0.014539,-0.030325,-0.358678,0.514491,-0.704907,-0.675815,-0.120976,4.062831,-5.756762
1790541969.2572,0.023533,-0.033377,-0.377667,0.020834,-0.032461,-0.377667,0.187887,-0.460865,-0.548330,1.527127,1.794851,-5.019350
1790541969.2712,0.034019,-0.039056,-0.389603,0.030064,-0.037077,-0.389603,0.475638,-0.636915,-0.745021,-0.657568,2.017931,-8.706413
1790541969.2851,0.051280,-0.044832,-0.404303,0.044915,-0.042506,-0.404303,0.516919,-1.083720,-0.899217,-1.462456,3.021791,-9.831937
1790541969.2990,0.022051,-0.037445,-0.431038,0.028910,-0.038963,-0.431038,-0.226136,2.054838,-0.839724,2.370342,5.847470,-7.270399
1790541969.3129,0.005299,-0.021332,-0.441799,0.012382,-0.026621,-0.441799,-1.133100,1.277787,-0.556829,0.262303,2.241011,-14.101168
1790541969.3268,-0.000068,-0.003314,-0.444220,0.003667,-0.010306,-0.444220,-1.299437,0.722924,-0.483981,-4.107087,1.014071,-8.861658
1790541969.3406,-0.009484,0.005183,-0.438196,-0.005538,0.000536,-0.438196,-0.805282,0.830983,-0.180445,-1.194160,-1.328269,-7.969000
1790541969.3544,-0.009606,0.013659,-0.439638,-0.008386,0.009723,-0.439638,-0.646229,0.285833,-0.389278,-3.953775,0.976891,-11.811308
1790541969.3682,-0.007101,0.011228,-0.435617,-0.007486,0.010776,-0.435617,0.122323,-0.141545,0.132803,-1.002520,1.088431,-13.402567
1790541969.3821,-0.005791,0.011650,-0.426074,-0.006300,0.011388,-0.426074,-0.093794,-0.118477,0.540755,-0.849208,0.902531,-10.841028
1790541969.3959,-0.005861,0.002168,-0.411582,-0.005993,0.004934,-0.411582,0.593410,-0.238677,1.021555,1.527127,0.382011,-9.443825
1790541969.4099,-0.006894,-0.008866,-0.401517,-0.006624,-0.004726,-0.401517,0.860521,-0.109978,0.919568,0.492271,1.311511,-4.281937
1790541969.4238,-0.014188,-0.021849,-0.388611,-0.011919,-0.016712,-0.388611,0.923657,0.385392,1.028840,0.300631,1.162791,-6.959909
1790541969.4381,-0.025655,-0.038084,-0.372432,-0.021534,-0.031673,-0.372432,1.052356,0.682857,1.141756,0.300631,0.530731,-11.539630
1790541969.4522,-0.047824,-0.051559,-0.355977,-0.039937,-0.045593,-0.355977,0.900588,1.428340,1.355445,0.760567,1.125611,-8.978091
1790541969.4659,-0.062965,-0.059546,-0.339693,-0.056056,-0.055360,-0.339693,0.552129,1.111449,1.260741,-1.002520,1.757671,-9.521448
1790541969.4793,-0.072312,-0.068129,-0.323221,-0.067436,-0.064298,-0.323221,0.522990,0.697427,1.169681,-0.657568,0.567911,-9.288581
1790541969.4932,-0.068006,-0.068254,-0.309059,-0.067835,-0.067067,-0.309059,0.059188,-0.296955,1.027626,-0.849208,3.653851,-10.841028
1790541969.5070,-0.057429,-0.072627,-0.291842,-0.060551,-0.070959,-0.291842,0.140535,-0.850604,1.130828,0.952207,-0.621849,-13.868301
1790541969.5208,-0.045339,-0.071853,-0.274356,-0.049903,-0.071585,-0.274356,-0.303841,-1.109217,1.175752,4.018446,-2.555208,-13.053266
1790541969.5348,-0.047804,-0.070161,-0.257336,-0.048434,-0.070588,-0.257336,-0.362120,-0.177970,1.323877,6.931372,-2.703928,-12.703965
1790541969.5486,-0.045433,-0.060339,-0.241288,-0.046333,-0.063413,-0.241288,-0.897556,-0.510644,1.282596,4.401726,-0.882109,-9.055714
1790541969.5625,-0.034204,-0.041705,-0.230984,-0.037843,-0.048218,-0.230984,-1.437850,-1.066722,0.867359,2.408670,0.382011,-7.153965
1790541969.5763,-0.035009,-0.019607,-0.223792,-0.035859,-0.028190,-0.223792,-1.738957,-0.324881,0.612390,2.791950,-0.361589,-4.204315
1790541969.5902,-0.029429,0.006491,-0.218094,-0.031358,-0.003913,-0.218094,-1.970858,-0.692766,0.504331,2.332014,0.270471,-5.446273
1790541969.6040,-0.013185,0.032269,-0.206987,-0.018637,0.021414,-0.206987,-1.982999,-1.396968,0.432697,2.523654,0.233291,-9.754315
1790541969.6179,-0.003994,0.052246,-0.200429,-0.008387,0.042996,-0.200429,-1.527696,-0.844534,0.243290,2.600310,0.753811,-11.151518
1790541969.6318,-0.024104,0.028377,-0.182142,-0.019389,0.032763,-0.182142,1.484590,1.422270,0.316139,0.990535,-4.079588,-21.281238
1790541969.6456,-0.033635,0.025411,-0.225019,-0.029361,0.027616,-0.225019,0.674758,0.707140,-0.385635,1.067191,7.000050,-5.485084
1790541969.6596,-0.051892,0.019438,-0.242437,-0.045133,0.021892,-0.242437,0.564271,1.194011,-0.351639,4.248414,3.319231,-9.599070
1790541969.6735,-0.057617,0.015270,-0.244562,-0.053872,0.017257,-0.244562,0.310515,0.606366,-0.525262,-1.040848,1.423051,-12.432287
1790541969.6878,-0.044196,-0.003004,-0.235908,-0.047099,0.003074,-0.235908,1.168913,-0.843319,-0.366209,-0.044320,-0.361589,-7.891378
1790541969.7016,-0.035357,-0.015484,-0.249344,-0.038879,-0.009917,-0.249344,1.138560,-0.443867,-0.502193,-1.270816,3.467951,-6.765853
1790541969.7157,-0.033855,-0.014672,-0.267277,-0.035363,-0.013246,-0.267277,0.220669,-0.011632,-0.462126,-0.082648,5.401311,-8.745224
1790541969.7296,-0.026972,-0.016027,-0.272376,-0.029489,-0.015193,-0.272376,0.173317,-0.275101,-0.492480,-2.037376,2.092291,-9.249770
1790541969.7436,-0.015893,-0.018123,-0.277694,-0.019972,-0.017244,-0.277694,0.253450,-0.522786,-0.578684,-3.148887,2.798711,-9.948371
1790541969.7575,-0.016398,-0.018907,-0.287838,-0.017470,-0.018408,-0.287838,0.125965,0.194772,-0.626035,-0.849208,1.980751,-9.560259
1790541969.7714,-0.006340,-0.017339,-0.292603,-0.009679,-0.017660,-0.292603,0.054331,-0.573780,-0.226583,-1.769080,3.765391,-8.784035
1790541969.7852,-0.018861,-0.014534,-0.298727,-0.016106,-0.015471,-0.298727,-0.150859,0.976680,-0.209585,-0.197632,2.612811,-12.859210
1790541969.7992,-0.022930,-0.009129,-0.297245,-0.020883,-0.011032,-0.297245,-0.432540,0.465526,-0.108811,-2.612295,0.642271,-12.005364
1790541969.8131,-0.026045,0.004352,-0.293553,-0.024496,-0.000263,-0.293553,-1.057823,0.436386,-0.151306,-2.190688,-0.101329,-8.124245
1790541969.8269,-0.027899,0.016575,-0.292703,-0.026878,0.011524,-0.292703,-0.814995,0.336827,-0.040819,-1.194160,1.162791,-4.126693
1790541969.8409,-0.018245,0.009732,-0.284542,-0.020835,0.010269,-0.284542,0.298374,-0.613847,0.097593,-1.769080,-2.034688,-13.635434
1790541969.8551,-0.025680,0.000696,-0.279833,-0.024227,0.003568,-0.279833,0.570341,0.330756,0.296713,3.175230,0.493551,-10.025993
1790541969.8690,-0.029158,-0.007698,-0.272855,-0.027678,-0.004318,-0.272855,0.553343,0.232410,0.466693,-0.389272,1.274331,-13.014455
1790541969.8830,-0.031361,-0.018103,-0.263713,-0.030256,-0.013967,-0.263713,0.688113,0.244552,0.463050,-1.807408,0.679451,-9.210958
1790541969.8970,-0.043674,-0.031727,-0.257329,-0.039649,-0.026399,-0.257329,0.893303,0.765419,0.557753,1.450471,0.233291,-9.405014
1790541969.9109,-0.053945,-0.047774,-0.247667,-0.049656,-0.041361,-0.247667,1.082709,0.676786,0.738660,0.453943,0.605091,-9.327392
1790541969.9244,-0.069259,-0.057877,-0.237014,-0.063378,-0.052922,-0.237014,0.815598,1.066526,0.895285,0.530599,2.203831,-7.037532
1790541969.9383,-0.084207,-0.064986,-0.223835,-0.077958,-0.061367,-0.223835,0.542416,1.116306,0.930495,-0.734224,2.092291,-7.425644
1790541969.9523,-0.089578,-0.080382,-0.209722,-0.086092,-0.074678,-0.209722,1.066926,0.453384,0.934137,-1.117504,1.608951,-8.745224
1790541969.9663,-0.084109,-0.085665,-0.196592,-0.084704,-0.082369,-0.196592,0.264378,-0.426869,0.908640,0.952207,0.679451,-15.071448
1790541969.9801,-0.072019,-0.079724,-0.185840,-0.075824,-0.080518,-0.185840,-0.550312,-0.941665,0.727733,1.680439,0.010211,-13.790679
1790541969.9941,-0.061120,-0.075366,-0.172316,-0.065531,-0.076912,-0.172316,-0.573380,-0.955020,0.883143,3.558510,-3.150088,-13.363756
1790541970.0080,-0.059030,-0.066509,-0.158907,-0.060981,-0.069630,-0.158907,-0.814995,-0.475434,0.920782,4.976645,-1.030829,-8.861658
1790541970.0220,-0.052248,-0.052000,-0.147617,-0.054868,-0.057289,-0.147617,-1.215662,-0.754687,0.735018,3.443526,-0.882109,-7.930189
1790541970.0358,-0.048533,-0.033300,-0.141901,-0.050433,-0.040497,-0.141901,-1.473060,-0.469364,0.382917,2.523654,-0.324409,-7.348021
1790541970.0498,-0.048116,-0.008953,-0.140697,-0.048811,-0.018416,-0.140697,-1.781452,-0.271458,0.266359,2.638638,0.642271,-5.950818
1790541970.0637,-0.039188,0.019683,-0.140281,-0.042075,0.008253,-0.140281,-2.094700,-0.872459,0.081810,2.945262,0.939711,-6.804665
1790541970.0776,-0.027045,0.045417,-0.133304,-0.031554,0.034268,-0.133304,-1.975715,-0.958663,0.022317,2.561982,0.047391,-15.886483
1790541970.0915,-0.041164,0.026913,-0.127601,-0.038281,0.029120,-0.127601,1.286685,1.121162,0.171656,-2.343999,1.906391,-17.128441
1790541970.1055,-0.028292,-0.002719,-0.125163,-0.031289,0.006833,-0.125163,2.198506,-0.742546,-0.190158,-4.068759,4.657711,-17.710609
1790541970.1194,-0.046104,-0.009896,-0.150942,-0.041660,-0.004877,-0.150942,0.883590,1.034958,-0.513120,4.899989,5.215411,-4.553616
1790541970.1334,-0.047345,-0.009720,-0.158140,-0.045639,-0.008267,-0.158140,0.104111,0.357467,-0.566542,-0.964192,1.014071,-3.699769
1790541970.1470,-0.029487,-0.031063,-0.143067,-0.034332,-0.024225,-0.143067,1.303683,-1.094647,-0.392920,-3.187215,-4.600108,-12.238231
1790541970.1606,-0.012364,-0.048794,-0.141898,-0.018954,-0.041423,-0.141898,1.264831,-1.086148,-0.381993,-1.040848,0.084571,-5.368651
1790541970.1748,-0.007439,-0.050038,-0.157863,-0.010893,-0.047453,-0.157863,0.345725,-0.452366,-0.436629,2.063719,3.728211,-6.183686
1790541970.1895,0.003825,-0.052789,-0.169683,-0.000591,-0.051188,-0.169683,0.306873,-0.618703,-0.743807,-1.002520,2.203831,-7.774944
1790541970.2036,0.015565,-0.060270,-0.182947,0.010718,-0.057546,-0.182947,0.595838,-0.683053,-0.953854,-1.347472,2.315371,-12.820399
1790541970.2175,-0.002734,-0.064910,-0.196798,0.001302,-0.062701,-0.196798,0.433143,1.351849,-0.742593,1.220503,3.616671,-15.575993
1790541970.2314,-0.028432,-0.049694,-0.203377,-0.019512,-0.053596,-0.203377,-1.096676,1.856933,-0.345569,1.718767,1.088431,-16.973196
1790541970.2455,-0.031832,-0.032070,-0.201674,-0.028136,-0.038528,-0.201674,-1.440278,0.515306,-0.471839,-3.532167,-2.815468,-10.220049
1790541970.2593,-0.036620,-0.022130,-0.197239,-0.034075,-0.027050,-0.197239,-0.981332,0.627007,-0.196229,-3.302199,-3.187268,-7.813756
1790541970.2731,-0.039145,-0.009397,-0.196103,-0.037624,-0.014693,-0.196103,-1.144027,0.427887,-0.179231,-2.497311,-2.146228,-7.697322
1790541970.2870,-0.043190,0.013001,-0.191292,-0.041521,0.004693,-0.191292,-1.544694,0.617294,-0.118524,-3.148887,1.646131,-6.300119
1790541970.3009,-0.031035,0.020300,-0.191388,-0.034181,0.015618,-0.191388,-0.699651,-0.808109,0.018674,-1.807408,-2.071868,-20.233336
1790541970.3146,-0.024552,0.013597,-0.188331,-0.027441,0.014204,-0.188331,0.345725,-0.646628,0.551682,3.060246,-0.287229,-18.525644
1790541970.3285,-0.028557,0.008493,-0.168791,-0.028222,0.010206,-0.168791,0.541202,0.334398,0.805438,-1.232488,2.612811,-4.670049
1790541970.3425,-0.023499,-0.000231,-0.156792,-0.024916,0.002900,-0.156792,0.629834,-0.373446,0.577179,-0.657568,1.571771,-7.386832
1790541970.3565,-0.028774,-0.010634,-0.154749,-0.027617,-0.006574,-0.154749,0.754891,0.164419,0.493404,2.408670,1.608951,-7.969000
1790541970.3707,-0.042408,-0.015425,-0.147597,-0.037971,-0.012769,-0.147597,0.414931,0.833411,0.588107,1.373815,2.761531,-8.512357
1790541970.3842,-0.047879,-0.018170,-0.136498,-0.044906,-0.016550,-0.136498,0.127180,0.465526,0.766586,-2.190688,0.976891,-11.539630
1790541970.3979,-0.047928,-0.020702,-0.126249,-0.047021,-0.019457,-0.126249,0.099254,0.022364,0.702236,-1.155832,0.716631,-10.491728
1790541970.4119,-0.051726,-0.022420,-0.117615,-0.050314,-0.021531,-0.117615,0.032476,0.236053,0.688881,-0.082648,0.456371,-8.201867
1790541970.4259,-0.056107,-0.024385,-0.106953,-0.054369,-0.023529,-0.106953,0.067687,0.236053,0.796939,0.377287,0.902531,-8.939280
1790541970.4406,-0.056521,-0.021795,-0.097562,-0.055875,-0.022315,-0.097562,-0.196996,-0.055341,0.586893,0.875551,1.571771,-9.133336
1790541970.4546,-0.042432,-0.016519,-0.081817,-0.046465,-0.018258,-0.081817,-0.301413,-0.923453,0.573537,-2.267343,3.542311,-9.987182
1790541970.4687,-0.028947,-0.009398,-0.071953,-0.034202,-0.012056,-0.071953,-0.527243,-1.088576,0.566252,2.063719,2.761531,-16.002917
1790541970.4829,-0.020055,0.000792,-0.073953,-0.024299,-0.003062,-0.073953,-0.850205,-0.850604,0.415699,3.290214,-0.361589,-10.646972
1790541970.4971,-0.014955,0.011497,-0.074659,-0.017758,0.007129,-0.074659,-0.743360,-0.554354,0.155872,2.561982,1.534591,-7.697322
1790541970.5110,-0.019785,0.013158,-0.085344,-0.019177,0.011349,-0.085344,-0.232206,0.176560,-0.118524,3.213558,-0.361589,-8.551168
1790541970.5250,-0.022327,0.010943,-0.092930,-0.021382,0.011065,-0.092930,0.254664,0.358681,-0.681886,-0.734224,3.244871,-11.850119
1790541970.5391,-0.016909,0.006528,-0.107917,-0.018251,0.007889,-0.107917,0.349368,-0.094194,-1.223393,-1.577440,1.608951,-12.277042
1790541970.5529,-0.017870,0.003078,-0.123725,-0.017984,0.004522,-0.123725,0.311729,0.341683,-1.245248,-0.925864,1.832031,-10.724595
1790541970.5667,-0.018888,-0.001270,-0.135902,-0.018617,0.000468,-0.135902,0.311729,0.306473,-0.901646,-1.117504,0.790991,-9.715504
1790541970.5806,-0.010790,-0.004983,-0.148238,-0.013138,-0.003348,-0.148238,0.265592,-0.213180,-1.115335,-2.842263,0.605091,-8.667602
1790541970.5944,0.000345,-0.015030,-0.163352,-0.003700,-0.011525,-0.163352,0.718467,-0.570137,-1.201539,-0.925864,0.642271,-9.210958
1790541970.6081,0.009273,-0.019107,-0.179404,0.005381,-0.016833,-0.179404,0.388220,-0.505788,-1.377589,0.530599,2.055111,-8.395923
1790541970.6217,0.015223,-0.017601,-0.195156,0.012270,-0.017371,-0.195156,-0.029445,-0.321238,-1.293813,0.722239,2.017931,-8.085434
1790541970.6356,0.016390,-0.018571,-0.213949,0.015154,-0.018211,-0.213949,0.093184,0.053932,-1.331452,0.645583,1.534591,-9.676693
1790541970.6497,0.022920,-0.020012,-0.228600,0.020590,-0.019472,-0.228600,0.122323,-0.148830,-1.288957,-2.573967,1.571771,-10.025993
1790541970.6635,0.021270,-0.020037,-0.238190,0.021066,-0.019868,-0.238190,0.123537,0.212984,-0.924714,0.530599,3.765391,-11.035084
1790541970.6776,-0.001352,-0.012633,-0.261602,0.005373,-0.014803,-0.261602,-0.631659,1.708807,-0.991492,1.182175,-0.621849,-11.035084
1790541970.6921,-0.006446,0.002438,-0.277950,-0.002900,-0.002735,-0.277950,-1.110031,0.599081,-0.908930,-1.922392,-0.287229,-11.384385
1790541970.7061,-0.006854,0.015375,-0.294159,-0.005668,0.009942,-0.294159,-1.084534,0.385392,-0.805728,-3.723807,-1.662888,-9.870749
1790541970.7201,-0.008246,0.024412,-0.305679,-0.007472,0.020071,-0.305679,-0.756716,0.352611,-0.628464,-2.075704,-0.473129,-9.754315
1790541970.7342,-0.001554,0.015716,-0.320326,-0.003330,0.017022,-0.320326,0.521776,-0.482719,-0.466983,2.140375,-0.064149,-14.372847
1790541970.7498,-0.007961,0.001935,-0.315575,-0.006571,0.006461,-0.315575,0.843523,0.135279,0.857646,3.826806,1.608951,-12.936833
1790541970.7649,-0.012675,-0.008564,-0.296943,-0.010844,-0.004057,-0.296943,0.667473,0.195986,1.115044,-0.350944,1.274331,-8.551168
1790541970.7793,-0.005540,-0.021774,-0.260739,-0.007131,-0.016459,-0.260739,0.974651,-0.430511,1.283810,-2.880591,2.092291,-6.921098
1790541970.7941,-0.021439,-0.030059,-0.264401,-0.017147,-0.025979,-0.264401,0.450141,0.748421,0.892856,2.446998,-0.138509,-5.407462
1790541970.8084,-0.036910,-0.042362,-0.256854,-0.030981,-0.037447,-0.256854,0.737893,0.975465,0.924424,0.722239,-0.287229,-10.608161
1790541970.8222,-0.051582,-0.053736,-0.241275,-0.045402,-0.048849,-0.241275,0.750034,0.998534,1.128400,0.070663,0.828171,-10.258860
1790541970.8357,-0.067043,-0.059663,-0.222535,-0.060551,-0.056419,-0.222535,0.404004,1.098094,1.138113,0.032335,1.832031,-10.996273
1790541970.8494,-0.072610,-0.066818,-0.201374,-0.068993,-0.063699,-0.201374,0.487780,0.429101,1.040982,-0.810880,1.683311,-9.793126
1790541970.8631,-0.067720,-0.070897,-0.183192,-0.068102,-0.068738,-0.183192,0.263163,-0.316382,0.850361,-0.887536,1.460231,-10.064805
1790541970.8769,-0.061361,-0.074075,-0.178160,-0.063384,-0.072474,-0.178160,0.062830,-0.510644,0.737446,0.837223,-1.068009,-13.092077
1790541970.8906,-0.051995,-0.075109,-0.176409,-0.055412,-0.074318,-0.176409,-0.068297,-0.825107,0.676739,2.983590,-0.807749,-13.635434
1790541970.9044,-0.041818,-0.072345,-0.177867,-0.045896,-0.072937,-0.177867,-0.356049,-0.947736,0.657313,3.788478,-1.105189,-11.888930
1790541970.9182,-0.039888,-0.067588,-0.181495,-0.041691,-0.069192,-0.181495,-0.460465,-0.428083,0.558967,4.401726,-0.473129,-9.016902
1790541970.9322,-0.032503,-0.055737,-0.183211,-0.035259,-0.059773,-0.183211,-0.947336,-0.713406,0.396272,1.987063,-0.250049,-6.455364
1790541970.9465,-0.029635,-0.038943,-0.188059,-0.031322,-0.045192,-0.188059,-1.294581,-0.415941,0.219008,2.676966,-0.547489,-6.921098
1790541970.9605,-0.019124,-0.017237,-0.193397,-0.022784,-0.025624,-0.193397,-1.645468,-0.851818,-0.088170,1.757095,-0.212869,-8.279490
1790541970.9745,-0.008707,0.003472,-0.198024,-0.012930,-0.005257,-0.198024,-1.587189,-0.904027,-0.014108,2.638638,-0.101329,-9.560259
1790541970.9883,-0.006668,0.015254,-0.205560,-0.008547,0.009101,-0.205560,-0.986189,-0.284814,-0.249651,3.175230,-0.733389,-9.987182
1790541971.0022,-0.011544,-0.001885,-0.175611,-0.010645,0.001411,-0.175611,1.144631,0.782417,-0.562900,-7.364965,-0.919289,-13.751868
1790541971.0162,0.010595,-0.003343,-0.142006,0.004223,-0.001917,-0.142006,0.542416,-1.173566,-0.908930,-5.256926,8.970590,-6.028441
1790541971.0300,0.001749,-0.004117,-0.152146,0.002492,-0.003457,-0.152146,0.376079,0.636720,-0.538617,1.527127,6.144910,-7.503266
1790541971.0439,0.005482,-0.014481,-0.157024,0.004585,-0.011174,-0.157024,0.768247,0.168061,-0.810585,-3.608823,0.828171,-6.028441
1790541971.0578,0.025127,-0.029094,-0.161435,0.018965,-0.023718,-0.161435,1.029287,-1.169924,-0.700098,-3.417183,0.828171,-11.966553
1790541971.0713,0.033812,-0.043480,-0.172755,0.029358,-0.037551,-0.172755,1.031715,-0.487576,-0.936856,-1.040848,0.642271,-10.685784
1790541971.0848,0.043138,-0.048888,-0.180381,0.039004,-0.045487,-0.180381,0.508420,-0.662412,-0.794801,0.568927,2.538451,-8.318301
1790541971.0987,0.052277,-0.052646,-0.188267,0.048295,-0.050499,-0.188267,0.299588,-0.577422,-0.781446,-0.389272,1.720491,-9.793126
1790541971.1125,0.061788,-0.058014,-0.193546,0.057740,-0.055759,-0.193546,0.416145,-0.543426,-0.730452,-1.424128,1.460231,-8.357112
1790541971.1266,0.052300,-0.066943,-0.211853,0.053932,-0.063588,-0.211853,0.478067,0.680429,-0.545902,0.568927,-1.923148,-13.790679
