t,imu_roll,imu_pitch,imu_yaw,lpf_roll,lpf_pitch,lpf_yaw,gyro_x,gyro_y,gyro_z,acc_x,acc_y,acc_z
1790538402.8505,0.030602,-0.024663,0.000103,0.021422,-0.017264,0.000103,0.019953,0.016950,0.002759,0.147319,1.274331,-9.909560
1790538402.8660,0.027266,-0.028315,-0.001670,0.025513,-0.025000,-0.001670,-0.022542,-0.008547,-0.002098,0.262303,1.199971,-10.064805
1790538402.8797,0.023861,-0.027777,-0.000914,0.024356,-0.026944,-0.000914,-0.014043,-0.010975,-0.000884,0.338959,1.274331,-10.220049
1790538402.8934,0.020863,-0.029002,-0.001057,0.021911,-0.028384,-0.001057,0.017524,0.010879,-0.009383,0.377287,1.199971,-10.025993
1790538402.9075,0.024031,-0.027711,-0.001245,0.023395,-0.027913,-0.001245,-0.000688,0.035162,-0.009383,0.108991,1.311511,-10.142427
1790538402.9215,0.026253,-0.024762,-0.001076,0.025396,-0.025707,-0.001076,-0.069894,0.126223,0.005187,0.032335,1.423051,-10.375294
1790538402.9356,0.032519,-0.022127,-0.001993,0.030382,-0.023201,-0.001993,-0.114817,0.087370,0.047682,-0.312616,1.460231,-10.724595
1790538402.9500,0.035148,-0.018084,-0.000059,0.033718,-0.019619,-0.000059,-0.156098,0.066730,0.081678,-0.120976,1.460231,-9.948371
1790538402.9640,0.035670,-0.018635,-0.002894,0.035085,-0.018930,-0.002894,-0.148813,0.072801,0.143599,-0.005993,1.088431,-9.676693
1790538402.9779,0.036771,-0.017571,-0.002771,0.036265,-0.017979,-0.002771,-0.170668,0.091013,0.222518,-0.120976,1.199971,-9.754315
1790538402.9918,0.036370,-0.017224,-0.002316,0.036339,-0.017450,-0.002316,-0.198593,0.049732,0.363359,0.032335,1.051251,-9.443825
1790538403.0056,0.031678,-0.018760,-0.004437,0.033076,-0.018367,-0.004437,-0.210734,-0.034044,0.454419,0.607255,0.790991,-9.288581
1790538403.0197,0.026883,-0.023645,-0.006470,0.028741,-0.022062,-0.006470,-0.043183,-0.051042,0.530910,0.683911,0.567911,-8.939280
1790538403.0350,0.033186,-0.014160,0.019697,0.031852,-0.016531,0.019697,-0.099033,0.036376,0.476274,-0.734224,2.055111,-8.357112
1790538403.0493,0.038813,-0.017240,0.019315,0.036725,-0.017027,0.019315,-0.016472,-0.168814,0.351217,-0.504256,1.014071,-11.306763
1790538403.0639,0.036408,-0.021182,0.015545,0.036503,-0.019936,0.015545,0.060019,-0.000048,0.295367,0.492271,1.051251,-12.238231
1790538403.0787,0.037040,-0.021682,0.021569,0.036879,-0.021158,0.021569,0.091587,-0.163957,0.323292,0.338959,1.571771,-10.841028
1790538403.0931,0.031005,-0.020031,0.027017,0.032767,-0.020369,0.027017,0.050306,0.035162,0.272298,1.067191,1.757671,-10.103616
1790538403.1067,0.031663,-0.017167,0.033886,0.031994,-0.018127,0.033886,0.011454,0.002380,0.188522,-0.005993,1.757671,-9.210958
1790538403.1204,0.029224,-0.014258,0.040843,0.030055,-0.015419,0.040843,0.021167,-0.025545,0.139957,0.645583,1.869211,-9.327392
1790538403.1344,0.026548,-0.012271,0.046928,0.027600,-0.013216,0.046928,0.047878,-0.021903,0.109603,0.760567,1.869211,-9.599070
1790538403.1484,0.026503,-0.006515,0.054279,0.026832,-0.008526,0.054279,-0.072322,-0.206452,0.136314,0.760567,2.389731,-9.560259
1790538403.1623,0.028076,0.000833,0.062517,0.027703,-0.001975,0.062517,-0.153670,-0.350935,0.183666,0.798895,2.538451,-9.249770
1790538403.1761,0.025484,0.006283,0.077386,0.026150,0.003806,0.077386,-0.143957,-0.207666,0.170310,1.412143,2.426911,-9.948371
1790538403.1906,0.022731,-0.001158,0.050133,0.023757,0.000331,0.050133,0.837070,0.502607,-0.062805,-0.849208,3.170511,-12.005364
1790538403.2047,0.024722,0.004527,0.004873,0.024433,0.003268,0.004873,0.764222,0.415189,-0.306848,-1.309144,5.215411,-8.007811
1790538403.2188,0.041393,0.009057,-0.046412,0.036305,0.007320,-0.046412,0.237284,-0.426212,-0.614026,-1.960720,3.356411,-8.589979
1790538403.2328,0.041094,0.006148,-0.032613,0.039657,0.006500,-0.032613,0.208145,-0.063183,-0.977054,0.913879,1.683311,-11.112707
1790538403.2467,0.044906,0.008951,-0.019860,0.043331,0.008215,-0.019860,0.055163,-0.267159,-1.190743,0.530599,2.426911,-9.405014
1790538403.2607,0.038164,0.016455,-0.012410,0.039714,0.013983,-0.012410,-0.211949,0.543888,-1.332798,0.492271,2.501271,-8.357112
1790538403.2748,0.044180,0.010077,-0.085852,0.042840,0.011249,-0.085852,0.143795,0.178431,-1.261163,-1.040848,0.307651,-8.357112
1790538403.2891,0.041972,0.001643,-0.119387,0.042232,0.004525,-0.119387,0.348985,0.420045,-1.370436,-0.044320,0.493551,-10.452916
1790538403.3032,0.038956,-0.001526,-0.134898,0.039939,0.000289,-0.134898,0.250640,0.388478,-1.522204,0.377287,1.757671,-11.345574
1790538403.3173,0.034592,0.003965,-0.118109,0.036196,0.002862,-0.118109,-0.163383,0.271920,-1.472424,1.105519,2.389731,-9.599070
1790538403.3310,0.025424,0.011399,-0.092890,0.028655,0.008838,-0.092890,-0.417139,0.498964,-1.335226,1.565455,1.832031,-8.784035
1790538403.3447,0.031059,0.008099,-0.139956,0.030338,0.008320,-0.139956,-0.082035,-0.013404,-1.077828,-0.619240,0.010211,-9.016902
1790538403.3586,0.034215,0.003546,-0.149066,0.033052,0.004978,-0.149066,0.180219,-0.163957,-0.805860,0.415615,0.716631,-9.327392
1790538403.3725,0.033548,0.002202,-0.145538,0.033399,0.003035,-0.145538,-0.009187,-0.021903,-0.650450,0.913879,0.902531,-9.521448
1790538403.3865,0.030184,0.010838,-0.137022,0.031148,0.008497,-0.137022,-0.334577,0.180859,-0.641951,0.875551,2.798711,-8.978091
1790538403.4004,0.026087,0.014597,-0.133139,0.027606,0.012767,-0.133139,-0.204664,0.263421,-0.530250,0.875551,2.092291,-10.646972
1790538403.4144,0.026270,0.011567,-0.129275,0.026671,0.011927,-0.129275,0.387838,-0.052256,-0.371197,0.760567,2.649991,-10.336483
1790538403.4284,0.022563,0.004936,-0.089449,0.023795,0.007033,-0.089449,0.652521,-0.231949,0.120530,3.251886,3.133331,-11.423196
1790538403.4427,0.014102,-0.000262,-0.063190,0.017010,0.001927,-0.063190,0.444902,0.258564,0.584333,2.102047,2.612811,-12.199420
1790538403.4578,0.006632,-0.009752,-0.029270,0.009746,-0.006248,-0.029270,0.365983,0.200285,0.960717,1.182175,0.047391,-9.249770
1790538403.4722,0.007676,-0.014842,-0.080179,0.008297,-0.012264,-0.080179,0.254282,0.252494,1.221757,-1.577440,0.679451,-6.959909
1790538403.4862,0.019429,-0.021075,-0.145876,0.016090,-0.018431,-0.145876,0.121941,-0.295084,1.026280,-2.688951,-0.324409,-7.270399
1790538403.5002,0.017406,-0.026248,-0.131559,0.017011,-0.023903,-0.131559,0.074589,-0.003690,0.847801,0.530599,-0.398769,-9.715504
1790538403.5142,0.016671,-0.030706,-0.134622,0.016773,-0.028665,-0.134622,0.083088,0.193001,0.791951,-1.232488,-0.101329,-10.918651
1790538403.5282,0.011868,-0.038750,-0.120707,0.013340,-0.035724,-0.120707,0.386624,0.190572,1.048135,0.607255,0.158931,-10.569350
1790538403.5422,0.002814,-0.049300,-0.110320,0.005972,-0.045227,-0.110320,0.636737,0.573027,0.976500,0.300631,0.493551,-9.870749
1790538403.5558,-0.004740,-0.052153,-0.101826,-0.001527,-0.050075,-0.101826,0.313775,0.683514,0.811377,-0.734224,1.757671,-9.055714
1790538403.5695,-0.004818,-0.052965,-0.100631,-0.003831,-0.052098,-0.100631,0.091587,0.355696,0.600116,-1.539112,1.014071,-7.037532
1790538403.5831,-0.006346,-0.054795,-0.099232,-0.005591,-0.053986,-0.099232,0.118298,0.209999,0.488415,-0.389272,1.051251,-9.987182
1790538403.5970,-0.005479,-0.056318,-0.089659,-0.005512,-0.055618,-0.089659,0.215429,-0.003690,0.348789,-0.120976,2.092291,-11.500819
1790538403.6110,0.002254,-0.055133,-0.077907,-0.000076,-0.055279,-0.077907,-0.092963,-0.673897,0.371858,1.258831,1.274331,-12.238231
1790538403.6249,0.004018,-0.050351,-0.049363,0.002790,-0.051830,-0.049363,-0.469347,-0.525771,0.314793,3.366870,0.121751,-10.763406
1790538403.6389,0.009853,-0.040187,-0.027247,0.007734,-0.043680,-0.027247,-0.933149,-0.813523,0.305080,2.791950,-0.324409,-9.055714
1790538403.6528,0.012509,-0.027626,-0.003075,0.011076,-0.032442,-0.003075,-1.100701,-0.754030,0.165454,3.481854,-0.212869,-7.386832
1790538403.6668,0.018323,-0.017878,0.007040,0.016149,-0.022247,0.007040,-0.988999,-0.767386,-0.038522,2.561982,-0.770569,-8.434735
1790538403.6807,0.026597,-0.007948,0.008616,0.023463,-0.012237,0.008616,-0.845731,-0.970147,-0.135654,2.906934,0.307651,-8.706413
1790538403.6948,0.022523,-0.008439,0.015224,0.022805,-0.009579,0.015224,-0.248373,0.146863,-0.413692,2.868606,-1.291089,-15.110259
1790538403.7092,0.015331,-0.014757,-0.001433,0.017573,-0.013204,-0.001433,0.512894,0.713868,-0.868995,-0.465928,2.129471,-12.277042
1790538403.7234,0.028214,-0.015118,-0.035170,0.025022,-0.014544,-0.035170,0.217858,-0.452923,-1.463925,-1.999048,2.612811,-9.987182
1790538403.7375,0.025533,-0.014700,-0.071607,0.025380,-0.014653,-0.071607,0.316203,0.186930,-1.006194,0.952207,2.612811,-6.261308
1790538403.7515,0.034103,-0.023490,-0.090681,0.031486,-0.020839,-0.090681,0.671947,-0.139674,-0.614026,-2.688951,1.274331,-8.318301
1790538403.7655,0.041136,-0.033121,-0.105591,0.038241,-0.029437,-0.105591,0.713228,-0.227093,-0.775507,-1.692424,1.571771,-11.811308
1790538403.7796,0.053262,-0.038191,-0.121121,0.048756,-0.035565,-0.121121,0.508038,-0.752816,-1.020763,-0.005993,2.575631,-10.724595
1790538403.7933,0.052948,-0.041486,-0.126393,0.051690,-0.039710,-0.126393,0.413335,-0.103250,-0.939416,1.488799,2.055111,-7.697322
1790538403.8068,0.058420,-0.048613,-0.137200,0.056401,-0.045942,-0.137200,0.623381,-0.381289,-0.811931,0.262303,1.199971,-6.377742
1790538403.8208,0.068040,-0.058588,-0.144671,0.064549,-0.054794,-0.144671,0.732654,-0.660541,-0.657735,0.070663,0.902531,-7.774944
1790538403.8347,0.071823,-0.068715,-0.148873,0.069641,-0.064539,-0.148873,0.765436,-0.327866,-0.651664,0.645583,1.125611,-8.589979
1790538403.8485,0.053109,-0.060845,-0.161442,0.058068,-0.061953,-0.161442,-0.309080,1.259017,-0.616454,1.680439,4.137191,-12.044175
1790538403.8625,0.041221,-0.046249,-0.182777,0.046275,-0.050960,-0.182777,-1.149266,1.164314,-0.492611,-3.723807,0.010211,-16.429840
1790538403.8766,0.039932,-0.031694,-0.198148,0.041835,-0.037474,-0.198148,-1.310747,0.594882,-0.473185,-4.413711,-1.662888,-10.142427
1790538403.8905,0.034919,-0.020193,-0.193453,0.036993,-0.025378,-0.193453,-1.231828,0.948197,-0.229143,-1.385800,-0.770569,-2.302567
1790538403.9046,0.025020,-0.004174,-0.199872,0.028612,-0.010535,-0.199872,-1.128626,0.984621,-0.169650,-0.580912,0.419191,-2.729490
1790538403.9187,0.034468,-0.002647,-0.208708,0.032712,-0.005013,-0.208708,-0.203450,-0.359434,-0.226714,-2.650623,0.567911,-10.220049
1790538403.9326,0.032941,-0.009523,-0.198543,0.032872,-0.008170,-0.198543,0.486183,0.047304,0.753098,-0.350944,1.906391,-12.975644
1790538403.9472,0.027440,-0.015087,-0.190005,0.029069,-0.013012,-0.190005,0.226357,0.372694,1.283678,-1.654096,0.121751,-10.918651
1790538403.9619,0.034260,-0.021462,-0.165104,0.032703,-0.018927,-0.165104,0.420619,-0.644757,1.518008,-0.120976,1.683311,-11.423196
1790538403.9767,0.028513,-0.031336,-0.158749,0.029770,-0.027613,-0.158749,0.510466,0.162647,1.108842,0.798895,-0.138509,-7.115154
1790538403.9908,0.000874,-0.037987,-0.094651,0.009543,-0.034875,-0.094651,0.508038,1.238377,1.151337,3.366870,0.753811,-4.087881
1790538404.0047,-0.011165,-0.051404,-0.072582,-0.004953,-0.046445,-0.072582,1.122394,0.678657,1.180476,1.182175,2.984611,-9.094525
1790538404.0184,-0.023604,-0.056360,-0.052386,-0.018009,-0.053386,-0.052386,0.550533,0.763647,1.168335,1.028863,3.430771,-9.288581
1790538404.0321,-0.024711,-0.059938,-0.040202,-0.022700,-0.057972,-0.040202,0.350199,0.084942,1.079703,-0.312616,2.910251,-11.035084
1790538404.0462,-0.018639,-0.064508,-0.029586,-0.019857,-0.062547,-0.029586,0.108585,-0.530628,1.071204,0.798895,-0.584669,-11.229140
1790538404.0602,-0.015690,-0.067047,-0.017004,-0.016940,-0.065697,-0.017004,-0.006759,-0.417713,0.812591,2.485326,-0.659029,-12.005364
1790538404.0742,-0.010970,-0.068613,-0.001197,-0.012761,-0.067738,-0.001197,-0.150027,-0.735818,0.969216,4.708349,-1.625708,-11.384385
1790538404.0881,-0.008554,-0.066005,0.010770,-0.009816,-0.066525,0.010770,-0.420781,-0.599834,0.784666,4.056774,-1.105189,-8.706413
1790538404.1020,-0.008153,-0.060150,0.018099,-0.008652,-0.062062,0.018099,-0.656325,-0.471135,0.552765,4.248414,-1.253909,-8.085434
1790538404.1160,-0.007460,-0.051861,0.026573,-0.007818,-0.054921,0.026573,-0.811735,-0.377646,0.329363,3.366870,-1.068009,-8.551168
1790538404.1298,-0.001560,-0.039197,0.033706,-0.003437,-0.043914,0.033706,-1.050921,-0.552483,0.019757,1.527127,-0.212869,-8.395923
1790538404.1437,0.007437,-0.024978,0.038535,0.004175,-0.030659,0.038535,-1.197832,-0.813523,-0.124726,1.910407,-0.510309,-8.124245
1790538404.1576,0.015399,-0.011069,0.039485,0.012032,-0.016946,0.039485,-1.186905,-0.779527,-0.128369,2.255358,-0.584669,-8.085434
1790538404.1715,0.008940,-0.009295,0.043649,0.009867,-0.011590,0.043649,-0.344290,0.349625,-0.312918,3.366870,-1.551348,-14.683336
1790538404.1853,0.010333,-0.021621,0.053482,0.010193,-0.018612,0.053482,0.856497,0.388478,-0.910276,-4.758662,0.828171,-12.975644
1790538404.1993,0.009509,-0.032009,0.037174,0.009714,-0.027990,0.037174,0.867424,0.282847,-0.928488,-0.887536,2.315371,-10.763406
1790538404.2137,0.013437,-0.036217,0.018743,0.012320,-0.033749,0.018743,0.311347,-0.388573,-0.257068,1.450471,0.865351,-7.425644
1790538404.2277,0.026434,-0.052222,0.031063,0.022200,-0.046680,0.031063,1.077470,-0.732176,-0.318989,-2.037376,0.382011,-13.169700
1790538404.2416,0.047502,-0.069799,0.018695,0.039912,-0.062863,0.018695,1.368864,-1.103703,-0.521751,-3.378855,1.460231,-7.231588
1790538404.2552,0.065713,-0.079672,-0.021244,0.057973,-0.074630,-0.021244,1.061687,-1.129200,-0.725727,-1.769080,3.802571,-7.813756
1790538404.2688,0.069430,-0.088231,-0.047067,0.065993,-0.084151,-0.047067,0.846783,-0.384931,-0.408836,1.067191,2.464091,-7.736133
1790538404.2827,0.063489,-0.098883,-0.055656,0.064240,-0.094463,-0.055656,0.780006,0.454041,-0.503539,-0.159304,1.423051,-19.534735
1790538404.2966,0.058956,-0.096574,-0.052573,0.060541,-0.095941,-0.052573,-0.205878,0.542674,-0.299563,-4.298727,0.233291,-17.438931
1790538404.3105,0.053924,-0.087413,-0.044208,0.055909,-0.089972,-0.044208,-0.782595,0.675015,-0.267995,-5.141942,-1.216729,-13.945924
1790538404.3246,0.051532,-0.078131,-0.042657,0.052845,-0.081683,-0.042657,-0.996284,0.636162,-0.161151,-3.762135,-2.406488,-5.446273
1790538404.3385,0.045871,-0.061608,-0.036729,0.047963,-0.067631,-0.036729,-1.288893,0.704154,-0.224286,-0.619240,-0.064149,-1.875644
1790538404.3524,0.038402,-0.046302,-0.037231,0.041271,-0.052700,-0.037231,-1.202688,0.723581,-0.202431,-1.040848,-0.138509,-5.640329
1790538404.3663,0.024610,-0.033389,-0.041388,0.029608,-0.039182,-0.041388,-0.985357,1.086609,-0.225500,-0.580912,0.419191,-10.841028
1790538404.3802,0.020967,-0.015504,-0.032866,0.023559,-0.022608,-0.032866,-1.316818,0.596096,-0.176934,-3.110559,0.753811,-8.861658
1790538404.3942,0.028236,-0.010434,-0.033761,0.026833,-0.014086,-0.033761,-0.496058,-0.410428,0.199450,-2.190688,-0.175689,-14.256413
1790538404.4082,0.033234,-0.014620,-0.064611,0.031314,-0.014460,-0.064611,0.301634,-0.788026,0.659609,4.746677,1.980751,-11.035084
1790538404.4220,0.024845,-0.021886,-0.073252,0.026785,-0.019658,-0.073252,0.578458,0.171146,0.974072,4.095102,2.241011,-9.676693
1790538404.4361,0.027209,-0.028418,-0.044748,0.027082,-0.025790,-0.044748,0.612454,-0.131175,0.617114,-0.925864,2.649991,-7.969000
1790538404.4503,0.017472,-0.037491,-0.046494,0.020355,-0.033981,-0.046494,0.653735,0.444328,0.624399,2.715294,1.720491,-10.918651
1790538404.4648,0.004920,-0.044899,-0.036186,0.009550,-0.041624,-0.036186,0.637951,0.712653,0.682678,1.718767,3.356411,-10.802217
1790538404.4787,-0.007614,-0.050366,-0.022878,-0.002465,-0.047743,-0.022878,0.568745,0.752720,0.749456,1.488799,3.319231,-8.822846
1790538404.4924,-0.014449,-0.056625,-0.008858,-0.010854,-0.053961,-0.008858,0.551747,0.451613,0.748242,0.338959,2.501271,-9.288581
1790538404.5063,-0.020107,-0.064372,0.001759,-0.017331,-0.061249,0.001759,0.552961,0.338698,0.726387,0.722239,1.348691,-9.599070
1790538404.5203,-0.018101,-0.072201,0.011949,-0.017870,-0.068915,0.011949,0.501967,-0.156672,0.671751,0.185647,0.902531,-13.286133
1790538404.5346,-0.009593,-0.068615,0.024086,-0.012076,-0.068705,0.024086,-0.235017,-0.758887,0.773739,2.638638,2.426911,-13.907112
1790538404.5485,-0.005381,-0.062789,0.032349,-0.007390,-0.064564,0.032349,-0.548266,-0.568266,0.795593,3.788478,-0.250049,-12.121798
1790538404.5623,0.000875,-0.054925,0.039031,-0.001604,-0.057817,0.039031,-0.650254,-0.802596,0.662038,3.366870,0.233291,-7.542077
1790538404.5763,0.008725,-0.044115,0.044025,0.005626,-0.048226,0.044025,-0.829947,-0.812309,0.432565,2.446998,0.456371,-7.774944
1790538404.5902,0.016533,-0.029923,0.046070,0.013261,-0.035414,0.046070,-1.054563,-0.797739,0.231017,2.753622,0.828171,-8.978091
1790538404.6040,0.025008,-0.012102,0.045142,0.021484,-0.019096,0.045142,-1.294963,-0.877873,0.065894,3.251886,1.274331,-8.978091
1790538404.6180,0.020817,-0.003847,0.043578,0.021017,-0.008422,0.043578,-0.628399,0.189358,-0.187862,2.868606,1.199971,-13.363756
1790538404.6319,0.012223,-0.010466,0.036442,0.014861,-0.009853,0.036442,0.458258,0.815856,-0.890850,-0.619240,1.199971,-15.265504
1790538404.6458,0.026543,-0.017052,0.019482,0.023038,-0.014892,0.019482,0.673161,-0.569481,-1.267234,-2.688951,2.464091,-6.494175
1790538404.6598,0.025315,-0.016447,-0.008005,0.024632,-0.015980,-0.008005,0.359912,-0.134818,-0.685660,1.833751,2.538451,-2.884734
1790538404.6736,0.023957,-0.026898,-0.005402,0.024160,-0.023623,-0.005402,0.691373,0.071586,-0.527822,1.143847,0.233291,-7.580888
1790538404.6875,0.041624,-0.036368,-0.028511,0.036384,-0.032544,-0.028511,0.833428,-1.016285,-0.923632,-2.229015,3.282051,-10.879840
1790538404.7016,0.052020,-0.044127,-0.053763,0.047329,-0.040652,-0.053763,0.688945,-0.581622,-1.212598,-0.350944,2.575631,-8.900469
1790538404.7157,0.058575,-0.047513,-0.074726,0.055201,-0.045455,-0.074726,0.398765,-0.370361,-0.984339,0.032335,2.687171,-8.007811
1790538404.7294,0.062932,-0.057808,-0.080161,0.060613,-0.054102,-0.080161,0.656163,-0.194311,-0.835000,-0.657568,-0.175689,-9.210958
1790538404.7435,0.078028,-0.072435,-0.090284,0.072803,-0.066935,-0.090284,0.982767,-0.888800,-0.781577,-1.692424,0.196111,-8.822846
1790538404.7574,0.063630,-0.081224,-0.101763,0.066382,-0.076937,-0.101763,0.682874,1.055042,-0.651664,0.568927,2.984611,-18.758511
1790538404.7714,0.049941,-0.070810,-0.112519,0.054873,-0.072648,-0.112519,-0.776525,1.273587,-0.682018,-5.180270,0.605091,-14.993826
1790538404.7853,0.051828,-0.059149,-0.105263,0.052741,-0.063199,-0.105263,-1.016925,0.220926,-0.605527,-4.567022,-1.774428,-9.831937
1790538404.7992,0.045736,-0.046680,-0.103553,0.047838,-0.051635,-0.103553,-1.121341,0.880205,-0.713585,-2.688951,-1.216729,-4.553616
1790538404.8132,0.026543,-0.031101,-0.111964,0.032932,-0.037261,-0.111964,-1.121341,1.345221,-0.524179,1.067191,0.679451,-6.921098
1790538404.8272,0.018388,-0.020505,-0.119611,0.022751,-0.025532,-0.119611,-0.951361,0.915415,-0.436761,-2.918919,-1.439808,-7.852567
1790538404.8409,0.014297,-0.015134,-0.130063,0.016833,-0.018253,-0.130063,-0.595617,0.379979,-0.272852,-0.542584,-3.373168,-21.087182
1790538404.8548,0.017240,-0.017888,-0.124791,0.017118,-0.017998,-0.124791,0.203288,-0.466279,0.485987,4.018446,2.241011,-13.402567
1790538404.8687,0.011224,-0.019715,-0.111369,0.012992,-0.019200,-0.111369,0.145009,0.200285,1.034779,1.680439,1.906391,-9.443825
1790538404.8826,0.019792,-0.030481,-0.095073,0.017752,-0.027097,-0.095073,0.565102,-0.537913,0.663252,-1.040848,-0.733389,-4.941727
1790538404.8965,0.011853,-0.044871,-0.094438,0.013623,-0.039539,-0.094438,1.002194,0.190572,0.607401,4.133430,0.679451,-7.852567
1790538404.9105,-0.001963,-0.058749,-0.089757,0.002713,-0.052986,-0.089757,0.990052,0.767290,0.703319,2.791950,1.311511,-10.103616
1790538404.9244,-0.014641,-0.068692,-0.077928,-0.009435,-0.063980,-0.077928,0.832214,0.819498,0.870870,0.798895,2.798711,-8.589979
1790538404.9381,-0.030079,-0.074566,-0.062535,-0.023886,-0.071390,-0.062535,0.620953,1.012547,0.969216,1.143847,3.542311,-7.580888
1790538404.9521,-0.036182,-0.080036,-0.051205,-0.032493,-0.077442,-0.051205,0.396337,0.455255,0.855086,-0.235960,1.534591,-8.784035
1790538404.9667,-0.032969,-0.089603,-0.036535,-0.032826,-0.085955,-0.036535,0.542034,-0.306012,0.941290,1.603783,0.196111,-13.751868
1790538404.9808,-0.027189,-0.088084,-0.025331,-0.028880,-0.087445,-0.025331,-0.191308,-0.456565,0.744599,1.028863,0.419191,-13.402567
1790538404.9950,-0.019134,-0.085422,-0.007755,-0.022058,-0.086029,-0.007755,-0.372215,-0.778313,0.835660,3.251886,-1.253909,-10.763406
1790538405.0091,-0.009235,-0.076864,0.009671,-0.013082,-0.079613,0.009671,-0.786238,-0.984717,0.811377,3.941790,-1.142369,-9.715504
1790538405.0232,-0.000995,-0.063768,0.025200,-0.004621,-0.068522,0.025200,-1.120127,-0.848733,0.682678,2.945262,-1.179549,-7.891378
1790538405.0373,0.002184,-0.047816,0.034588,0.000143,-0.054028,0.034588,-1.285250,-0.528200,0.629256,2.906934,-0.621849,-6.843476
1790538405.0511,0.009236,-0.030948,0.044534,0.006508,-0.037872,0.044534,-1.364169,-0.730961,0.460490,2.370342,-0.435949,-8.434735
1790538405.0643,0.018397,-0.015339,0.049455,0.014830,-0.022099,0.049455,-1.303462,-0.947079,0.347575,2.638638,-0.175689,-8.240679
1790538405.0774,0.024879,0.000879,0.048028,0.021865,-0.006014,0.048028,-1.294963,-0.745531,0.350003,3.098574,0.939711,-10.724595
1790538405.0907,0.007907,-0.002814,0.054826,0.012095,-0.003774,0.054826,0.165650,1.209238,-0.000884,3.175230,-0.138509,-19.573546
1790538405.1050,0.012750,-0.014795,0.058473,0.012553,-0.011489,0.058473,0.854068,-0.040115,-0.856854,-3.953775,2.241011,-17.671798
1790538405.1203,0.010145,-0.014457,-0.020369,0.010867,-0.013567,-0.020369,0.376910,0.151720,-0.709943,1.297159,4.248731,-5.058161
1790538405.1348,0.016714,-0.022887,-0.011650,0.014960,-0.020091,-0.011650,0.654949,-0.171242,-0.456187,-1.845736,1.348691,-5.679140
1790538405.1488,0.030411,-0.041294,-0.006353,0.025775,-0.034933,-0.006353,1.319085,-0.735818,-0.610383,-2.803935,1.125611,-11.423196
1790538405.1638,0.048685,-0.055504,-0.030553,0.041812,-0.049333,-0.030553,1.147891,-1.100061,-0.866567,-0.465928,3.467951,-8.240679
1790538405.1777,0.051282,-0.062123,-0.049408,0.048441,-0.058286,-0.049408,0.645236,-0.253804,-0.851997,1.948735,3.058971,-8.706413
1790538405.1910,0.058541,-0.067594,-0.068036,0.055511,-0.064802,-0.068036,0.497110,-0.483277,-0.947915,0.108991,1.943571,-9.521448
1790538405.2050,0.064183,-0.071497,-0.084923,0.061581,-0.069488,-0.084923,0.478898,-0.431068,-0.833785,1.067191,3.170511,-7.619700
1790538405.2194,0.035897,-0.066541,-0.081163,0.043603,-0.067425,-0.081163,-0.438993,1.942579,-0.802218,2.370342,-0.696209,-15.808861
1790538405.2335,0.025423,-0.049852,-0.085259,0.030877,-0.055124,-0.085259,-1.239113,0.921486,-0.730583,-1.884064,0.084571,-14.178791
1790538405.2476,0.024260,-0.034883,-0.067019,0.026245,-0.040956,-0.067019,-1.240327,0.403047,-0.730583,-2.842263,-1.439808,-7.969000
1790538405.2615,0.013499,-0.016796,-0.071505,0.017323,-0.024044,-0.071505,-1.369026,0.991906,-0.729369,-0.887536,-0.026969,-6.300119
1790538405.2753,0.003272,-0.002050,-0.071794,0.007487,-0.008648,-0.071794,-1.217258,1.137603,-0.571531,-2.803935,-0.919289,-6.222497
1790538405.2892,-0.010674,0.013603,-0.086408,-0.005226,0.006928,-0.086408,-0.993856,1.138817,-0.573959,0.185647,2.687171,-8.395923
1790538405.3031,0.010023,0.005721,-0.086534,0.005448,0.006083,-0.086534,0.511680,-1.255471,-0.378482,-3.762135,1.014071,-15.847672
1790538405.3170,0.004890,0.003981,-0.092569,0.005058,0.004611,-0.092569,0.227571,0.057017,0.458062,3.558510,2.761531,-7.697322
1790538405.3310,0.007723,-0.005207,-0.077270,0.006924,-0.002262,-0.077270,0.557818,-0.340008,0.873298,0.492271,0.642271,-10.646972
1790538405.3450,0.012678,-0.019592,-0.064537,0.010951,-0.014393,-0.064537,0.954842,-0.463850,0.730030,0.377287,0.605091,-8.667602
1790538405.3590,0.006547,-0.028142,-0.061196,0.007869,-0.024017,-0.061196,0.690159,0.348411,0.645040,0.530599,2.575631,-8.978091
1790538405.3729,-0.009164,-0.037190,-0.053418,-0.004054,-0.033238,-0.053418,0.623381,1.007690,0.714246,1.450471,1.348691,-11.423196
1790538405.3868,-0.021019,-0.047642,-0.045157,-0.015930,-0.043321,-0.045157,0.764222,0.741793,0.907294,0.952207,1.869211,-9.366203
1790538405.4003,-0.033055,-0.050190,-0.043305,-0.027917,-0.048129,-0.043305,0.331987,0.792787,0.909723,0.722239,3.021791,-7.076343
1790538405.4140,-0.035719,-0.054500,-0.033608,-0.033379,-0.052589,-0.033608,0.279779,0.196643,0.952218,-0.465928,1.385871,-8.745224
1790538405.4280,-0.034049,-0.058043,-0.025140,-0.033848,-0.056406,-0.025140,0.245783,-0.088680,0.863585,-0.810880,1.794851,-9.133336
1790538405.4418,-0.029690,-0.061214,-0.012111,-0.030937,-0.059772,-0.012111,0.129225,-0.370361,0.901224,0.453943,0.679451,-12.471098
1790538405.4560,-0.020012,-0.058168,0.003478,-0.023290,-0.058649,0.003478,-0.304223,-0.819594,0.885440,1.795423,0.790991,-12.044175
1790538405.4704,-0.015640,-0.052091,0.029510,-0.017935,-0.054058,0.029510,-0.634470,-0.546412,0.844159,3.021918,-1.402628,-9.210958
1790538405.4844,-0.006503,-0.044310,0.044652,-0.009932,-0.047234,0.044652,-0.698820,-0.710321,0.669323,0.223975,-0.287229,-7.115154
1790538405.4983,0.000669,-0.035345,0.055153,-0.002511,-0.038912,0.055153,-0.760741,-0.689681,0.438636,2.025391,-0.212869,-8.473546
1790538405.5126,0.009614,-0.022394,0.058456,0.005977,-0.027349,0.058456,-0.955003,-0.828093,0.215233,3.366870,0.716631,-10.530539
1790538405.5268,0.016418,-0.006365,0.056503,0.013286,-0.012660,0.056503,-1.162622,-0.716392,-0.006955,3.711822,0.865351,-8.861658
1790538405.5409,0.010314,-0.004051,0.054237,0.011206,-0.006634,0.054237,-0.208306,0.400619,-0.369983,2.255358,0.716631,-12.354665
1790538405.5550,0.006642,-0.014634,0.042653,0.008011,-0.012234,0.042653,0.792147,0.593668,-1.029262,-3.493839,1.869211,-14.139979
1790538405.5689,0.015558,-0.031795,0.031288,0.013294,-0.025926,0.031288,1.255949,-0.264731,-1.189529,-3.110559,0.828171,-9.482637
1790538405.5829,0.013334,-0.029867,-0.023814,0.013322,-0.028685,-0.023814,0.282207,-0.027973,-0.521751,2.446998,3.951291,-3.699769
1790538405.5969,0.022889,-0.040404,-0.022206,0.020019,-0.036888,-0.022206,0.697444,-0.490561,-0.512038,-2.458983,0.084571,-13.208511
1790538405.6108,0.042134,-0.053839,-0.033408,0.035500,-0.048754,-0.033408,1.031333,-1.146198,-0.819216,-2.727279,2.055111,-11.190329
1790538405.6244,0.058625,-0.063039,-0.051256,0.051687,-0.058753,-0.051256,0.881993,-1.033283,-1.034119,-1.232488,3.282051,-7.774944
1790538405.6380,0.066692,-0.069083,-0.054256,0.062191,-0.065984,-0.054256,0.582100,-0.681182,-0.752438,1.143847,1.683311,-5.174595
1790538405.6516,0.075010,-0.083548,-0.058033,0.071164,-0.078279,-0.058033,0.973054,-0.558553,-0.688088,-0.350944,-0.510309,-11.112707
1790538405.6655,0.063301,-0.091146,-0.062494,0.065660,-0.087286,-0.062494,0.467971,0.871706,-0.595814,-0.005993,-0.510309,-13.441378
1790538405.6795,0.047109,-0.083958,-0.071496,0.052674,-0.084956,-0.071496,-0.565264,1.297870,-0.580030,-2.267343,-0.064149,-15.459560
1790538405.6932,0.049659,-0.077400,-0.068932,0.050563,-0.079667,-0.068932,-0.672108,0.110439,-0.604313,-4.643678,-2.778288,-10.763406
1790538405.7071,0.041777,-0.063628,-0.079795,0.044413,-0.068439,-0.079795,-1.056991,0.908130,-0.765793,-2.995575,-0.250049,-6.416553
1790538405.7218,0.027005,-0.050960,-0.086657,0.032227,-0.056204,-0.086657,-1.059420,0.938484,-0.507181,1.335487,-1.439808,-5.756762
1790538405.7358,0.022661,-0.037630,-0.085077,0.025531,-0.043202,-0.085077,-1.133482,0.664088,-0.457401,-3.455511,-1.662888,-6.727042
1790538405.7498,0.017709,-0.023654,-0.091504,0.020056,-0.029518,-0.091504,-1.161408,0.558457,-0.395480,-2.458983,-1.774428,-11.578441
1790538405.7636,0.010994,-0.002402,-0.092005,0.013712,-0.010537,-0.092005,-1.610640,0.695655,-0.257068,-1.769080,0.047391,-7.813756
1790538405.7775,0.023215,0.003751,-0.086977,0.020364,-0.000535,-0.086977,-0.536124,-0.747959,0.048896,-2.420655,0.196111,-11.500819
1790538405.7913,0.026544,-0.007247,-0.101460,0.024690,-0.005233,-0.101460,0.670733,-0.592549,0.742171,3.366870,-0.212869,-8.589979
1790538405.8051,0.025623,-0.014977,-0.093733,0.025343,-0.012054,-0.093733,0.560246,-0.137246,0.879369,1.258831,1.460231,-8.512357
1790538405.8189,0.028940,-0.017780,-0.044987,0.027861,-0.016062,-0.044987,0.440046,0.040019,0.251658,-2.420655,2.464091,-4.126693
1790538405.8327,0.021365,-0.028595,-0.057080,0.023314,-0.024835,-0.057080,0.746010,0.348411,0.224947,3.520182,0.902531,-11.617252
1790538405.8465,0.004204,-0.040226,-0.056750,0.009937,-0.035609,-0.056750,0.906276,1.070825,0.467775,3.328542,3.096151,-13.169700
1790538405.8601,-0.010298,-0.046722,-0.045623,-0.004228,-0.043388,-0.045623,0.637951,1.004048,0.597688,0.607255,3.393591,-8.279490
1790538405.8736,-0.015433,-0.050938,-0.034396,-0.012071,-0.048673,-0.034396,0.356270,0.394548,0.606187,-0.389272,1.794851,-8.046623
1790538405.8876,-0.017963,-0.058307,-0.024416,-0.016195,-0.055417,-0.024416,0.511680,0.182073,0.612258,-0.235960,1.162791,-8.706413
1790538405.9016,-0.016366,-0.061618,-0.013125,-0.016315,-0.059758,-0.013125,0.312561,-0.217379,0.569763,1.603783,2.947431,-10.608161
1790538405.9156,-0.008677,-0.058241,-0.006138,-0.010968,-0.058696,-0.006138,-0.290868,-0.696966,0.563692,2.906934,1.014071,-13.674245
1790538405.9296,-0.001689,-0.050450,-0.003859,-0.004473,-0.052924,-0.003859,-0.652682,-0.706679,0.505413,3.443526,-0.064149,-11.267951
1790538405.9436,0.006398,-0.038314,-0.003594,0.003137,-0.042697,-0.003594,-0.965931,-0.851162,0.471417,3.443526,-0.101329,-8.318301
1790538405.9580,0.016503,-0.024651,0.000385,0.012493,-0.030065,0.000385,-1.067919,-0.857232,0.330577,1.565455,-0.324409,-7.348021
1790538405.9725,0.026010,-0.010412,-0.000071,0.021955,-0.016308,-0.000071,-1.069133,-0.879087,0.201878,3.251886,-0.026969,-9.210958
1790538405.9867,0.033958,0.006283,-0.007473,0.030357,-0.000494,-0.007473,-1.137125,-0.846305,0.084106,3.788478,1.832031,-7.697322
1790538406.0008,0.030030,0.009974,-0.007146,0.030128,0.006834,-0.007146,-0.364930,0.183287,-0.265567,3.366870,-0.175689,-13.402567
1790538406.0147,0.020761,0.000387,-0.016735,0.023571,0.002321,-0.016735,0.754509,1.013761,-0.953985,-3.455511,2.687171,-12.121798
1790538406.0288,0.034480,-0.009828,-0.042809,0.031207,-0.006184,-0.042809,1.031333,-0.584050,-1.371650,-2.535639,4.657711,-6.494175
1790538406.0427,0.027498,-0.012960,-0.053685,0.028611,-0.010927,-0.053685,0.378125,0.320486,-0.660163,3.520182,2.612811,-6.377742
1790538406.0568,0.026654,-0.021733,-0.062175,0.027241,-0.018492,-0.062175,0.641593,0.165075,-0.542391,-0.235960,1.199971,-8.589979
1790538406.0707,0.043037,-0.035082,-0.076669,0.038298,-0.030105,-0.076669,1.022834,-0.983503,-0.929703,-1.769080,2.649991,-13.208511
1790538406.0843,0.051744,-0.041878,-0.095319,0.047710,-0.038346,-0.095319,0.664662,-0.535485,-1.017121,0.070663,3.393591,-8.978091
1790538406.0980,0.055858,-0.044037,-0.111278,0.053414,-0.042330,-0.111278,0.329559,-0.250161,-0.978268,0.722239,3.579491,-8.900469
1790538406.1116,0.064182,-0.052968,-0.118113,0.060952,-0.049777,-0.118113,0.555389,-0.518487,-0.984339,-0.044320,-0.324409,-8.512357
1790538406.1256,0.072429,-0.063594,-0.124586,0.068986,-0.059449,-0.124586,0.712014,-0.568266,-0.818002,0.492271,0.307651,-8.279490
1790538406.1395,0.054253,-0.068302,-0.127832,0.058673,-0.065646,-0.127832,0.263995,1.282086,-0.643165,1.910407,-0.212869,-15.692427
1790538406.1534,0.045148,-0.055436,-0.142613,0.049206,-0.058499,-0.142613,-0.945290,0.999191,-0.604313,-6.061814,0.716631,-12.121798
1790538406.1674,0.044726,-0.041264,-0.145863,0.046070,-0.046435,-0.145863,-1.203903,0.373908,-0.614026,-4.222071,-1.997508,-8.434735
1790538406.1812,0.035320,-0.027026,-0.153368,0.038545,-0.032849,-0.153368,-1.254897,1.042900,-0.618882,-2.305671,-1.402628,-4.592427
1790538406.1952,0.021311,-0.013226,-0.161370,0.026481,-0.019113,-0.161370,-1.143196,1.337937,-0.478042,-1.999048,-0.770569,-4.592427
1790538406.2092,0.012608,-0.001882,-0.163210,0.016770,-0.007051,-0.163210,-0.802022,0.892346,-0.414906,-2.152360,0.939711,-7.153965
1790538406.2237,0.022535,-0.005948,-0.161637,0.020806,-0.006279,-0.161637,0.278565,-0.568266,-0.150223,-2.612295,2.649991,-18.952567
1790538406.2378,0.017953,-0.007454,-0.152101,0.018809,-0.007101,-0.152101,0.104943,0.242780,0.630470,0.262303,1.869211,-11.073895
1790538406.2519,0.017485,-0.012355,-0.137485,0.017882,-0.010779,-0.137485,0.278565,-0.088680,1.140410,-0.350944,0.939711,-10.724595
1790538406.2658,0.023123,-0.028897,-0.141741,0.021551,-0.023461,-0.141741,0.966983,-0.626545,0.954646,1.067191,-1.142369,-6.338930
1790538406.2797,0.018268,-0.036697,-0.129593,0.019253,-0.032726,-0.129593,0.608812,0.195429,0.748242,1.297159,2.055111,-9.055714
1790538406.2937,-0.001185,-0.046057,-0.122601,0.004946,-0.042058,-0.122601,0.651306,1.250518,0.762811,1.450471,1.125611,-9.443825
1790538406.3076,-0.012158,-0.057284,-0.101525,-0.007027,-0.052716,-0.101525,0.884422,0.716296,0.978929,0.300631,2.649991,-8.822846
1790538406.3213,-0.024569,-0.063684,-0.079628,-0.019306,-0.060394,-0.079628,0.580886,0.841353,0.944933,0.453943,2.984611,-8.124245
1790538406.3349,-0.030958,-0.069325,-0.060985,-0.027463,-0.066646,-0.060985,0.418191,0.390906,1.071204,0.607255,2.055111,-9.521448
1790538406.3489,-0.026516,-0.076154,-0.050429,-0.026800,-0.073301,-0.050429,0.345343,-0.391002,1.005640,0.760567,-0.287229,-12.005364
1790538406.3628,-0.022428,-0.077115,-0.041862,-0.023740,-0.075971,-0.041862,-0.043183,-0.409214,0.817448,1.948735,-0.064149,-12.354665
1790538406.3767,-0.016085,-0.078352,-0.037174,-0.018382,-0.077637,-0.037174,-0.112389,-0.676325,0.941290,3.711822,-1.774428,-11.656063
1790538406.3907,-0.008718,-0.074643,-0.029912,-0.011617,-0.075541,-0.029912,-0.415924,-0.820808,0.906080,4.018446,-0.770569,-8.861658
1790538406.4047,0.000280,-0.067318,-0.022431,-0.003289,-0.069785,-0.022431,-0.703676,-0.871802,0.740957,2.332014,-1.068009,-7.076343
1790538406.4187,0.000490,-0.055672,-0.016196,-0.000643,-0.059906,-0.016196,-0.982929,-0.296299,0.664466,3.520182,-0.956469,-8.046623
1790538406.4328,0.005991,-0.040701,-0.006058,0.004000,-0.046463,-0.006058,-1.251254,-0.568266,0.545480,2.217030,-1.476988,-9.133336
1790538406.4466,0.015726,-0.023036,-0.004144,0.012208,-0.030064,-0.004144,-1.358099,-0.894871,0.394926,2.485326,0.196111,-9.599070
1790538406.4608,0.024746,-0.002227,0.000389,0.020984,-0.010578,0.000389,-1.623996,-0.910655,0.223732,2.945262,-0.770569,-6.610609
1790538406.4751,0.018103,0.004964,0.004375,0.018968,0.000301,0.004375,-0.641755,0.310772,0.155740,3.903462,-1.142369,-14.955014
1790538406.4891,0.006780,-0.008320,0.011474,0.010436,-0.005734,0.011474,0.915989,1.017403,-0.550890,-1.999048,0.865351,-15.343126
1790538406.5034,0.015213,-0.016013,0.003927,0.013780,-0.012929,0.003927,0.947557,-0.224664,-0.825286,-2.842263,5.029511,-4.204315
1790538406.5174,0.008164,-0.020338,-0.013031,0.009849,-0.018116,-0.013031,0.279779,0.269492,-0.098015,3.596838,0.456371,-7.503266
1790538406.5314,0.016150,-0.035028,-0.004896,0.014260,-0.029954,-0.004896,1.017977,-0.426212,-0.282565,-1.922392,0.716631,-13.247322
1790538406.5449,0.036630,-0.051864,0.006074,0.029919,-0.045291,0.006074,1.338511,-1.120701,-0.725727,-5.218598,2.278191,-9.172147
1790538406.5584,0.047504,-0.061232,-0.021196,0.042228,-0.056450,-0.021196,0.947557,-0.817166,-0.765793,0.875551,3.282051,-6.106063
1790538406.5720,0.051614,-0.065611,-0.042524,0.048798,-0.062862,-0.042524,0.577244,-0.348507,-0.714799,1.143847,3.319231,-6.106063
1790538406.5860,0.063748,-0.074124,-0.057452,0.059263,-0.070745,-0.057452,0.695016,-0.809881,-0.868995,0.032335,1.757671,-7.542077
1790538406.5998,0.052964,-0.085860,-0.063160,0.054854,-0.081326,-0.063160,0.744795,0.715082,-0.832571,2.715294,-1.179549,-13.208511
1790538406.6136,0.039035,-0.071951,-0.070320,0.043780,-0.074763,-0.070320,-0.999927,1.204381,-0.610383,-4.222071,1.757671,-18.680889
1790538406.6275,0.045867,-0.053150,-0.062348,0.045241,-0.059634,-0.062348,-1.445517,-0.087466,-0.516894,-7.824901,-0.993649,-11.151518
1790538406.6415,0.037814,-0.038104,-0.066705,0.040042,-0.044563,-0.066705,-1.305891,0.807357,-0.349343,-1.999048,-1.885968,-6.106063
1790538406.6556,0.023113,-0.017952,-0.069961,0.028192,-0.025936,-0.069961,-1.418806,1.174027,-0.323846,-0.465928,0.530731,-4.087881
1790538406.6694,0.006517,-0.003681,-0.075041,0.013019,-0.010358,-0.075041,-1.013282,1.481205,-0.556961,-2.305671,1.125611,-8.512357
1790538406.6833,-0.000516,0.008427,-0.078501,0.003545,0.002792,-0.078501,-0.644183,0.698084,-0.601884,-1.079176,5.066691,-9.715504
1790538406.6972,0.017069,0.003463,-0.081293,0.013012,0.003262,-0.081293,0.268852,-1.172909,-0.116227,-2.343999,0.382011,-21.281238
1790538406.7111,0.013079,0.005526,-0.075930,0.013059,0.004847,-0.075930,-0.119674,0.194215,0.374286,1.028863,2.352551,-10.452916
1790538406.7257,0.015370,0.000664,-0.070184,0.014677,0.001918,-0.070184,0.237284,-0.417713,0.924292,1.948735,0.382011,-8.589979
1790538406.7396,0.021781,-0.011394,-0.064858,0.019649,-0.007400,-0.064858,0.814002,-0.644757,0.620757,1.450471,0.790991,-8.434735
1790538406.7535,0.011390,-0.017953,-0.061362,0.013868,-0.014787,-0.061362,0.648878,0.529318,0.509056,1.757095,2.649991,-5.329839
1790538406.7676,-0.002501,-0.029473,-0.054813,0.002410,-0.025067,-0.054813,0.835856,0.878991,0.598902,1.450471,2.241011,-12.044175
1790538406.7811,-0.016447,-0.041615,-0.045397,-0.010790,-0.036651,-0.045397,0.942701,0.915415,0.788308,0.990535,2.166651,-8.589979
1790538406.7947,-0.026704,-0.047495,-0.034144,-0.021930,-0.044241,-0.034144,0.534749,0.717510,0.879369,-0.044320,3.058971,-8.240679
1790538406.8086,-0.027673,-0.050832,-0.022469,-0.025950,-0.048854,-0.022469,0.278565,0.077657,0.896367,-0.772552,2.501271,-8.861658
1790538406.8226,-0.020649,-0.051771,-0.010696,-0.022239,-0.050896,-0.010696,0.074589,-0.488133,0.884226,-1.040848,2.315371,-10.103616
1790538406.8365,-0.012498,-0.049580,0.004143,-0.015420,-0.049975,0.004143,-0.239874,-0.727319,0.935220,1.795423,0.976891,-13.169700
1790538406.8505,-0.005193,-0.045334,0.020660,-0.008261,-0.046726,0.020660,-0.448706,-0.757673,1.039636,3.520182,-0.398769,-13.596623
1790538406.8645,0.002515,-0.036651,0.036144,-0.000718,-0.039673,0.036144,-0.787452,-0.832949,0.961931,3.366870,-0.844929,-9.831937
1790538406.8784,0.010245,-0.028022,0.045921,0.006956,-0.031518,0.045921,-0.827519,-0.763743,0.595260,2.293686,-1.588528,-8.822846
1790538406.8926,0.020222,-0.015673,0.054079,0.016242,-0.020426,0.054079,-0.956218,-0.843877,0.460490,0.875551,0.158931,-5.834385
1790538406.9066,0.024233,-0.005268,0.058246,0.021835,-0.009815,0.058246,-0.814163,-0.438353,0.284439,1.948735,0.307651,-9.327392
1790538406.9207,0.020835,-0.009572,0.058480,0.021135,-0.009645,0.058480,0.223928,0.270706,-0.155080,0.377287,-0.026969,-16.429840
1790538406.9345,0.022106,-0.023197,0.049781,0.021815,-0.019131,0.049781,1.011907,0.120152,-0.794933,-2.114032,2.017931,-14.760958
1790538406.9485,0.016200,-0.024699,0.017949,0.017884,-0.023029,0.017949,0.249425,0.240352,-0.926060,3.060246,1.683311,-4.786483
1790538406.9626,0.022016,-0.027567,0.013555,0.020777,-0.026206,0.013555,0.204502,-0.458994,-0.321417,0.952207,0.642271,-5.717951
1790538406.9769,0.038233,-0.040651,0.014985,0.032996,-0.036317,0.014985,0.884422,-0.928867,-0.476828,-3.110559,0.530731,-11.966553
1790538406.9910,0.048548,-0.058875,-0.001257,0.043882,-0.052108,-0.001257,1.472067,-0.536699,-0.836214,-1.692424,3.393591,-8.279490
1790538407.0046,0.065204,-0.069364,-0.018169,0.058808,-0.064187,-0.018169,0.945129,-1.106131,-1.015907,-0.580912,2.761531,-7.153965
1790538407.0182,0.070404,-0.077555,-0.027559,0.066925,-0.073544,-0.027559,0.644022,-0.451709,-0.856854,1.680439,1.423051,-8.512357
1790538407.0318,0.075928,-0.094786,-0.035590,0.073227,-0.088414,-0.035590,1.269305,-0.383717,-0.572745,-0.005993,1.125611,-12.160609
1790538407.0458,0.055311,-0.099930,-0.044055,0.060686,-0.096475,-0.044055,0.361127,1.464207,-0.606741,1.450471,1.162791,-20.039280
1790538407.0597,0.043639,-0.088810,-0.056685,0.048753,-0.091110,-0.056685,-0.786238,1.041686,-0.632238,-3.263871,0.976891,-11.927742
1790538407.0737,0.044193,-0.082379,-0.057188,0.045561,-0.084998,-0.057188,-0.691535,0.206356,-0.702658,-3.302199,-3.335988,-9.210958
1790538407.0876,0.034145,-0.067156,-0.067188,0.037570,-0.072508,-0.067188,-1.214830,1.018617,-0.803432,-2.382327,-0.919289,-5.989630
1790538407.1015,0.017682,-0.050878,-0.082010,0.023648,-0.057367,-0.082010,-1.379953,1.276015,-0.771864,0.032335,-1.551348,-5.329839
1790538407.1153,0.013328,-0.034085,-0.082510,0.016424,-0.041069,-0.082510,-1.406664,0.676229,-0.649236,-1.424128,-0.844929,-2.884734
1790538407.1292,0.006819,-0.011013,-0.086753,0.009700,-0.020030,-0.086753,-1.683489,0.575455,-0.331131,-0.350944,0.419191,-6.183686
1790538407.1432,-0.009661,0.009652,-0.097434,-0.003853,0.000747,-0.097434,-1.597285,1.290585,-0.276494,-0.504256,-1.105189,-16.623896
1790538407.1570,0.009253,0.002710,-0.093925,0.005321,0.002121,-0.093925,0.272494,-1.266398,0.167882,-4.375383,-4.339848,-21.281238
1790538407.1709,0.017894,-0.004575,-0.096240,0.014122,-0.002566,-0.096240,0.539605,-0.902156,0.636541,3.673494,2.538451,-11.306763
1790538407.1854,0.015977,-0.003666,-0.067929,0.015420,-0.003336,-0.067929,0.033308,0.145649,0.739743,-0.925864,1.943571,-5.407462
1790538407.2009,0.015532,-0.011901,-0.056122,0.015499,-0.009332,-0.056122,0.636737,0.014522,0.228589,0.032335,2.538451,-7.115154
1790538407.2156,0.005291,-0.024571,-0.059918,0.008353,-0.019999,-0.059918,0.908705,0.530532,0.279583,3.060246,2.426911,-10.608161
1790538407.2299,-0.017321,-0.033926,-0.058379,-0.009619,-0.029748,-0.058379,0.708371,1.455708,0.415567,2.255358,2.501271,-10.491728
1790538407.2444,-0.023463,-0.041006,-0.044855,-0.019310,-0.037629,-0.044855,0.545676,0.443114,0.519983,-0.542584,2.538451,-9.443825
1790538407.2580,-0.026077,-0.045237,-0.034058,-0.024047,-0.042955,-0.034058,0.314989,0.167504,0.587975,0.147319,1.497411,-8.395923
1790538407.2718,-0.029649,-0.049637,-0.024909,-0.027969,-0.047632,-0.024909,0.294349,0.218498,0.578262,0.453943,1.237151,-9.288581
1790538407.2858,-0.018529,-0.053976,-0.012581,-0.021361,-0.052073,-0.012581,0.316203,-0.845091,0.591617,0.645583,2.426911,-12.781588
1790538407.3000,-0.009589,-0.051331,-0.012196,-0.013121,-0.051554,-0.012196,-0.260514,-0.802596,0.445920,3.290214,0.382011,-12.121798
1790538407.3139,0.002858,-0.044062,-0.013728,-0.001936,-0.046309,-0.013728,-0.629613,-1.125558,0.510270,3.520182,-0.212869,-10.336483
1790538407.3280,0.004883,-0.035194,-0.026313,0.002837,-0.038528,-0.026313,-0.805664,-0.548840,0.387642,5.398253,-1.514168,-6.727042
1790538407.3420,0.015776,-0.022517,-0.025413,0.011894,-0.027320,-0.025413,-0.981715,-0.931295,0.187308,1.910407,0.158931,-8.007811
1790538407.3561,0.023264,-0.009394,-0.026936,0.019853,-0.014772,-0.026936,-1.018139,-0.746745,0.040397,3.175230,0.010211,-8.434735
1790538407.3700,0.027530,0.003445,-0.031409,0.025227,-0.002020,-0.031409,-0.947719,-0.411642,-0.108943,2.868606,1.348691,-13.130889
1790538407.3840,0.018913,0.001349,-0.041353,0.020807,0.000338,-0.041353,0.149866,0.668944,-0.532678,1.565455,2.055111,-16.468651
1790538407.3979,0.017125,-0.006644,-0.054503,0.018230,-0.004550,-0.054503,0.652521,0.383621,-1.159175,-1.232488,2.687171,-12.315854
1790538407.4120,0.027914,-0.015597,-0.029898,0.025009,-0.012283,-0.029898,0.901420,-0.228307,-1.189529,-3.148887,2.501271,-3.428091
1790538407.4258,0.023957,-0.020572,-0.060009,0.024273,-0.018085,-0.060009,0.548104,0.093441,-0.552104,2.676966,2.315371,-4.786483
1790538407.4398,0.034278,-0.031262,-0.067539,0.031276,-0.027309,-0.067539,0.792147,-0.541555,-0.720870,-1.845736,1.608951,-10.957462
1790538407.4538,0.047463,-0.041550,-0.084306,0.042607,-0.037278,-0.084306,0.901420,-0.772242,-1.062044,-0.849208,3.393591,-8.784035
1790538407.4677,0.055668,-0.050430,-0.103100,0.051749,-0.046485,-0.103100,0.797004,-0.410428,-1.206527,-0.887536,3.207691,-8.395923
1790538407.4820,0.062046,-0.055917,-0.115526,0.058957,-0.053087,-0.115526,0.545676,-0.386145,-0.842284,0.147319,2.501271,-6.183686
1790538407.4962,0.074372,-0.072546,-0.123412,0.069748,-0.066708,-0.123412,1.060472,-0.795311,-0.787648,-0.427600,-0.919289,-10.103616
1790538407.5100,0.072647,-0.083082,-0.131359,0.071777,-0.078170,-0.131359,0.917204,0.120152,-0.533892,0.568927,4.025651,-11.112707
1790538407.5241,0.048042,-0.080119,-0.139126,0.055162,-0.079534,-0.139126,-0.281155,1.773814,-0.615240,0.607255,-0.435949,-14.217602
1790538407.5380,0.043331,-0.069018,-0.152973,0.046880,-0.072173,-0.152973,-0.906438,0.647090,-0.713585,-5.371910,-1.439808,-12.121798
1790538407.5519,0.040221,-0.056468,-0.163455,0.042219,-0.061179,-0.163455,-1.086131,0.479538,-0.672304,-2.727279,-1.997508,-8.163056
1790538407.5658,0.028371,-0.038496,-0.173352,0.032525,-0.045301,-0.173352,-1.433375,1.131532,-0.604313,-1.999048,-0.882109,-5.834385
1790538407.5797,0.020815,-0.023771,-0.175051,0.024328,-0.030230,-0.175051,-1.390881,0.915415,-0.384553,-3.110559,-3.001368,-4.398371
1790538407.5935,0.010326,-0.003800,-0.181997,0.014527,-0.011729,-0.181997,-1.523222,0.931199,-0.335987,-1.040848,-0.026969,-6.843476
1790538407.6075,0.011258,0.014058,-0.204725,0.012239,0.006322,-0.204725,-1.525650,0.032734,-0.431904,-0.619240,-5.901408,-21.281238
1790538407.6214,0.022068,-0.000687,-0.209809,0.019119,0.001416,-0.209809,0.855282,-0.834164,0.279583,0.415615,-2.703928,-17.244875
1790538407.6353,0.018629,0.000768,-0.188025,0.018776,0.000962,-0.188025,0.056377,-0.012189,0.789523,2.753622,4.397451,-8.900469
1790538407.6493,0.022076,-0.003956,-0.178543,0.021086,-0.002481,-0.178543,0.229999,-0.332723,0.779809,-0.235960,0.084571,-7.813756
1790538407.6632,0.024125,-0.016954,-0.176007,0.023213,-0.012612,-0.176007,0.903848,-0.389788,0.765240,2.408670,1.274331,-9.909560
1790538407.6771,0.009946,-0.029047,-0.169092,0.013926,-0.024116,-0.169092,0.915989,0.692013,0.889082,3.750150,2.055111,-8.357112
1790538407.6910,-0.002960,-0.034448,-0.149761,0.002106,-0.031349,-0.149761,0.429118,0.887490,0.869656,-0.350944,2.203831,-9.055714
1790538407.7046,-0.012661,-0.040374,-0.126732,-0.008231,-0.037666,-0.126732,0.463114,0.706583,0.952218,-0.772552,2.055111,-8.822846
1790538407.7181,-0.021464,-0.045780,-0.111522,-0.017494,-0.043346,-0.111522,0.406050,0.534175,0.964359,0.990535,2.166651,-10.103616
1790538407.7325,-0.030997,-0.051785,-0.093965,-0.026946,-0.049254,-0.093965,0.463114,0.539031,0.919436,1.603783,3.282051,-11.151518
1790538407.7465,-0.024911,-0.057992,-0.083918,-0.025521,-0.055370,-0.083918,0.328345,-0.536699,0.857515,1.258831,0.270471,-12.160609
1790538407.7607,-0.021394,-0.054557,-0.076614,-0.022632,-0.054801,-0.076614,-0.306652,-0.428640,0.761597,2.715294,0.939711,-10.763406
1790538407.7746,-0.014461,-0.049537,-0.072292,-0.016913,-0.051116,-0.072292,-0.528840,-0.774671,0.796807,4.248414,-0.956469,-10.724595
1790538407.7885,-0.002975,-0.040664,-0.066657,-0.007157,-0.043800,-0.066657,-0.798379,-1.029640,0.643826,2.370342,-0.807749,-8.667602
1790538407.8023,0.006410,-0.030310,-0.061594,0.002340,-0.034357,-0.061594,-0.906438,-0.873016,0.517555,2.293686,-0.882109,-8.900469
1790538407.8163,0.014136,-0.013437,-0.062110,0.010598,-0.019713,-0.062110,-1.281608,-0.809881,0.330577,2.906934,0.270471,-7.348021
1790538407.8303,0.024321,0.006576,-0.064946,0.020204,-0.001310,-0.064946,-1.435804,-0.939794,0.160597,2.446998,1.162791,-7.309210
1790538407.8441,0.011205,0.006162,-0.069070,0.013905,0.003921,-0.069070,-0.038326,0.915415,-0.197575,2.983590,0.493551,-18.021098
1790538407.8579,0.006460,-0.006582,-0.062315,0.008693,-0.003431,-0.062315,0.951200,0.681086,-0.995266,-4.490366,2.278191,-18.370399
1790538407.8718,0.020484,-0.013757,-0.059113,0.016947,-0.010659,-0.059113,0.690159,-0.688467,-1.047474,-3.225543,4.360271,-11.073895
1790538407.8856,0.012618,-0.018582,-0.084000,0.013916,-0.016205,-0.084000,0.503181,0.389692,-0.531464,3.711822,2.761531,-7.076343
1790538407.8995,0.022355,-0.034150,-0.070650,0.019824,-0.028766,-0.070650,1.081113,-0.380074,-0.683232,-4.222071,0.233291,-11.267951
1790538407.9137,0.043272,-0.052250,-0.072384,0.036237,-0.045205,-0.072384,1.348224,-1.197192,-0.966127,-3.647151,2.278191,-11.578441
1790538407.9275,0.050381,-0.060785,-0.090390,0.046138,-0.056111,-0.090390,0.858925,-0.404357,-1.131250,-0.120976,3.765391,-7.153965
1790538407.9411,0.058019,-0.064690,-0.104531,0.054455,-0.062116,-0.104531,0.446116,-0.448066,-1.047474,-0.312616,2.426911,-6.571797
1790538407.9552,0.072536,-0.074098,-0.117939,0.067111,-0.070503,-0.117939,0.601527,-0.905798,-1.057188,-0.810880,-0.064149,-9.055714
1790538407.9692,0.061664,-0.080796,-0.132838,0.063299,-0.077708,-0.132838,0.374482,0.795215,-0.870210,1.028863,-1.105189,-14.334035
1790538407.9835,0.043104,-0.071120,-0.141899,0.049162,-0.073096,-0.141899,-0.668466,1.470278,-0.740296,-3.302199,1.534591,-16.701518
1790538407.9977,0.041206,-0.054541,-0.148798,0.043593,-0.060108,-0.148798,-1.234256,0.479538,-0.644379,-7.288309,-0.659029,-13.557812
1790538408.0117,0.032196,-0.036748,-0.164182,0.035615,-0.043756,-0.164182,-1.429733,0.928771,-0.723298,-1.692424,-0.919289,-4.902916
1790538408.0258,0.009545,-0.016848,-0.189547,0.017366,-0.024921,-0.189547,-1.474656,1.515201,-0.554533,1.335487,0.010211,-3.893825
1790538408.0399,-0.007496,-0.000148,-0.194772,-0.000038,-0.007580,-0.194772,-1.021781,1.327009,-0.629809,0.185647,2.055111,-5.562707
1790538408.0540,-0.007405,0.009010,-0.197620,-0.005195,0.004033,-0.197620,-0.615044,0.193001,-0.559389,-1.615768,2.017931,-12.665154
1790538408.0680,0.003998,0.004916,-0.199024,0.001240,0.004651,-0.199024,0.208145,-0.785598,-0.043379,-0.159304,0.493551,-19.534735
1790538408.0820,-0.003671,0.006056,-0.196359,-0.002198,0.005634,-0.196359,0.021167,0.216069,0.670537,4.401726,3.653851,-8.589979
1790538408.0959,0.006046,-0.006588,-0.180099,0.003573,-0.002921,-0.180099,0.812787,-0.837806,1.051777,-0.044320,0.679451,-8.706413
1790538408.1098,0.007850,-0.023555,-0.171171,0.006567,-0.017365,-0.171171,1.078685,-0.214951,0.772525,0.032335,-0.324409,-7.542077
1790538408.1237,-0.001341,-0.032928,-0.157348,0.001031,-0.028259,-0.157348,0.750866,0.641019,0.609830,-0.235960,2.389731,-8.279490
1790538408.1376,-0.016865,-0.045193,-0.148413,-0.011496,-0.040113,-0.148413,0.835856,1.050185,0.754312,0.645583,1.237151,-13.557812
1790538408.1515,-0.029392,-0.057310,-0.131458,-0.024023,-0.052151,-0.131458,0.897777,0.798858,1.022638,0.990535,2.984611,-11.578441
1790538408.1651,-0.042226,-0.062456,-0.112964,-0.036765,-0.059364,-0.112964,0.469185,0.851066,1.004426,0.798895,2.835891,-7.503266
1790538408.1787,-0.043880,-0.069198,-0.095940,-0.041746,-0.066248,-0.095940,0.461900,0.176003,1.027494,-1.117504,1.460231,-8.163056
1790538408.1926,-0.040834,-0.074221,-0.077595,-0.041107,-0.071829,-0.077595,0.340486,-0.291442,1.032351,0.760567,2.055111,-10.103616
1790538408.2066,-0.034592,-0.076725,-0.067627,-0.036546,-0.075256,-0.067627,0.050306,-0.486919,0.880583,0.492271,-0.064149,-13.713056
1790538408.2205,-0.029128,-0.077416,-0.064678,-0.031354,-0.076768,-0.064678,-0.145171,-0.584050,0.866014,3.711822,-1.662888,-12.548721
1790538408.2352,-0.016383,-0.072626,-0.060734,-0.020874,-0.073868,-0.060734,-0.522769,-1.102489,0.850230,3.826806,-1.662888,-10.491728
1790538408.2493,-0.002677,-0.061163,-0.055264,-0.008136,-0.064974,-0.055264,-0.995070,-1.210548,0.783452,2.102047,-0.882109,-5.950818
1790538408.2633,0.003864,-0.047867,-0.048861,0.000264,-0.052999,-0.048861,-1.139553,-0.835378,0.745813,3.635166,-1.142369,-5.950818
1790538408.2773,0.009802,-0.031352,-0.040458,0.006940,-0.037846,-0.040458,-1.381167,-0.717606,0.563692,2.600310,-1.179549,-5.717951
1790538408.2911,0.020969,-0.012435,-0.032812,0.016761,-0.020059,-0.032812,-1.525650,-0.987145,0.408282,2.102047,-0.882109,-9.366203
1790538408.3049,0.022334,0.003744,-0.033603,0.020662,-0.003397,-0.033603,-1.253682,-0.280515,0.278369,2.561982,0.270471,-10.064805
1790538408.3188,0.003245,-0.010116,-0.030048,0.008470,-0.008100,-0.030048,0.784862,1.222593,-0.183005,4.823333,-3.187268,-11.811308
1790538408.3326,0.010726,-0.013215,-0.004308,0.010050,-0.011681,-0.004308,0.255496,-0.099608,-0.952771,-4.605350,1.311511,-9.482637
1790538408.3465,0.010192,-0.009903,-0.074604,0.010149,-0.010436,-0.074604,0.169292,-0.143317,-0.304419,2.561982,5.141051,-4.514804
1790538408.3604,0.010098,-0.023958,-0.071913,0.010114,-0.019902,-0.071913,0.976697,0.064302,-0.201217,-0.082648,0.753811,-13.169700
1790538408.3741,0.031502,-0.047523,-0.047371,0.025086,-0.039237,-0.047371,1.696683,-1.228760,-0.663805,-5.026958,0.790991,-12.238231
1790538408.3876,0.046106,-0.063438,-0.063547,0.039800,-0.056178,-0.063547,1.372507,-1.025998,-0.767008,0.147319,3.430771,-8.512357
1790538408.4012,0.055424,-0.070386,-0.082684,0.050737,-0.066123,-0.082684,0.770292,-0.686038,-0.776721,0.760567,4.100011,-7.386832
1790538408.4150,0.068057,-0.083185,-0.091192,0.062861,-0.078067,-0.091192,0.872280,-0.845091,-0.864139,-0.312616,-0.026969,-10.957462
1790538408.4290,0.064717,-0.095222,-0.103815,0.064160,-0.090075,-0.103815,0.852854,0.279205,-0.841070,0.070663,0.828171,-12.936833
1790538408.4429,0.043836,-0.087859,-0.120584,0.049933,-0.088524,-0.120584,-0.455991,1.461779,-0.743939,2.523654,3.244871,-16.856763
1790538408.4567,0.041806,-0.072780,-0.105689,0.044244,-0.077503,-0.105689,-1.179620,0.492894,-0.746367,-6.943357,-1.142369,-13.363756
1790538408.4708,0.043455,-0.058382,-0.100810,0.043692,-0.064118,-0.100810,-1.199046,0.220926,-0.692945,-3.723807,-1.885968,-7.153965
1790538408.4854,0.031621,-0.036529,-0.102813,0.035242,-0.044806,-0.102813,-1.557218,1.142460,-0.505967,-2.535639,-0.101329,-5.019350
1790538408.4994,0.023768,-0.013529,-0.119075,0.027210,-0.022912,-0.119075,-1.767265,1.025902,-0.593385,-2.880591,-0.659029,-3.544525
1790538408.5135,0.010289,0.005384,-0.130913,0.015366,-0.003105,-0.130913,-1.473442,1.206809,-0.526607,-1.577440,-0.733389,-6.610609
1790538408.5278,0.004728,0.018723,-0.133478,0.007919,0.012175,-0.133478,-0.936791,0.599738,-0.538749,-2.152360,1.720491,-14.760958
1790538408.5418,0.019376,0.004318,-0.142064,0.015939,0.006675,-0.142064,0.928131,-1.040568,-0.149009,0.607255,-0.101329,-21.281238
1790538408.5559,0.019670,0.003528,-0.137486,0.018551,0.004472,-0.137486,0.080660,-0.104464,0.334219,0.913879,2.389731,-11.073895
1790538408.5698,0.018444,0.001450,-0.126211,0.018476,0.002357,-0.126211,0.160793,-0.048614,0.759169,0.568927,1.832031,-8.628791
1790538408.5838,0.018522,-0.011076,-0.121542,0.018508,-0.007046,-0.121542,0.886850,-0.128747,0.540623,0.875551,1.348691,-8.667602
1790538408.5977,0.006426,-0.023748,-0.123983,0.010051,-0.018738,-0.123983,0.894135,0.666516,0.648682,2.753622,1.571771,-11.267951
1790538408.6117,-0.003920,-0.034149,-0.109728,0.000271,-0.029526,-0.109728,0.763008,0.707797,0.641397,-0.197632,2.241011,-11.229140
1790538408.6253,-0.020261,-0.041059,-0.096775,-0.014102,-0.037599,-0.096775,0.612454,1.078110,0.757955,1.335487,2.984611,-8.473546
1790538408.6388,-0.023582,-0.044099,-0.074592,-0.020738,-0.042149,-0.074592,0.311347,0.251279,0.796807,-0.695896,3.356411,-9.909560
1790538408.6528,-0.024572,-0.047662,-0.061711,-0.023422,-0.046008,-0.061711,0.248211,-0.031616,0.781024,0.952207,1.608951,-8.589979
1790538408.6666,-0.022717,-0.051094,-0.047747,-0.022929,-0.049568,-0.047747,0.276137,-0.228307,0.732458,1.105519,2.464091,-10.375294
1790538408.6803,-0.014252,-0.051944,-0.037556,-0.016855,-0.051231,-0.037556,-0.026185,-0.688467,0.793165,0.607255,0.642271,-12.277042
1790538408.6943,-0.007187,-0.044870,-0.036678,-0.010087,-0.046778,-0.036678,-0.596832,-0.738246,0.765240,3.520182,0.493551,-11.384385
1790538408.7081,-0.001156,-0.036395,-0.041223,-0.003835,-0.039510,-0.041223,-0.757098,-0.699394,0.703319,3.596838,-0.621849,-10.025993
1790538408.7220,0.010758,-0.022348,-0.039876,0.006380,-0.027496,-0.039876,-1.072775,-1.041782,0.466561,1.757095,0.493551,-7.309210
1790538408.7365,0.019799,-0.008513,-0.042889,0.015773,-0.014208,-0.042889,-1.027852,-0.841448,0.284439,2.676966,0.307651,-8.085434
1790538408.7505,0.019624,0.001574,-0.047835,0.018469,-0.003161,-0.047835,-0.712175,-0.129961,0.041611,2.638638,1.720491,-10.103616
1790538408.7645,0.008291,-0.002647,-0.061533,0.011344,-0.002801,-0.061533,0.396337,0.744221,-0.503539,3.443526,3.207691,-11.306763
1790538408.7786,0.017966,-0.008110,-0.060389,0.015980,-0.006517,-0.060389,0.454615,-0.292656,-1.219883,-3.838791,1.943571,-10.685784
1790538408.7925,0.016519,-0.017044,-0.074485,0.016358,-0.013886,-0.074485,0.611240,0.259778,-1.035333,0.147319,0.270471,-9.016902
1790538408.8064,0.021919,-0.027122,-0.072532,0.020251,-0.023152,-0.072532,0.739939,-0.174884,-0.503539,-1.999048,1.051251,-8.900469
1790538408.8203,0.032806,-0.044511,-0.079232,0.029039,-0.038103,-0.079232,1.206169,-0.618046,-0.777935,-1.577440,0.158931,-14.334035
1790538408.8343,0.044217,-0.061226,-0.090754,0.039664,-0.054289,-0.090754,1.252307,-0.630188,-1.218668,-1.309144,1.906391,-11.811308
1790538408.8479,0.056890,-0.067569,-0.109267,0.051722,-0.063585,-0.109267,0.590599,-0.934937,-1.224739,0.990535,1.757671,-5.873196
1790538408.8615,0.064924,-0.075033,-0.126944,0.060964,-0.071599,-0.126944,0.585743,-0.638687,-1.019549,1.335487,1.088431,-6.882287
1790538408.8754,0.071966,-0.090949,-0.137290,0.068665,-0.085144,-0.137290,1.072614,-0.494204,-0.682018,0.300631,-0.361589,-9.443825
1790538408.8892,0.055826,-0.088451,-0.145478,0.059678,-0.087459,-0.145478,-0.164597,1.238377,-0.614026,-1.079176,1.832031,-17.477742
1790538408.9032,0.047213,-0.077352,-0.147196,0.050953,-0.080384,-0.147196,-0.866371,0.910559,-0.711157,-5.755190,-0.770569,-13.324944
1790538408.9175,0.044726,-0.066984,-0.155541,0.046594,-0.071004,-0.155541,-0.865157,0.472253,-0.758509,-4.337055,-1.848788,-9.987182
1790538408.9315,0.031740,-0.051851,-0.171972,0.036196,-0.057597,-0.171972,-1.245183,1.149745,-0.835000,-1.347472,-1.216729,-5.873196
1790538408.9455,0.017159,-0.032661,-0.175625,0.022870,-0.040142,-0.175625,-1.279179,1.187383,-0.705086,-0.197632,0.753811,-3.117602
1790538408.9595,0.015749,-0.015314,-0.190403,0.017885,-0.022763,-0.190403,-1.420020,0.403047,-0.547248,-2.957247,-1.811608,-7.503266
1790538408.9736,0.005391,0.005195,-0.210662,0.009139,-0.003192,-0.210662,-1.569359,0.823140,-0.527822,0.415615,-0.882109,-13.402567
1790538408.9880,0.009696,0.008946,-0.216743,0.009529,0.005305,-0.216743,-0.367359,-0.094751,-0.553319,-2.803935,-1.142369,-17.167252
1790538409.0022,0.017823,0.001324,-0.247698,0.015335,0.002518,-0.247698,0.538391,-0.959220,0.137528,3.750150,1.014071,-5.135783
1790538409.0161,0.013314,-0.006140,-0.251644,0.013921,-0.003542,-0.251644,0.527464,0.074015,0.561264,2.255358,1.199971,-7.115154
1790538409.0302,0.017129,-0.017558,-0.242360,0.016166,-0.013353,-0.242360,0.823715,-0.298727,0.357288,-0.044320,1.460231,-8.240679
1790538409.0444,0.012095,-0.028638,-0.246218,0.013316,-0.024052,-0.246218,0.782434,0.209999,0.296581,2.408670,1.571771,-10.996273
1790538409.0583,0.001598,-0.041928,-0.242550,0.005113,-0.036565,-0.242550,0.971840,0.693227,0.382785,1.143847,2.315371,-14.139979
1790538409.0721,-0.014897,-0.053075,-0.235832,-0.008894,-0.048122,-0.235832,0.855282,1.104821,0.577048,1.488799,2.538451,-11.500819
1790538409.0857,-0.026359,-0.057182,-0.205670,-0.021119,-0.054464,-0.205670,0.464329,0.892346,0.579476,-0.504256,2.984611,-6.998721
1790538409.0992,-0.027640,-0.060936,-0.188602,-0.025684,-0.058994,-0.188602,0.310133,0.125009,0.572191,-0.427600,1.757671,-8.279490
1790538409.1130,-0.028950,-0.067059,-0.176061,-0.027970,-0.064640,-0.176061,0.429118,0.078871,0.634112,0.147319,1.162791,-8.395923
1790538409.1270,-0.023549,-0.069331,-0.164910,-0.024876,-0.067924,-0.164910,0.104943,-0.388573,0.595260,-0.082648,0.939711,-14.566903
1790538409.1410,-0.010748,-0.066647,-0.156070,-0.014987,-0.067030,-0.156070,-0.247159,-1.038139,0.754312,1.987063,1.125611,-12.975644
1790538409.1548,-0.004982,-0.061795,-0.154434,-0.007983,-0.063365,-0.154434,-0.469347,-0.642329,0.767668,3.558510,-0.361589,-11.229140
1790538409.1687,0.004018,-0.056907,-0.146022,0.000418,-0.058844,-0.146022,-0.554337,-0.715178,0.692391,0.223975,-0.956469,-5.291028
1790538409.1826,0.011148,-0.046875,-0.143685,0.007929,-0.050466,-0.143685,-0.726745,-0.643543,0.439850,1.258831,0.939711,-7.115154
1790538409.1964,0.017227,-0.034112,-0.149303,0.014438,-0.039018,-0.149303,-0.988999,-0.619260,0.131458,3.366870,0.196111,-11.190329
1790538409.2103,0.028324,-0.014314,-0.155935,0.024158,-0.021725,-0.155935,-1.401808,-0.995644,-0.128369,3.826806,1.832031,-10.064805
1790538409.2242,0.025573,-0.001917,-0.163806,0.025148,-0.007860,-0.163806,-0.957432,0.111653,-0.293492,2.523654,0.233291,-10.530539
1790538409.2387,0.010687,-0.006382,-0.181718,0.015026,-0.006826,-0.181718,0.333201,1.112106,-0.855640,1.987063,2.092291,-15.575993
1790538409.2529,0.020972,-0.018294,-0.191004,0.019188,-0.014853,-0.191004,0.953628,-0.508773,-1.147034,-0.695896,2.241011,-8.512357
1790538409.2674,0.015800,-0.022661,-0.193337,0.016816,-0.020319,-0.193337,0.569959,0.302273,-0.628595,1.565455,3.133331,-4.670049
1790538409.2830,0.020067,-0.037220,-0.197324,0.019092,-0.032150,-0.197324,0.922060,-0.116606,-0.688088,-1.539112,0.790991,-14.566903
1790538409.2973,0.040279,-0.045598,-0.200738,0.033923,-0.041563,-0.200738,0.709585,-1.186265,-0.970983,-2.382327,3.244871,-10.841028
1790538409.3113,0.050915,-0.053720,-0.217149,0.045818,-0.050073,-0.217149,0.690159,-0.658113,-1.198028,0.185647,1.869211,-6.610609
1790538409.3263,0.058649,-0.059692,-0.229850,0.054799,-0.056806,-0.229850,0.563888,-0.512416,-0.899349,0.722239,2.166651,-5.135783
1790538409.3404,0.066832,-0.072008,-0.239911,0.063222,-0.067447,-0.239911,0.811573,-0.540341,-0.837428,0.262303,-0.026969,-7.774944
1790538409.3542,0.065181,-0.081328,-0.248635,0.064593,-0.077164,-0.248635,0.602741,0.105582,-0.723298,1.182175,-0.398769,-12.199420
1790538409.3682,0.044558,-0.075095,-0.261672,0.050568,-0.075715,-0.261672,-0.400141,1.535842,-0.745153,-0.120976,3.133331,-19.806413
1790538409.3820,0.040078,-0.058554,-0.262464,0.043225,-0.063702,-0.262464,-1.240327,0.576670,-0.683232,-4.567022,0.010211,-14.217602
1790538409.3961,0.038541,-0.038922,-0.250820,0.039946,-0.046356,-0.250820,-1.617925,0.534175,-0.741511,-2.152360,-1.142369,-3.039979
1790538409.4100,0.024936,-0.021570,-0.264783,0.029439,-0.029006,-0.264783,-1.491654,1.126676,-0.514466,-0.695896,-1.923148,-6.067252
1790538409.4239,0.009527,-0.005976,-0.270082,0.015500,-0.012885,-0.270082,-1.083703,1.310011,-0.648022,-0.734224,0.939711,-5.834385
1790538409.4379,0.000335,0.012295,-0.274167,0.004885,0.004741,-0.274167,-1.083703,0.803714,-0.614026,-0.235960,4.137191,-8.085434
1790538409.4519,0.015400,0.002740,-0.280512,0.012245,0.003340,-0.280512,0.515323,-0.925224,-0.281351,-3.647151,-2.964188,-21.281238
1790538409.4658,0.006006,0.000747,-0.282764,0.007878,0.001525,-0.282764,0.236070,0.428544,0.505413,3.788478,3.691031,-10.336483
1790538409.4799,0.008383,-0.005248,-0.261953,0.008232,-0.003216,-0.261953,0.406050,-0.230735,1.067561,-1.347472,2.129471,-10.918651
1790538409.4943,0.029489,-0.013053,-0.249027,0.023112,-0.010102,-0.249027,0.362341,-1.364744,0.698462,-1.654096,-0.621849,-4.475993
1790538409.5083,0.022208,-0.025148,-0.257259,0.022479,-0.020634,-0.257259,0.846783,0.196643,0.637755,4.286742,1.162791,-9.366203
1790538409.5223,0.004856,-0.042595,-0.252530,0.010143,-0.036007,-0.252530,1.229238,1.095108,0.732458,2.140375,1.534591,-13.557812
1790538409.5360,-0.011881,-0.056738,-0.235912,-0.005274,-0.050518,-0.235912,1.082327,1.165528,0.958288,0.070663,2.649991,-10.530539
1790538409.5496,-0.027282,-0.060587,-0.212946,-0.020680,-0.057566,-0.212946,0.391480,1.157029,0.953432,-0.925864,3.207691,-8.512357
1790538409.5633,-0.034511,-0.065881,-0.197017,-0.030361,-0.063386,-0.197017,0.346557,0.495322,0.999569,0.032335,1.348691,-9.560259
1790538409.5772,-0.032435,-0.071427,-0.178447,-0.031813,-0.069015,-0.178447,0.416977,-0.180955,0.937648,0.070663,2.166651,-8.861658
1790538409.5912,-0.026514,-0.069497,-0.165674,-0.028104,-0.069352,-0.165674,-0.199807,-0.571909,0.937648,2.830278,1.571771,-14.489280
1790538409.6050,-0.019960,-0.065276,-0.157937,-0.022403,-0.066499,-0.157937,-0.472989,-0.700608,1.063919,3.673494,-0.733389,-12.471098
1790538409.6189,-0.012141,-0.061756,-0.153451,-0.015220,-0.063179,-0.153451,-0.486345,-0.800168,1.000783,3.711822,-2.332128,-11.811308
1790538409.6329,-0.000890,-0.053762,-0.148732,-0.005189,-0.056587,-0.148732,-0.727959,-1.062422,0.804092,3.021918,-0.770569,-8.395923
1790538409.6468,0.004897,-0.041222,-0.147511,0.001871,-0.045831,-0.147511,-1.083703,-0.761315,0.502985,3.711822,-1.216729,-6.183686
1790538409.6608,0.011856,-0.023453,-0.147375,0.008860,-0.030166,-0.147375,-1.309533,-0.745531,0.441064,2.140375,0.605091,-5.873196
1790538409.6747,0.024717,-0.007831,-0.140875,0.019960,-0.014532,-0.140875,-1.242755,-1.197192,0.409496,3.635166,-0.361589,-9.443825
1790538409.6886,0.018851,0.001136,-0.146584,0.019183,-0.003564,-0.146584,-0.634470,0.287704,0.098676,3.021918,2.166651,-12.781588
1790538409.7025,0.010064,-0.005068,-0.155746,0.012800,-0.004617,-0.155746,0.413335,0.637377,-0.550890,3.290214,0.976891,-18.253966
1790538409.7164,0.016202,-0.010048,-0.168077,0.015181,-0.008418,-0.168077,0.704729,-0.252590,-0.990410,-0.427600,4.843611,-5.989630
1790538409.7303,0.009567,-0.008163,-0.175303,0.011251,-0.008239,-0.175303,0.192361,0.333841,-0.309276,2.063719,3.765391,-4.243126
1790538409.7448,0.011264,-0.024534,-0.172610,0.011260,-0.019646,-0.172610,1.101753,0.023021,-0.293492,-1.615768,0.679451,-12.044175
1790538409.7589,0.031264,-0.042155,-0.181057,0.025263,-0.035403,-0.181057,1.372507,-1.148626,-0.881137,-2.995575,2.984611,-10.142427
1790538409.7725,0.040660,-0.053132,-0.197746,0.036041,-0.047813,-0.197746,1.015549,-0.695751,-0.973412,1.182175,2.798711,-6.222497
1790538409.7863,0.050449,-0.060302,-0.206929,0.046127,-0.056555,-0.206929,0.611240,-0.797739,-0.873852,1.910407,1.646131,-6.649420
1790538409.8003,0.059221,-0.072347,-0.208897,0.055293,-0.067610,-0.208897,0.771507,-0.632616,-0.838642,0.913879,-0.435949,-7.969000
1790538409.8141,0.065839,-0.086147,-0.219451,0.062675,-0.080586,-0.219451,1.011907,-0.410428,-0.651664,-0.504256,1.014071,-9.793126
1790538409.8281,0.042718,-0.081957,-0.237532,0.048705,-0.081546,-0.237532,-0.226518,1.739818,-0.794933,-0.580912,3.356411,-17.050819
1790538409.8420,0.035274,-0.067787,-0.238762,0.039303,-0.071915,-0.238762,-1.097058,0.880205,-0.900563,-8.093197,-1.216729,-16.662707
1790538409.8558,0.036741,-0.051156,-0.233185,0.037510,-0.057384,-0.233185,-1.383596,0.287704,-0.803432,-5.640206,-2.666748,-9.133336
1790538409.8698,0.022622,-0.029656,-0.242123,0.027088,-0.037975,-0.242123,-1.751481,1.023474,-0.855640,0.875551,-1.291089,-4.708860
1790538409.8837,0.008071,-0.006450,-0.253359,0.013776,-0.015908,-0.253359,-1.694416,1.200739,-0.821644,-0.082648,0.382011,-7.192776
1790538409.8976,-0.002713,0.009875,-0.260125,0.002234,0.002140,-0.260125,-1.257325,1.123033,-0.781577,-2.190688,-0.435949,-6.882287
1790538409.9116,0.011121,-0.000097,-0.264461,0.008455,0.000574,-0.264461,0.601527,-0.837806,-0.600670,-1.385800,-1.328269,-19.301868
1790538409.9256,0.005736,-0.007002,-0.265691,0.006552,-0.004729,-0.265691,0.478898,0.287704,0.207949,1.833751,1.534591,-11.539630
1790538409.9396,0.008655,-0.007665,-0.257136,0.008024,-0.006784,-0.257136,0.101300,-0.319367,0.694820,0.492271,2.575631,-8.822846
1790538409.9535,0.011062,-0.020068,-0.249760,0.010151,-0.016083,-0.249760,0.764222,-0.399501,0.810163,1.603783,-0.212869,-7.192776
1790538409.9675,0.002633,-0.034080,-0.244730,0.004888,-0.028681,-0.244730,1.010693,0.464968,0.672965,1.335487,1.608951,-9.210958
1790538409.9817,-0.009615,-0.048946,-0.236596,-0.005264,-0.042866,-0.236596,1.007050,0.722367,0.822304,1.987063,1.423051,-13.480189
1790538409.9963,-0.025838,-0.061425,-0.227262,-0.019666,-0.055857,-0.227262,0.901420,1.019831,0.958288,0.760567,2.575631,-9.249770
1790538410.0101,-0.035009,-0.064187,-0.217979,-0.030406,-0.061688,-0.217979,0.345343,0.650732,0.963145,-0.197632,3.579491,-7.542077
1790538410.0238,-0.036235,-0.073366,-0.204075,-0.034487,-0.069862,-0.204075,0.635523,0.066730,1.016567,-0.120976,1.534591,-9.172147
1790538410.0379,-0.027713,-0.077003,-0.189126,-0.029745,-0.074861,-0.189126,0.160793,-0.688467,0.999569,0.952207,0.605091,-11.306763
1790538410.0520,-0.023587,-0.074480,-0.175069,-0.025435,-0.074594,-0.175069,-0.287225,-0.421355,0.968001,2.102047,0.233291,-12.548721
1790538410.0661,-0.017225,-0.070240,-0.159076,-0.019688,-0.071547,-0.159076,-0.455991,-0.655685,1.078488,2.485326,-0.473129,-9.366203
1790538410.0800,-0.012592,-0.062009,-0.144317,-0.014721,-0.064870,-0.144317,-0.761955,-0.599834,1.022638,3.558510,-0.844929,-9.599070
1790538410.0939,-0.000598,-0.048627,-0.131239,-0.004835,-0.053500,-0.131239,-1.103129,-1.070921,0.789523,3.060246,-0.696209,-11.112707
1790538410.1079,0.007909,-0.032096,-0.124479,0.004086,-0.038517,-0.124479,-1.311961,-0.882729,0.517555,3.711822,-0.547489,-8.939280
1790538410.1218,0.017473,-0.013373,-0.120828,0.013457,-0.020916,-0.120828,-1.423662,-0.871802,0.269870,2.102047,0.233291,-7.736133
1790538410.1357,0.024321,0.003748,-0.125308,0.021061,-0.003651,-0.125308,-1.243969,-0.696966,0.091391,2.408670,0.902531,-6.959909
1790538410.1497,0.014458,-0.004610,-0.118518,0.016439,-0.004322,-0.118518,0.554175,0.933627,-0.436761,-3.417183,0.865351,-16.391028
1790538410.1636,0.015583,-0.018236,-0.123214,0.015840,-0.014062,-0.123214,1.008264,0.234281,-1.020763,-4.145415,2.092291,-16.507462
1790538410.1778,0.015198,-0.015998,-0.152025,0.015391,-0.015417,-0.152025,0.102514,0.099512,-0.652878,0.338959,3.467951,-5.912007
1790538410.1917,0.017198,-0.025169,-0.147186,0.016656,-0.022243,-0.147186,0.607597,0.019378,-0.308062,-1.539112,0.270471,-9.133336
1790538410.2056,0.029316,-0.043597,-0.147175,0.025518,-0.037191,-0.147175,1.302087,-0.587693,-0.793719,-3.838791,0.493551,-12.393476
1790538410.2196,0.045205,-0.055502,-0.162105,0.039299,-0.050009,-0.162105,1.076256,-0.807452,-0.878709,-3.340527,3.505131,-6.649420
1790538410.2333,0.051225,-0.060456,-0.181257,0.047647,-0.057322,-0.181257,0.554175,-0.400715,-0.969769,0.683911,3.505131,-8.163056
1790538410.2472,0.059201,-0.065374,-0.195650,0.055735,-0.062959,-0.195650,0.402407,-0.522129,-0.960056,0.300631,1.199971,-6.727042
1790538410.2614,0.069512,-0.076594,-0.209663,0.065379,-0.072503,-0.209663,0.798218,-0.743103,-1.008622,1.335487,1.051251,-10.064805
1790538410.2754,0.059924,-0.086544,-0.219822,0.061561,-0.082332,-0.219822,0.589385,0.633734,-0.969769,3.060246,-1.737248,-15.886483
1790538410.2893,0.043978,-0.068432,-0.232445,0.049252,-0.072602,-0.232445,-1.291321,1.283300,-0.811931,-2.152360,2.055111,-19.030189
1790538410.3032,0.047953,-0.052013,-0.233531,0.048343,-0.058189,-0.233531,-1.382382,0.089799,-0.790076,-3.953775,-2.109048,-6.649420
1790538410.3172,0.035040,-0.030085,-0.243051,0.039031,-0.038516,-0.243051,-1.722341,1.114534,-0.768222,-0.580912,-0.584669,-3.855014
1790538410.3310,0.021948,-0.010470,-0.256830,0.027073,-0.018884,-0.256830,-1.659206,1.093894,-0.748795,-0.197632,-1.402628,-4.475993
1790538410.3449,0.007148,0.002670,-0.265062,0.013126,-0.003796,-0.265062,-1.003569,1.225021,-0.627381,-0.350944,0.084571,-7.619700
1790538410.3589,0.007788,0.008072,-0.266420,0.009389,0.004512,-0.266420,-0.373429,0.163861,-0.555747,-1.999048,1.794851,-12.703965
1790538410.3728,0.016652,0.001357,-0.267585,0.014473,0.002303,-0.267585,0.381767,-0.576765,-0.185433,-0.619240,-0.398769,-21.281238
1790538410.3869,0.013171,0.002135,-0.268566,0.013562,0.002186,-0.268566,0.034522,0.093441,0.442278,1.373815,2.464091,-7.192776
1790538410.4009,0.018158,-0.006655,-0.260531,0.016779,-0.004003,-0.260531,0.613668,-0.582836,0.909723,1.603783,1.646131,-9.133336
1790538410.4147,0.022585,-0.021317,-0.255844,0.020843,-0.016123,-0.255844,0.953628,-0.514844,0.714246,1.220503,-0.064149,-6.959909
1790538410.4286,0.014621,-0.028599,-0.259386,0.016488,-0.024856,-0.259386,0.574816,0.339912,0.612258,3.060246,2.352551,-9.870749
1790538410.4426,0.001758,-0.038517,-0.252548,0.006177,-0.034419,-0.252548,0.682874,0.801286,0.744599,1.450471,1.497411,-13.324944
1790538410.4561,-0.012434,-0.050214,-0.244967,-0.006850,-0.045475,-0.244967,0.847998,0.861993,1.049349,1.603783,1.199971,-8.007811
1790538410.4697,-0.025322,-0.051457,-0.232341,-0.019780,-0.049662,-0.232341,0.242141,0.880205,1.052991,0.147319,3.802571,-7.774944
1790538410.4835,-0.029613,-0.054264,-0.216631,-0.026663,-0.052883,-0.216631,0.202074,0.258564,1.093058,-0.082648,1.794851,-7.619700
1790538410.4980,-0.030484,-0.057748,-0.199137,-0.029338,-0.056288,-0.199137,0.193575,0.026663,1.067561,-0.350944,1.571771,-9.870749
1790538410.5120,-0.022569,-0.061179,-0.182794,-0.024600,-0.059712,-0.182794,0.108585,-0.613190,0.937648,0.108991,-0.138509,-14.566903
1790538410.5267,-0.009939,-0.053971,-0.171737,-0.014337,-0.055694,-0.171737,-0.577405,-1.075778,0.900010,4.056774,0.865351,-14.411658
1790538410.5408,0.001246,-0.045540,-0.158579,-0.003429,-0.048586,-0.158579,-0.795951,-1.083063,0.821090,4.440053,-1.811608,-10.724595
1790538410.5547,0.010115,-0.033676,-0.150379,0.006052,-0.038149,-0.150379,-1.008426,-0.987145,0.638969,4.018446,-0.919289,-7.192776
1790538410.5688,0.021418,-0.019684,-0.143219,0.016808,-0.025223,-0.143219,-1.098272,-0.990788,0.432565,1.718767,-0.138509,-6.998721
1790538410.5827,0.029355,-0.005794,-0.139955,0.025591,-0.011623,-0.139955,-1.095844,-0.839020,0.393712,2.791950,-0.026969,-7.464455
1790538410.5965,0.027135,0.001835,-0.144016,0.026672,-0.002202,-0.144016,-0.570120,0.053374,0.042825,2.523654,1.608951,-13.363756
1790538410.6105,0.020078,-0.007450,-0.146047,0.022056,-0.005876,-0.146047,0.588171,0.625235,-0.739082,0.568927,-0.175689,-18.292777
1790538410.6244,0.021000,-0.019940,-0.155951,0.021317,-0.015721,-0.155951,0.948771,0.220926,-1.278161,-1.960720,2.017931,-13.130889
1790538410.6382,0.019548,-0.019766,-0.193462,0.020079,-0.018553,-0.193462,0.301634,0.032734,-0.586100,1.680439,3.765391,-5.213406
1790538410.6523,0.025910,-0.032261,-0.188431,0.024161,-0.028149,-0.188431,0.863781,-0.265945,-0.526607,-2.382327,0.865351,-13.441378
1790538410.6661,0.049633,-0.053309,-0.177703,0.041991,-0.045761,-0.177703,1.529131,-1.339247,-0.998909,-5.525222,1.237151,-11.345574
1790538410.6800,0.058218,-0.063691,-0.207724,0.053350,-0.058312,-0.207724,0.990052,-0.546412,-1.147034,0.300631,4.174371,-7.813756
1790538410.6936,0.067534,-0.068679,-0.229033,0.063279,-0.065569,-0.229033,0.480112,-0.641115,-1.075400,0.453943,2.426911,-8.318301
1790538410.7071,0.076025,-0.081211,-0.235980,0.072201,-0.076518,-0.235980,0.792147,-0.535485,-1.171317,-0.274288,-0.882109,-8.551168
1790538410.7209,0.087036,-0.097678,-0.251604,0.082586,-0.091330,-0.251604,1.231666,-0.800168,-0.802218,0.453943,1.460231,-8.822846
1790538410.7350,0.062888,-0.104623,-0.258206,0.068797,-0.100635,-0.258206,0.379339,1.574694,-0.881137,5.168285,-1.662888,-16.235784
1790538410.7494,0.055220,-0.091129,-0.258554,0.059293,-0.093980,-0.258554,-0.986571,0.819498,-0.958842,-6.100142,-0.138509,-13.907112
1790538410.7634,0.057992,-0.076701,-0.254000,0.058382,-0.081885,-0.254000,-1.191761,0.115296,-0.906634,-5.141942,-2.257768,-11.035084
1790538410.7773,0.053637,-0.057112,-0.258215,0.055060,-0.064544,-0.258215,-1.610640,0.659231,-0.981911,-3.187215,-1.774428,-6.610609
1790538410.7911,0.046198,-0.035998,-0.263745,0.048857,-0.044562,-0.263745,-1.711414,0.749078,-0.666234,-1.385800,-1.253909,-6.067252
1790538410.8050,0.040424,-0.018796,-0.275260,0.042954,-0.026526,-0.275260,-1.492868,0.769718,-0.679589,-1.960720,-1.439808,-3.971448
1790538410.8188,0.018629,-0.003613,-0.292032,0.025926,-0.010487,-0.292032,-1.075204,1.682753,-0.827715,0.645583,1.385871,-9.133336
1790538410.8326,0.013230,0.005183,-0.296115,0.017039,0.000482,-0.296115,-0.700034,0.616736,-0.685660,-2.152360,0.084571,-14.605714
1790538410.8464,0.022530,-0.003446,-0.297308,0.020883,-0.002268,-0.297308,0.512894,-0.575551,-0.271638,-1.615768,-0.993649,-21.281238
1790538410.8603,0.019741,-0.005744,-0.298952,0.020084,-0.004701,-0.298952,0.229999,0.098298,0.311151,1.258831,2.724351,-10.025993
1790538410.8742,0.023298,-0.008136,-0.303650,0.022334,-0.007105,-0.303650,0.215429,-0.540341,0.834446,2.178703,1.980751,-7.464455
1790538410.8881,0.032276,-0.015636,-0.293049,0.029294,-0.013077,-0.293049,0.525036,-0.662970,0.402211,-0.274288,0.642271,-4.980539
1790538410.9019,0.021355,-0.026063,-0.306678,0.023737,-0.022167,-0.306678,0.758151,0.528104,0.515126,3.903462,1.534591,-10.763406
1790538410.9155,0.007217,-0.040680,-0.305656,0.012173,-0.035126,-0.305656,1.090826,0.897203,0.631684,1.948735,2.166651,-12.548721
1790538410.9292,-0.008506,-0.053790,-0.301763,-0.002302,-0.048191,-0.301763,1.066543,1.006476,0.832018,1.450471,3.058971,-8.822846
1790538410.9429,-0.019087,-0.056556,-0.289971,-0.014052,-0.054046,-0.289971,0.324702,0.716296,0.870870,0.185647,2.873071,-7.153965
1790538410.9568,-0.020817,-0.062150,-0.275700,-0.018787,-0.059719,-0.275700,0.402407,0.091013,0.883012,-0.044320,1.311511,-6.804665
1790538410.9709,-0.008096,-0.067552,-0.258177,-0.011303,-0.065202,-0.258177,0.245783,-0.961648,0.971644,0.108991,-0.398769,-11.850119
1790538410.9852,0.004210,-0.062693,-0.251750,-0.000444,-0.063446,-0.251750,-0.426852,-1.103703,0.904866,4.248414,0.307651,-13.247322
1790538410.9997,0.010477,-0.053123,-0.242967,0.007200,-0.056219,-0.242967,-0.776525,-0.795311,1.084559,5.513237,-0.510309,-10.142427
1790538411.0138,0.019970,-0.037221,-0.234180,0.016139,-0.042921,-0.234180,-1.197832,-1.102489,1.012925,4.746677,0.419191,-7.464455
1790538411.0277,0.036411,-0.021394,-0.220651,0.030329,-0.027852,-0.220651,-1.211187,-1.304037,0.672965,0.492271,0.270471,-7.386832
1790538411.0417,0.040122,-0.005714,-0.223312,0.037184,-0.012355,-0.223312,-1.089773,-0.569481,0.499343,3.060246,1.460231,-7.231588
1790538411.0557,0.026055,-0.011328,-0.235578,0.029394,-0.011636,-0.235578,0.506824,0.783074,0.071965,4.785005,3.728211,-11.306763
1790538411.0696,0.037195,-0.015420,-0.223817,0.034855,-0.014284,-0.223817,0.391480,-0.456565,-0.767008,-4.682006,3.356411,-10.802217
1790538411.0835,0.042513,-0.021595,-0.234491,0.040216,-0.019402,-0.234491,0.476470,-0.242876,-0.805860,-0.580912,1.980751,-11.423196
1790538411.0975,0.040117,-0.027461,-0.245813,0.040146,-0.025044,-0.245813,0.454615,0.052160,-0.379696,2.868606,1.683311,-9.560259
1790538411.1114,0.052914,-0.041825,-0.238742,0.049083,-0.036790,-0.238742,0.996123,-0.715178,-0.516894,-3.110559,0.679451,-12.393476
1790538411.1253,0.062770,-0.062418,-0.244069,0.058664,-0.054730,-0.244069,1.442927,-0.553697,-0.867781,-1.270816,0.419191,-9.870749
1790538411.1393,0.073177,-0.077164,-0.264988,0.068823,-0.070434,-0.264988,1.174602,-0.585264,-1.208955,-0.887536,2.055111,-6.455364
1790538411.1528,0.083272,-0.083066,-0.288506,0.078937,-0.079276,-0.288506,0.560246,-0.806238,-1.076614,1.335487,2.278191,-7.076343
1790538411.1664,0.085435,-0.092175,-0.305160,0.083485,-0.088305,-0.305160,0.680446,-0.261089,-1.063258,1.948735,1.088431,-7.930189
1790538411.1804,0.081376,-0.102187,-0.314633,0.082009,-0.098023,-0.314633,0.625810,0.282847,-1.008622,1.067191,-0.584669,-14.334035
1790538411.1943,0.069123,-0.098323,-0.326876,0.072989,-0.098233,-0.326876,-0.311508,0.949411,-0.924846,-0.849208,0.567911,-14.877392
1790538411.2084,0.062178,-0.086989,-0.325353,0.065422,-0.090363,-0.325353,-0.910080,0.700512,-0.872638,-3.532167,-1.030829,-12.859210
1790538411.2224,0.059103,-0.072563,-0.314144,0.060998,-0.077903,-0.314144,-1.223329,0.518391,-0.929703,-2.842263,-1.662888,-6.727042
1790538411.2363,0.048215,-0.054552,-0.315608,0.052050,-0.061557,-0.315608,-1.457658,0.960338,-0.828929,-1.232488,-1.291089,-7.503266
1790538411.2506,0.040985,-0.033743,-0.318723,0.044304,-0.042087,-0.318723,-1.528079,0.694441,-0.678375,-1.232488,-0.064149,-6.921098
1790538411.2646,0.031726,-0.013219,-0.322676,0.035500,-0.021880,-0.322676,-1.577858,0.835282,-0.646807,-1.117504,-0.547489,-9.754315
1790538411.2786,0.025263,0.004616,-0.326428,0.028334,-0.003333,-0.326428,-1.421234,0.723581,-0.651664,-2.803935,-1.551348,-11.384385
1790538411.2925,0.033538,0.015102,-0.326946,0.031977,0.009572,-0.326946,-0.829947,-0.492990,-0.379696,-1.155832,0.642271,-19.069001
1790538411.3063,0.037450,0.006832,-0.339802,0.035808,0.007654,-0.339802,0.476470,-0.468707,0.186094,3.980118,-0.770569,-16.080539
1790538411.3205,0.034826,-0.000201,-0.337336,0.035120,0.002155,-0.337336,0.516537,0.032734,0.621971,0.952207,1.757671,-8.861658
1790538411.3344,0.033814,0.000730,-0.353352,0.034206,0.001157,-0.353352,0.214215,-0.064397,0.493272,0.415615,2.426911,-3.272846
1790538411.3489,0.026183,-0.004121,-0.368441,0.028590,-0.002538,-0.368441,0.362341,0.179645,0.380357,5.973173,1.980751,-9.909560
1790538411.3643,0.012575,-0.017925,-0.364909,0.017380,-0.013309,-0.364909,0.851640,0.681086,0.611044,2.868606,0.790991,-10.724595
1790538411.3786,0.000597,-0.027429,-0.358727,0.005632,-0.023193,-0.358727,0.769078,0.818284,0.713032,-0.619240,3.133331,-8.628791
1790538411.3926,-0.002575,-0.028141,-0.353277,-0.000113,-0.026656,-0.353277,0.206930,0.226997,0.625613,-0.695896,3.876931,-8.357112
1790538411.4077,-0.002753,-0.031788,-0.343754,-0.001961,-0.030249,-0.343754,0.239712,-0.071682,0.740957,0.377287,1.720491,-9.249770
1790538411.4219,-0.008383,-0.034326,-0.338550,-0.006457,-0.033103,-0.338550,0.211787,0.182073,0.782238,2.332014,2.055111,-8.357112
1790538411.4357,-0.004442,-0.038434,-0.332697,-0.005046,-0.036835,-0.332697,0.351413,-0.375218,0.719102,0.607255,2.649991,-9.754315
1790538411.4499,0.001164,-0.032333,-0.321865,-0.000699,-0.033684,-0.321865,-0.402569,-0.654471,0.883012,4.478381,3.430771,-13.596623
1790538411.4639,0.007846,-0.020954,-0.308248,0.005282,-0.024773,-0.308248,-0.857872,-0.715178,0.765240,2.983590,1.274331,-10.685784
1790538411.4778,0.012588,-0.011896,-0.283629,0.010396,-0.015759,-0.283629,-0.798379,-0.625331,0.528482,3.596838,-0.547489,-8.784035
1790538411.4921,0.015120,-0.005319,-0.279116,0.013703,-0.008451,-0.279116,-0.491201,-0.326652,0.248015,2.178703,1.051251,-9.560259
1790538411.5068,0.013900,-0.008289,-0.280136,0.013841,-0.008337,-0.280136,0.191147,0.103154,-0.169650,0.568927,1.423051,-12.393476
1790538411.5210,0.019408,-0.011902,-0.289416,0.017738,-0.010833,-0.289416,0.306490,-0.142103,-0.868995,-1.999048,2.017931,-10.879840
1790538411.5349,0.022556,-0.018987,-0.303208,0.021111,-0.016541,-0.303208,0.557818,0.035162,-1.149462,-1.309144,1.423051,-8.784035
1790538411.5489,0.021853,-0.023618,-0.320901,0.021630,-0.021495,-0.320901,0.430333,-0.051042,-0.737868,2.791950,1.943571,-7.270399
1790538411.5630,0.035359,-0.031949,-0.323832,0.031240,-0.028813,-0.323832,0.582100,-0.749174,-0.750010,-2.114032,0.865351,-10.608161
1790538411.5769,0.043749,-0.048989,-0.327189,0.039996,-0.042936,-0.327189,1.130893,-0.463850,-0.994052,-0.504256,-0.659029,-12.277042
1790538411.5908,0.053243,-0.054343,-0.362724,0.049269,-0.050921,-0.362724,0.641593,-0.573123,-1.276947,0.147319,4.174371,-7.464455
1790538411.6044,0.061787,-0.057439,-0.381620,0.058031,-0.055483,-0.381620,0.288278,-0.647186,-1.200456,1.833751,1.869211,-8.939280
1790538411.6179,0.062695,-0.065365,-0.391369,0.061296,-0.062400,-0.391369,0.529892,0.042447,-1.018335,-0.504256,0.233291,-12.044175
1790538411.6315,0.071403,-0.074534,-0.397620,0.068371,-0.070894,-0.397620,0.616096,-0.551268,-0.803432,-0.619240,0.084571,-9.870749
1790538411.6456,0.060521,-0.080873,-0.406451,0.062876,-0.077880,-0.406451,0.459472,0.747864,-0.487755,1.335487,1.423051,-14.217602
1790538411.6597,0.042890,-0.077099,-0.414610,0.048886,-0.077333,-0.414610,-0.265371,1.398644,-0.522965,-2.420655,1.199971,-14.644525
1790538411.6736,0.034899,-0.064283,-0.416927,0.039095,-0.068198,-0.416927,-0.933149,0.869278,-0.629809,-5.141942,0.679451,-12.354665
1790538411.6875,0.025421,-0.053729,-0.407977,0.029523,-0.058070,-0.407977,-0.970787,0.834068,-0.621311,-0.734224,-1.588528,-5.717951
1790538411.7014,0.015247,-0.037721,-0.403688,0.019530,-0.043826,-0.403688,-1.293749,0.995549,-0.425834,-1.615768,-0.733389,-4.941727
1790538411.7152,0.006718,-0.024563,-0.401810,0.010562,-0.030342,-0.401810,-1.071561,0.648304,-0.149009,0.185647,-0.621849,-7.037532
1790538411.7292,0.002772,-0.011244,-0.398183,0.005109,-0.016973,-0.398183,-1.024210,0.500179,-0.162365,-3.072231,0.010211,-10.996273
1790538411.7431,0.008202,-0.003001,-0.393469,0.007274,-0.007193,-0.393469,-0.675751,-0.242876,-0.072518,-2.305671,0.084571,-12.160609
1790538411.7577,0.018084,-0.008505,-0.385767,0.014841,-0.008111,-0.385767,0.251854,-0.779527,0.478702,0.722239,-0.398769,-10.258860
1790538411.7716,0.017359,-0.020818,-0.382091,0.016604,-0.017006,-0.382091,0.792147,-0.211309,0.896367,2.791950,0.233291,-10.646972
1790538411.7856,0.018526,-0.030467,-0.383104,0.017949,-0.026429,-0.383104,0.801860,-0.284157,0.756741,1.718767,2.910251,-8.163056
1790538411.7995,0.017729,-0.038265,-0.372589,0.017795,-0.034714,-0.372589,0.535963,0.151720,0.329363,-1.845736,0.902531,-9.948371
1790538411.8135,0.008125,-0.045643,-0.373011,0.011026,-0.042364,-0.373011,0.549319,0.605809,0.290510,1.680439,2.017931,-13.014455
1790538411.8275,-0.005440,-0.055193,-0.370708,-0.000500,-0.051345,-0.370708,0.708371,0.866849,0.543052,1.680439,2.017931,-11.617252
1790538411.8410,-0.018060,-0.059210,-0.371445,-0.012792,-0.056850,-0.371445,0.421834,0.804928,0.664466,1.565455,3.058971,-8.357112
1790538411.8546,-0.025906,-0.062202,-0.367440,-0.021972,-0.060596,-0.367440,0.306490,0.526890,0.659609,0.530599,2.501271,-8.163056
1790538411.8685,-0.028263,-0.068000,-0.361753,-0.026376,-0.065779,-0.361753,0.449759,0.137150,0.578262,0.492271,2.017931,-9.637881
1790538411.8823,-0.029473,-0.071604,-0.358881,-0.028544,-0.069856,-0.358881,0.351413,0.080085,0.447135,0.338959,3.133331,-10.685784
1790538411.8963,-0.015479,-0.077497,-0.348128,-0.019399,-0.075205,-0.348128,0.299205,-0.967719,0.405854,-0.657568,-0.919289,-12.781588
1790538411.9101,-0.001306,-0.074947,-0.342857,-0.006734,-0.075025,-0.342857,-0.222876,-1.114630,0.328149,2.293686,0.716631,-14.295224
1790538411.9242,0.007948,-0.068519,-0.334854,0.003544,-0.070471,-0.334854,-0.598046,-0.897299,0.328149,4.708349,-1.551348,-11.151518
1790538411.9382,0.016968,-0.057843,-0.330347,0.012941,-0.061632,-0.330347,-0.883369,-0.879087,0.158169,3.405198,-0.919289,-7.852567
1790538411.9521,0.024902,-0.044974,-0.330071,0.021314,-0.049971,-0.330071,-0.986571,-0.744317,0.048896,2.063719,0.047391,-6.727042
1790538411.9661,0.033502,-0.029841,-0.333710,0.029846,-0.035880,-0.333710,-1.097058,-0.764957,-0.073732,2.102047,0.679451,-7.503266
1790538411.9801,0.040405,-0.014777,-0.337812,0.037237,-0.021108,-0.337812,-1.100701,-0.654471,-0.140510,2.715294,0.865351,-8.900469
1790538411.9943,0.030192,-0.015715,-0.342896,0.032305,-0.017333,-0.342896,-0.006759,0.738150,-0.645593,2.638638,0.010211,-17.904665
1790538412.0088,0.011071,-0.023177,-0.364083,0.017442,-0.021424,-0.364083,0.580886,1.512773,-1.176173,0.032335,2.798711,-16.507462
1790538412.0230,0.020291,-0.028907,-0.385017,0.019436,-0.026662,-0.385017,0.520179,-0.423784,-1.252664,-1.079176,2.724351,-10.879840
1790538412.0370,0.020743,-0.039218,-0.391881,0.020351,-0.035451,-0.391881,0.727797,0.047304,-0.654092,0.185647,0.530731,-7.348021
1790538412.0511,0.029546,-0.053092,-0.395200,0.026787,-0.047800,-0.395200,0.981553,-0.440782,-0.700230,-1.960720,0.790991,-11.539630
1790538412.0647,0.044208,-0.061066,-0.414492,0.038982,-0.057086,-0.414492,0.771507,-0.822022,-0.951557,-2.727279,3.653851,-9.133336
1790538412.0784,0.054506,-0.067143,-0.434681,0.049849,-0.064126,-0.434681,0.595456,-0.596192,-0.987981,-1.117504,2.835891,-8.395923
1790538412.0920,0.064938,-0.077968,-0.443349,0.060411,-0.073816,-0.443349,0.764222,-0.695751,-0.794933,-0.274288,0.382011,-9.599070
1790538412.1059,0.075360,-0.088427,-0.453524,0.070875,-0.084043,-0.453524,0.756937,-0.763743,-0.697801,0.415615,0.530731,-5.873196
1790538412.1199,0.068917,-0.096775,-0.454418,0.069505,-0.092955,-0.454418,0.512894,0.237924,-0.708729,6.088157,-0.770569,-13.014455
1790538412.1339,0.045286,-0.084998,-0.464394,0.052552,-0.087385,-0.464394,-0.833589,1.816309,-0.640737,-2.497311,1.311511,-16.080539
1790538412.1479,0.043222,-0.070282,-0.463943,0.046021,-0.075413,-0.463943,-1.131054,0.417617,-0.675947,-5.678534,-0.882109,-14.993826
1790538412.1619,0.032630,-0.054704,-0.466087,0.036647,-0.060917,-0.466087,-1.195404,0.980979,-0.623739,-1.500784,-0.324409,-5.679140
1790538412.1759,0.021902,-0.037410,-0.462439,0.026326,-0.044462,-0.462439,-1.423662,1.013761,-0.416120,-1.999048,-1.514168,-6.183686
1790538412.1898,0.011041,-0.021435,-0.465402,0.015626,-0.028343,-0.465402,-1.211187,0.882633,-0.361484,-0.235960,0.084571,-6.416553
1790538412.2036,-0.001287,-0.003705,-0.470639,0.003787,-0.011097,-0.470639,-1.203903,1.097536,-0.327488,-1.960720,2.464091,-9.754315
1790538412.2175,0.010695,-0.004298,-0.465447,0.008623,-0.006337,-0.465447,-0.041969,-0.660541,0.022185,-5.180270,0.158931,-16.041728
1790538412.2314,0.020553,-0.009442,-0.455298,0.016974,-0.008510,-0.455298,0.243355,-0.826879,0.692391,0.798895,-0.361589,-17.050819
1790538412.2456,0.016935,-0.018601,-0.447138,0.016946,-0.015574,-0.447138,0.635523,-0.027973,1.141624,2.715294,1.869211,-10.802217
1790538412.2601,0.021933,-0.031231,-0.433529,0.020437,-0.026534,-0.433529,0.934202,-0.313297,0.727601,-1.040848,1.423051,-5.252217
1790538412.2740,0.013687,-0.041113,-0.426631,0.015712,-0.036739,-0.426631,0.715656,0.502607,0.628042,0.760567,1.608951,-10.724595
1790538412.2879,0.000192,-0.053549,-0.418628,0.004848,-0.048506,-0.418628,0.891707,0.899631,0.697248,0.722239,1.683311,-12.548721
1790538412.3015,-0.019779,-0.063456,-0.411517,-0.012391,-0.058971,-0.411517,0.820072,1.363434,0.895153,0.952207,2.612811,-8.124245
1790538412.3152,-0.030108,-0.068870,-0.399785,-0.024793,-0.065900,-0.399785,0.436403,0.747864,0.941290,-0.312616,2.278191,-8.745224
1790538412.3291,-0.024692,-0.076127,-0.387387,-0.024723,-0.073059,-0.387387,0.580886,-0.415285,0.930363,-0.082648,3.393591,-11.229140
1790538412.3430,-0.016591,-0.076584,-0.373607,-0.019030,-0.075526,-0.373607,-0.016472,-0.724891,0.993498,2.293686,1.423051,-12.393476
1790538412.3569,-0.011499,-0.075096,-0.359649,-0.013758,-0.075225,-0.359649,-0.289654,-0.539127,1.063919,2.446998,-1.328269,-11.539630
1790538412.3707,-0.000574,-0.070650,-0.346756,-0.004530,-0.072022,-0.346756,-0.483916,-1.050281,1.106414,3.788478,-0.993649,-11.112707
1790538412.3846,0.006465,-0.060779,-0.338249,0.003167,-0.064152,-0.338249,-0.838446,-0.822022,0.946147,4.555037,-0.584669,-9.987182
1790538412.3984,0.014130,-0.046883,-0.333494,0.010841,-0.052064,-0.333494,-1.114056,-0.837806,0.544266,3.328542,-0.361589,-7.658511
1790538412.4122,0.021642,-0.031489,-0.333199,0.018402,-0.037661,-0.333199,-1.184476,-0.879087,0.382785,3.788478,0.084571,-6.765853
1790538412.4263,0.034556,-0.015612,-0.334723,0.029710,-0.022227,-0.334723,-1.093416,-1.075778,0.221304,1.680439,1.423051,-7.270399
1790538412.4403,0.028945,-0.012295,-0.330528,0.029175,-0.015275,-0.330528,-0.333363,0.254922,0.024613,4.018446,-0.324409,-14.760958
1790538412.4542,0.024131,-0.017994,-0.337802,0.025644,-0.017178,-0.337802,0.482541,0.611880,-0.646807,-4.068759,3.467951,-14.993826
1790538412.4681,0.030748,-0.027842,-0.347504,0.029217,-0.024643,-0.347504,0.754509,-0.111749,-1.171317,-5.640206,2.649991,-15.770049
1790538412.4820,0.024051,-0.029706,-0.372747,0.025601,-0.028187,-0.372747,0.299205,0.311987,-0.580030,3.060246,2.501271,-6.183686
1790538412.4960,0.029599,-0.040847,-0.370601,0.028400,-0.037049,-0.370601,0.787290,-0.204024,-0.303205,-2.229015,0.753811,-8.861658
1790538412.5105,0.045980,-0.055835,-0.372888,0.040706,-0.050199,-0.372888,1.026476,-0.887586,-0.675947,-3.685479,0.828171,-11.656063
1790538412.5242,0.055010,-0.064032,-0.392841,0.050719,-0.059882,-0.392841,0.770292,-0.556125,-0.910276,-0.350944,3.244871,-8.318301
1790538412.5379,0.055435,-0.067128,-0.410310,0.054020,-0.064954,-0.410310,0.357484,-0.038901,-0.831357,1.182175,2.910251,-9.249770
1790538412.5515,0.060564,-0.071101,-0.423553,0.058601,-0.069257,-0.423553,0.333201,-0.336365,-0.837428,0.223975,1.125611,-7.192776
1790538412.5654,0.070593,-0.080662,-0.433629,0.066995,-0.077241,-0.433629,0.720513,-0.720034,-0.649236,0.492271,1.237151,-8.667602
1790538412.5794,0.054010,-0.084704,-0.433919,0.057906,-0.082465,-0.433919,0.182648,1.121819,-0.582458,2.715294,-1.365448,-14.722147
1790538412.5932,0.036915,-0.066843,-0.446905,0.043212,-0.071530,-0.446905,-1.196618,1.350078,-0.431904,-1.347472,2.798711,-11.656063
1790538412.6071,0.039002,-0.052275,-0.438438,0.040265,-0.058051,-0.438438,-1.214830,0.152934,-0.527822,-4.183743,-2.034688,-9.133336
1790538412.6210,0.029056,-0.039430,-0.436991,0.032419,-0.045017,-0.436991,-1.145624,0.919058,-0.609169,-1.194160,-1.662888,-5.601518
1790538412.6350,0.015476,-0.025060,-0.437930,0.020559,-0.031047,-0.437930,-1.183262,1.188597,-0.403979,-1.385800,-0.956469,-5.873196
1790538412.6489,0.007260,-0.009726,-0.438825,0.011250,-0.016122,-0.438825,-1.148052,0.783074,-0.260710,-1.539112,0.307651,-7.348021
1790538412.6628,0.016032,-0.006567,-0.437172,0.014597,-0.009433,-0.437172,-0.184023,-0.531842,-0.084660,-1.884064,3.393591,-15.498371
1790538412.6768,0.021981,-0.010206,-0.433073,0.019766,-0.009974,-0.433073,0.393908,-0.620475,0.681464,1.833751,3.988471,-9.249770
1790538412.6907,0.018541,-0.016196,-0.419145,0.018909,-0.014330,-0.419145,0.424262,-0.020688,1.218115,1.565455,1.423051,-7.736133
1790538412.7046,0.026249,-0.028519,-0.401796,0.024047,-0.024262,-0.401796,0.807931,-0.616832,1.046921,-0.619240,0.270471,-5.950818
1790538412.7184,0.016365,-0.039731,-0.395207,0.018670,-0.035091,-0.395207,0.936630,0.592453,0.815020,0.645583,2.538451,-6.959909
1790538412.7324,-0.000702,-0.050345,-0.385872,0.005110,-0.045769,-0.385872,0.760579,1.123033,0.838088,0.990535,2.017931,-13.092077
1790538412.7465,-0.015695,-0.059368,-0.373874,-0.009454,-0.055288,-0.373874,0.651306,0.978551,1.029923,0.722239,2.352551,-11.966553
1790538412.7604,-0.028847,-0.062867,-0.364240,-0.023029,-0.060594,-0.364240,0.336844,0.916629,0.986214,-0.120976,2.873071,-8.201867
1790538412.7740,-0.031390,-0.068041,-0.351104,-0.028881,-0.065807,-0.351104,0.390266,0.138364,1.091844,0.070663,2.166651,-8.784035
1790538412.7881,-0.030288,-0.072092,-0.337977,-0.029866,-0.070207,-0.337977,0.289492,-0.143317,0.995927,0.492271,1.980751,-9.055714
1790538412.8020,-0.024137,-0.076186,-0.323185,-0.025856,-0.074392,-0.323185,0.196003,-0.553697,0.959502,1.795423,0.530731,-13.247322
1790538412.8160,-0.010172,-0.073949,-0.307906,-0.014877,-0.074082,-0.307906,-0.232589,-1.137699,0.938862,1.910407,0.828171,-11.772497
1790538412.8300,-0.000385,-0.071455,-0.290722,-0.004733,-0.072243,-0.290722,-0.311508,-0.916725,0.948575,3.443526,-0.659029,-11.733686
1790538412.8439,0.005195,-0.067786,-0.275590,0.002216,-0.069123,-0.275590,-0.471775,-0.518487,0.787094,0.913879,-1.439808,-7.153965
1790538412.8578,0.011136,-0.060429,-0.266975,0.008460,-0.063037,-0.266975,-0.649040,-0.570695,0.453205,1.795423,-0.696209,-8.357112
1790538412.8718,0.015833,-0.047877,-0.263881,0.013621,-0.052425,-0.263881,-1.029066,-0.540341,0.181237,3.903462,-1.291089,-10.802217
1790538412.8858,0.026059,-0.027467,-0.268373,0.022328,-0.034955,-0.268373,-1.492868,-0.882729,-0.204860,2.868606,0.642271,-9.249770
1790538412.8997,0.034823,-0.007376,-0.270151,0.031075,-0.015649,-0.270151,-1.520794,-0.785598,-0.198789,2.178703,0.084571,-6.921098
1790538412.9137,0.018393,-0.007479,-0.275869,0.022198,-0.009930,-0.275869,-0.060181,1.188597,-0.496254,2.140375,0.121751,-14.528091
1790538412.9277,0.010910,-0.020775,-0.289976,0.014296,-0.017521,-0.289976,0.982767,0.898417,-1.206527,-4.911974,1.906391,-16.623896
1790538412.9418,0.014238,-0.022540,-0.321677,0.014256,-0.021035,-0.321677,0.412120,-0.018260,-1.019549,-1.155832,5.141051,-8.395923
1790538412.9558,0.005493,-0.024281,-0.327555,0.008122,-0.023307,-0.327555,0.068518,0.518391,-0.549676,3.213558,-0.101329,-8.745224
1790538412.9697,0.015288,-0.034540,-0.329474,0.013138,-0.031170,-0.329474,0.686517,-0.463850,-0.716014,-2.995575,-0.138509,-13.053266
1790538412.9837,0.032696,-0.046313,-0.339785,0.026829,-0.041770,-0.339785,0.888064,-0.984717,-0.883565,-3.072231,1.832031,-11.578441
1790538412.9978,0.040394,-0.048953,-0.367194,0.036325,-0.046798,-0.367194,0.442474,-0.619260,-0.844713,1.757095,3.244871,-5.601518
1790538413.0119,0.048901,-0.050813,-0.383071,0.045128,-0.049609,-0.383071,0.244569,-0.490561,-0.779149,-0.427600,2.166651,-7.464455
1790538413.0261,0.056580,-0.059212,-0.392210,0.053144,-0.056331,-0.392210,0.542034,-0.439567,-0.856854,-0.389272,0.121751,-9.055714
1790538413.0401,0.065297,-0.066138,-0.407544,0.061651,-0.063196,-0.407544,0.601527,-0.551268,-0.791290,-0.274288,3.170511,-11.345574
1790538413.0541,0.050616,-0.065342,-0.412636,0.053926,-0.064698,-0.412636,-0.163383,1.031973,-0.777935,2.217030,-1.216729,-15.925294
1790538413.0681,0.043067,-0.049047,-0.424663,0.046325,-0.053742,-0.424663,-1.122555,0.768504,-0.611597,-4.183743,2.501271,-14.605714
1790538413.0821,0.036263,-0.033019,-0.426181,0.039281,-0.039236,-0.426181,-1.274323,0.806142,-0.502325,-3.532167,-0.993649,-7.619700
1790538413.0960,0.027991,-0.018364,-0.429407,0.031378,-0.024625,-0.429407,-1.200260,0.982193,-0.484112,-2.650623,-0.733389,-4.553616
1790538413.1099,0.010592,-0.004064,-0.436643,0.016828,-0.010232,-0.436643,-1.009640,1.352506,-0.359056,-0.197632,0.790991,-5.562707
1790538413.1239,0.021967,-0.004706,-0.437279,0.020425,-0.006364,-0.437279,-0.000688,-0.729747,-0.185433,-1.194160,0.939711,-14.489280
1790538413.1378,0.028198,-0.009766,-0.427408,0.025866,-0.008745,-0.427408,0.399979,-0.624117,0.669323,2.178703,3.505131,-15.032637
1790538413.1516,0.014627,-0.016627,-0.414363,0.017999,-0.014263,-0.414363,0.454615,0.625235,1.167121,3.635166,1.088431,-9.443825
1790538413.1655,0.023602,-0.026229,-0.394854,0.021921,-0.022639,-0.394854,0.654949,-0.689681,1.246040,-1.309144,0.976891,-7.231588
1790538413.1794,0.031325,-0.041891,-0.382222,0.028504,-0.036115,-0.382222,1.003408,-0.375218,0.694820,-1.769080,-0.324409,-3.816203
1790538413.1933,0.011942,-0.049191,-0.376976,0.016910,-0.045268,-0.376976,0.510466,1.121819,0.760383,3.941790,1.051251,-10.025993
1790538413.2073,-0.002689,-0.063660,-0.366080,0.003191,-0.058142,-0.366080,0.979125,0.976122,0.874513,0.530599,0.567911,-11.927742
1790538413.2208,-0.011638,-0.070585,-0.352062,-0.007190,-0.066852,-0.352062,0.607597,0.602167,1.029923,0.185647,3.244871,-9.560259
1790538413.2346,-0.017799,-0.073972,-0.339067,-0.014616,-0.071836,-0.339067,0.290706,0.365409,0.952218,0.875551,2.649991,-10.491728
1790538413.2488,-0.012766,-0.079974,-0.323411,-0.013321,-0.077533,-0.323411,0.330773,-0.411642,1.074846,0.300631,0.493551,-12.626343
1790538413.2630,-0.008546,-0.080794,-0.310367,-0.009979,-0.079816,-0.310367,-0.058967,-0.377646,0.912151,0.952207,-0.361589,-11.462007
1790538413.2771,-0.005538,-0.079505,-0.296569,-0.006870,-0.079598,-0.296569,-0.267799,-0.466279,1.042064,3.980118,-1.476988,-10.802217
1790538413.2911,-0.002208,-0.074464,-0.284602,-0.003607,-0.076005,-0.284602,-0.509413,-0.488133,0.909723,3.788478,-1.030829,-10.181238
1790538413.3050,0.004463,-0.064024,-0.275924,0.002042,-0.067618,-0.275924,-0.874870,-0.689681,0.629256,2.906934,-0.659029,-9.288581
1790538413.3188,0.008640,-0.049313,-0.271716,0.006661,-0.054804,-0.271716,-1.156551,-0.535485,0.396141,3.673494,-0.361589,-9.599070
1790538413.3328,0.016694,-0.030328,-0.271226,0.013684,-0.037671,-0.271226,-1.415163,-0.779527,0.143599,2.830278,0.270471,-8.046623
1790538413.3468,0.027586,-0.010986,-0.272516,0.023416,-0.018991,-0.272516,-1.404236,-0.977432,0.088963,2.293686,0.828171,-6.998721
1790538413.3607,0.026436,-0.003845,-0.269678,0.025530,-0.008389,-0.269678,-0.621114,-0.063183,-0.082231,3.290214,-0.435949,-11.151518
1790538413.3746,0.018536,-0.012390,-0.274321,0.020634,-0.011189,-0.274321,0.630666,0.841353,-0.767008,-2.995575,1.720491,-12.975644
1790538413.3885,0.023316,-0.022071,-0.286709,0.022511,-0.018806,-0.286709,0.812787,0.049732,-1.205313,-2.995575,2.092291,-7.542077
1790538413.4023,0.022171,-0.018565,-0.307956,0.022273,-0.018638,-0.307956,-0.068680,0.066730,-0.643165,1.412143,2.947431,-6.843476
1790538413.4163,0.022304,-0.025146,-0.310778,0.022295,-0.023193,-0.310778,0.431547,0.110439,-0.512038,-0.580912,0.382011,-9.831937
1790538413.4305,0.033475,-0.035495,-0.324882,0.030121,-0.031804,-0.324882,0.892921,-0.526986,-0.862925,-2.573967,3.467951,-9.016902
1790538413.4451,0.045558,-0.038258,-0.345928,0.040927,-0.036322,-0.345928,0.359912,-0.642329,-1.149462,-0.734224,3.021791,-7.270399
1790538413.4592,0.047886,-0.040177,-0.360743,0.045798,-0.039021,-0.360743,0.200860,-0.218594,-1.017121,2.025391,1.534591,-6.882287
1790538413.4731,0.051339,-0.049646,-0.370079,0.049677,-0.046458,-0.370079,0.613668,-0.138460,-0.949129,-0.197632,-0.101329,-10.724595
1790538413.4879,0.061092,-0.055571,-0.383695,0.057667,-0.052837,-0.383695,0.442474,-0.546412,-0.824072,-0.772552,1.980751,-10.957462
1790538413.5025,0.043260,-0.055810,-0.394360,0.047582,-0.054918,-0.394360,-0.010401,1.306369,-0.688088,-0.197632,0.642271,-12.005364
1790538413.5168,0.031861,-0.039324,-0.407384,0.036578,-0.044002,-0.407384,-1.083703,1.045328,-0.708729,-3.877119,2.947431,-13.557812
1790538413.5309,0.025061,-0.024144,-0.413419,0.028516,-0.030102,-0.413419,-1.129840,0.722367,-0.546034,-3.302199,0.158931,-12.354665
1790538413.5450,0.017869,-0.010163,-0.416668,0.021063,-0.016145,-0.416668,-1.083703,0.881419,-0.538749,-2.803935,-0.361589,-5.485084
1790538413.5590,0.007231,0.001300,-0.422151,0.011381,-0.003933,-0.422151,-0.791094,0.892346,-0.305634,-0.350944,0.679451,-3.932637
1790538413.5729,0.011077,0.002171,-0.422816,0.011168,0.000340,-0.422816,0.005383,-0.154244,-0.151438,-1.040848,2.055111,-7.813756
1790538413.5868,0.014657,-0.003047,-0.409969,0.013611,-0.002031,-0.409969,0.486183,-0.596192,0.676607,5.014973,4.323091,-10.297672
1790538413.6007,0.005335,-0.011510,-0.392866,0.007818,-0.008666,-0.392866,0.574816,0.417617,1.256967,1.872079,1.720491,-10.685784
1790538413.6145,0.005730,-0.026847,-0.370300,0.006357,-0.021393,-0.370300,1.007050,-0.210095,1.624852,-0.120976,0.679451,-9.599070
1790538413.6284,0.011494,-0.042745,-0.354253,0.009953,-0.036340,-0.354253,1.067757,-0.392216,1.191404,-1.615768,0.493551,-6.804665
1790538413.6424,-0.005761,-0.046665,-0.339858,-0.001047,-0.043567,-0.339858,0.317417,1.022260,1.073632,1.450471,1.497411,-6.067252
1790538413.6562,-0.020826,-0.060615,-0.326145,-0.014892,-0.055501,-0.326145,0.937844,0.984621,1.085773,1.028863,0.939711,-12.898021
1790538413.6701,-0.033210,-0.070467,-0.311572,-0.027715,-0.065977,-0.311572,0.761793,0.744221,1.113699,1.757095,2.984611,-9.599070
1790538413.6836,-0.041418,-0.074809,-0.301022,-0.037307,-0.072160,-0.301022,0.391480,0.580312,0.984999,0.108991,2.724351,-8.201867
1790538413.6972,-0.037737,-0.082924,-0.289077,-0.037608,-0.079695,-0.289077,0.526250,-0.265945,1.029923,-0.427600,1.125611,-10.569350
1790538413.7111,-0.035005,-0.089421,-0.277699,-0.035786,-0.086503,-0.277699,0.351413,-0.225878,0.859943,0.492271,-0.064149,-12.393476
1790538413.7249,-0.033198,-0.092238,-0.263322,-0.033974,-0.090517,-0.263322,0.063662,-0.259874,0.869656,2.791950,-0.696209,-13.363756
1790538413.7389,-0.030094,-0.095246,-0.246592,-0.031258,-0.093827,-0.246592,0.011454,-0.412856,0.887868,3.443526,-1.848788,-10.685784
1790538413.7529,-0.021512,-0.094256,-0.233672,-0.024436,-0.094128,-0.233672,-0.239874,-0.767386,0.671751,2.715294,-1.439808,-10.103616
1790538413.7672,-0.018323,-0.086565,-0.225010,-0.020157,-0.088834,-0.225010,-0.670894,-0.420141,0.416781,3.596838,-1.179549,-9.443825
1790538413.7812,-0.014870,-0.074564,-0.218342,-0.016456,-0.078845,-0.218342,-0.988999,-0.465064,0.331791,3.443526,-0.956469,-8.357112
1790538413.7953,-0.004108,-0.055080,-0.213399,-0.007813,-0.062210,-0.213399,-1.457658,-0.917939,0.243159,2.255358,0.047391,-8.240679
1790538413.8093,0.012391,-0.031537,-0.207661,0.006330,-0.040739,-0.207661,-1.804903,-1.367172,0.113245,2.332014,-0.510309,-7.076343
1790538413.8232,0.026017,-0.008862,-0.201178,0.020111,-0.018425,-0.201178,-1.776978,-1.203263,0.159383,2.638638,-0.733389,-7.270399
1790538413.8371,0.024911,0.002764,-0.194572,0.023471,-0.003592,-0.194572,-0.978072,0.029091,-0.064019,1.488799,-0.882109,-11.617252
1790538413.8510,0.009279,-0.012452,-0.198346,0.013536,-0.009794,-0.198346,1.038618,1.388931,-0.787648,-3.992103,0.121751,-21.281238
1790538413.8648,0.011705,-0.023496,-0.233263,0.012254,-0.019385,-0.233263,1.084755,0.186930,-1.023192,-3.647151,5.141051,-8.512357
1790538413.8787,0.007567,-0.028814,-0.243616,0.008973,-0.025986,-0.243616,0.441260,0.245209,-0.333559,1.642111,1.534591,-7.969000
1790538413.8925,0.014658,-0.043160,-0.244060,0.012953,-0.038008,-0.244060,1.019192,-0.313297,-0.417335,-1.960720,0.567911,-8.978091
1790538413.9060,0.031559,-0.058844,-0.257120,0.025977,-0.052593,-0.257120,1.325155,-1.067279,-0.674733,-1.730752,2.947431,-8.706413
1790538413.9197,0.046347,-0.070642,-0.276160,0.040236,-0.065228,-0.276160,1.083541,-0.914297,-0.873852,-1.385800,3.653851,-8.007811
1790538413.9335,0.055153,-0.076551,-0.292482,0.050678,-0.073154,-0.292482,0.712014,-0.650828,-0.624953,0.568927,3.244871,-5.213406
1790538413.9474,0.049772,-0.090290,-0.297885,0.050044,-0.085149,-0.297885,0.917204,0.418831,-0.565460,0.147319,-0.733389,-16.313406
1790538413.9614,0.037785,-0.085254,-0.304986,0.041463,-0.085222,-0.304986,-0.320007,0.965195,-0.267995,-2.765607,2.575631,-19.961658
1790538413.9754,0.031292,-0.068524,-0.307913,0.034343,-0.073534,-0.307913,-1.217258,0.655589,-0.111371,-5.103614,0.679451,-17.244875
