t,imu_roll,imu_pitch,imu_yaw,lpf_roll,lpf_pitch,lpf_yaw,gyro_x,gyro_y,gyro_z,acc_x,acc_y,acc_z
1790543220.1987,0.009941,-0.047772,0.013932,0.002982,-0.014332,0.013932,0.023603,0.005101,0.006393,-0.044320,1.274331,-10.025993
1790543220.2141,0.001253,-0.047378,0.014925,0.002463,-0.024246,0.014925,-0.026177,-0.008255,0.002751,0.147319,1.237151,-9.754315
1790543220.2279,-0.001450,-0.048072,0.015180,0.001289,-0.031393,0.015180,-0.016464,-0.010683,-0.000892,0.147319,1.274331,-10.258860
1790543220.2416,-0.009523,-0.046687,0.015737,-0.001954,-0.035981,0.015737,-0.000680,-0.005827,-0.005748,0.415615,1.311511,-9.948371
1790543220.2556,-0.012939,-0.046473,0.015959,-0.005250,-0.039129,0.015959,0.011462,0.011171,-0.004534,0.338959,1.311511,-10.142427
1790543220.2695,-0.014345,-0.045817,0.015782,-0.007978,-0.041135,0.015782,0.000534,0.031812,0.003965,0.262303,1.311511,-9.948371
1790543220.2837,-0.014148,-0.045417,0.015954,-0.009829,-0.042420,0.015954,-0.056530,0.065808,0.020963,0.147319,1.311511,-10.375294
1790543220.2979,-0.008770,-0.044553,0.015853,-0.009511,-0.043060,0.015853,-0.119666,0.073093,0.048888,-0.312616,1.274331,-10.297672
1790543220.3119,-0.005893,-0.042271,0.017101,-0.008426,-0.042823,0.017101,-0.156090,0.028169,0.118094,-0.159304,1.385871,-10.414105
1790543220.3260,-0.001268,-0.038590,0.020157,-0.006278,-0.041553,0.020157,-0.181587,-0.043465,0.221296,-0.312616,1.423051,-9.715504
1790543220.3400,-0.002924,-0.038071,0.024630,-0.005272,-0.040509,0.024630,-0.140306,-0.055606,0.360923,0.262303,1.162791,-9.521448
1790543220.3539,-0.005980,-0.039014,0.031252,-0.005484,-0.040060,0.031252,-0.034676,-0.026467,0.512690,0.377287,1.125611,-9.366203
1790543220.3678,-0.012086,-0.036599,0.038916,-0.007465,-0.039022,0.038916,-0.102668,0.025741,0.561256,0.607255,1.199971,-7.930189
1790543220.3817,-0.003633,-0.032389,0.044025,-0.006315,-0.037032,0.044025,-0.046817,-0.079889,0.468981,-0.925864,1.794851,-9.366203
1790543220.3956,0.000858,-0.035658,0.045053,-0.004163,-0.036620,0.045053,0.027245,-0.173378,0.307500,-0.350944,1.088431,-11.035084
1790543220.4096,-0.001304,-0.038208,0.045918,-0.003306,-0.037096,0.045918,-0.010393,-0.076247,0.232223,0.568927,1.088431,-11.384385
1790543220.4235,-0.006832,-0.039737,0.047560,-0.004364,-0.037889,0.047560,0.050314,0.068236,0.228581,0.798895,1.199971,-9.870749
1790543220.4375,-0.007024,-0.043579,0.050483,-0.005162,-0.039596,0.050483,0.154730,-0.030110,0.218868,0.185647,1.088431,-10.608161
1790543220.4512,-0.010636,-0.040620,0.051576,-0.006804,-0.039903,0.051576,-0.018892,0.143513,0.146019,0.415615,1.757671,-9.560259
1790543220.4648,-0.008118,-0.037638,0.053088,-0.007198,-0.039223,0.053088,-0.010393,-0.015540,0.107167,-0.312616,1.832031,-9.521448
1790543220.4786,-0.007797,-0.033376,0.056032,-0.007378,-0.037469,0.056032,-0.073528,-0.138168,0.082884,0.415615,1.980751,-9.521448
1790543220.4926,-0.009487,-0.030151,0.060846,-0.008011,-0.035274,0.060846,-0.109953,-0.133312,0.078027,0.875551,1.794851,-9.909560
1790543220.5066,-0.008456,-0.024000,0.064682,-0.008144,-0.031892,0.064682,-0.181587,-0.303291,0.130236,0.798895,2.315371,-9.909560
1790543220.5205,-0.004209,-0.014815,0.065578,-0.006964,-0.026769,0.065578,-0.341854,-0.439275,0.200656,0.453943,2.724351,-10.220049
1790543220.5344,-0.004841,-0.004792,0.076882,-0.006327,-0.020176,0.076882,-0.429272,-0.332431,0.172731,1.220503,2.575631,-9.405014
1790543220.5489,-0.015070,-0.005710,0.089552,-0.008950,-0.015836,0.089552,0.254290,0.318349,0.003965,2.063719,3.058971,-12.509909
1790543220.5630,-0.016684,-0.002665,0.001316,-0.011270,-0.011885,0.001316,0.877145,0.462832,-0.169658,-0.504256,5.029511,-8.046623
1790543220.5770,0.001439,0.002991,-0.078215,-0.007457,-0.007422,-0.078215,0.217866,-0.136954,-0.645601,-3.225543,3.616671,-7.969000
1790543220.5910,0.012207,-0.002809,-0.114374,-0.001558,-0.006038,-0.114374,0.409700,-0.357928,-0.943066,-0.734224,1.385871,-8.007811
1790543220.6050,0.009710,-0.002419,-0.059175,0.001822,-0.004952,-0.059175,0.147445,-0.139382,-1.148256,1.527127,2.278191,-9.249770
1790543220.6190,-0.004825,-0.004498,0.001975,-0.000172,-0.004816,0.001975,-0.023749,0.600030,-1.119117,2.485326,1.088431,-10.491728
1790543220.6329,0.004744,-0.006537,-0.045485,0.001303,-0.005332,-0.045485,0.012676,-0.143025,-1.217462,-1.232488,1.014071,-9.676693
1790543220.6468,0.005708,-0.011388,-0.052670,0.002625,-0.007149,-0.052670,0.291928,0.034240,-1.335234,0.377287,1.125611,-8.163056
1790543220.6608,0.005782,-0.012679,-0.076887,0.003572,-0.008808,-0.076887,0.159587,0.268569,-1.545281,-0.082648,2.017931,-10.491728
1790543220.6744,0.005645,-0.010876,-0.096615,0.004194,-0.009428,-0.096615,-0.107524,0.245501,-1.599917,0.108991,1.646131,-9.405014
1790543220.6880,0.005480,-0.014043,-0.123458,0.004580,-0.010813,-0.123458,-0.023749,0.334133,-1.494287,-0.389272,0.493551,-12.626343
1790543220.7016,0.008903,-0.018038,-0.139098,0.005877,-0.012980,-0.139098,0.121948,-0.068962,-1.235674,0.032335,0.753811,-10.181238
1790543220.7157,0.010780,-0.016542,-0.145036,0.007348,-0.014049,-0.145036,0.004177,-0.068962,-1.019557,0.415615,2.278191,-10.452916
1790543220.7297,0.010948,-0.013405,-0.154533,0.008428,-0.013856,-0.154533,0.027245,0.102232,-0.881145,0.070663,2.835891,-9.443825
1790543220.7435,0.004938,-0.005861,-0.161691,0.007381,-0.011457,-0.161691,-0.134236,0.533252,-0.875074,0.262303,4.211551,-10.414105
1790543220.7575,-0.004487,0.002013,-0.179569,0.003821,-0.007416,-0.179569,-0.562828,0.869570,-0.808296,-0.120976,2.241011,-12.859210
1790543220.7715,-0.000771,0.006292,-0.209191,0.002443,-0.003304,-0.209191,-0.805656,0.040311,-0.516902,-1.769080,-1.848788,-17.749420
1790543220.7855,-0.003067,-0.003419,-0.191320,0.000790,-0.003338,-0.191320,0.391488,-0.045893,0.039175,1.297159,-0.026969,-10.996273
1790543220.8000,-0.017538,-0.009623,-0.161047,-0.004708,-0.005224,-0.161047,0.440054,0.612172,0.687527,1.335487,1.274331,-7.076343
1790543220.8149,-0.013663,-0.022305,-0.187012,-0.007395,-0.010348,-0.187012,0.484977,0.099804,0.549115,-1.999048,-0.584669,-7.697322
1790543220.8294,-0.013905,-0.028612,-0.182716,-0.009348,-0.015827,-0.182716,0.243363,0.005101,0.754305,-0.389272,0.344831,-9.676693
1790543220.8433,-0.009688,-0.035270,-0.179615,-0.009450,-0.021660,-0.179615,0.253076,-0.311790,0.535759,-0.274288,0.084571,-10.608161
1790543220.8574,-0.017326,-0.041264,-0.169802,-0.011813,-0.027541,-0.169802,0.174157,0.343846,0.623177,1.028863,-0.212869,-10.530539
1790543220.8714,-0.029363,-0.051329,-0.154758,-0.017078,-0.034678,-0.154758,0.555397,0.536895,0.795585,1.872079,0.307651,-10.297672
1790543220.8852,-0.040961,-0.064303,-0.142478,-0.024243,-0.043565,-0.142478,0.901428,0.636454,0.874505,0.952207,0.865351,-8.124245
1790543220.8992,-0.053717,-0.072954,-0.132509,-0.033085,-0.052382,-0.132509,0.701094,0.869570,0.850222,0.300631,1.534591,-8.395923
1790543220.9128,-0.059045,-0.075230,-0.122788,-0.040873,-0.059237,-0.122788,0.389060,0.562392,0.782230,-0.849208,2.389731,-8.434735
1790543220.9265,-0.061913,-0.080286,-0.115998,-0.047185,-0.065552,-0.115998,0.441268,0.264927,0.630462,-0.082648,1.906391,-11.190329
1790543220.9403,-0.057877,-0.088114,-0.112405,-0.050393,-0.072320,-0.112405,0.374490,-0.235300,0.631676,-0.159304,-0.175689,-12.238231
1790543220.9543,-0.050755,-0.088971,-0.103016,-0.050501,-0.077316,-0.103016,0.068526,-0.560690,0.539401,0.760567,1.460231,-12.665154
1790543220.9682,-0.050255,-0.090938,-0.079053,-0.050427,-0.081402,-0.079053,-0.214369,-0.453845,0.541830,3.788478,-1.848788,-11.267951
1790543220.9820,-0.047647,-0.091859,-0.061110,-0.049593,-0.084539,-0.061110,-0.336997,-0.634752,0.408274,3.826806,-2.183408,-10.181238
1790543220.9959,-0.043698,-0.079076,-0.060268,-0.047825,-0.082900,-0.060268,-0.988992,-0.848441,0.425272,3.750150,0.419191,-7.813756
1790543221.0100,-0.039129,-0.061951,-0.044620,-0.045216,-0.076615,-0.044620,-1.450366,-0.730669,0.368207,2.715294,-0.473129,-7.969000
1790543221.0241,-0.032555,-0.047431,-0.031392,-0.041418,-0.067860,-0.031392,-1.297384,-0.870296,0.262577,3.443526,-0.733389,-10.220049
1790543221.0381,-0.022336,-0.034708,-0.025108,-0.035693,-0.057914,-0.025108,-1.151687,-1.133765,0.138735,2.906934,-0.435949,-8.667602
1790543221.0527,-0.015943,-0.022668,-0.034264,-0.029768,-0.047340,-0.034264,-0.912501,-0.797447,0.139949,3.213558,0.716631,-10.646972
1790543221.0668,-0.023643,-0.032694,-0.001428,-0.027931,-0.042946,-0.001428,0.421842,0.532038,-0.204868,1.527127,-1.105189,-16.973196
1790543221.0807,-0.018645,-0.032503,-0.031250,-0.025145,-0.039813,-0.031250,0.234864,-0.031324,-0.777943,-1.654096,3.096151,-9.715504
1790543221.0946,-0.012780,-0.027637,-0.119155,-0.021435,-0.036161,-0.119155,0.074597,-0.703958,-0.616462,1.910407,2.538451,-5.717951
1790543221.1084,-0.011431,-0.034684,-0.120030,-0.018434,-0.035717,-0.120030,0.487405,-0.065320,-0.343280,0.223975,0.828171,-6.921098
1790543221.1225,0.006860,-0.048572,-0.101613,-0.010846,-0.039574,-0.101613,0.968205,-0.917647,-0.592179,-2.535639,1.162791,-9.366203
1790543221.1361,0.015503,-0.054549,-0.149894,-0.002941,-0.044066,-0.149894,0.778799,-0.671177,-0.706308,0.798895,3.430771,-8.861658
1790543221.1497,0.021977,-0.058321,-0.186589,0.004534,-0.048343,-0.186589,0.544470,-0.435633,-0.780371,0.223975,2.835891,-8.512357
1790543221.1636,0.028167,-0.066076,-0.206423,0.011624,-0.053663,-0.206423,0.627032,-0.348215,-0.765801,-0.274288,1.460231,-8.473546
1790543221.1775,0.015120,-0.076991,-0.202793,0.012673,-0.060661,-0.202793,0.692595,0.912065,-0.673527,0.875551,0.456371,-11.345574
1790543221.1915,0.001781,-0.071339,-0.206710,0.009406,-0.063864,-0.206710,-0.380706,1.307875,-0.690524,-3.570495,1.869211,-14.256413
1790543221.2054,0.006689,-0.064008,-0.109942,0.008591,-0.063908,-0.109942,-0.804442,0.341418,-0.620104,-7.058341,-1.402628,-10.452916
1790543221.2193,0.005026,-0.056032,-0.103244,0.007521,-0.061545,-0.103244,-0.947711,0.612172,-0.486549,-3.187215,-1.923148,-7.386832
1790543221.2333,-0.002571,-0.038968,-0.100634,0.004494,-0.054772,-0.100634,-1.464935,0.805220,-0.413700,-1.194160,-0.659029,-6.727042
1790543221.2474,-0.009175,-0.019113,-0.100914,0.000393,-0.044074,-0.100914,-1.508644,0.870784,-0.357850,-1.999048,0.344831,-6.377742
1790543221.2612,-0.019230,-0.006671,-0.102293,-0.005494,-0.032853,-0.102293,-0.961066,0.960630,-0.373633,-1.539112,1.237151,-12.548721
1790543221.2752,-0.013159,-0.022879,-0.102329,-0.007793,-0.029861,-0.102329,0.980347,-0.340930,-0.023960,-1.500784,-0.473129,-21.281238
1790543221.2893,-0.010485,-0.017396,-0.094113,-0.008601,-0.026121,-0.094113,-0.179159,-0.081103,0.331783,-1.194160,3.133331,-8.163056
1790543221.3038,-0.019600,-0.015250,-0.099005,-0.011901,-0.022860,-0.099005,-0.169446,0.389984,0.583111,1.795423,1.497411,-9.987182
1790543221.3180,-0.005560,-0.023339,-0.097538,-0.009998,-0.023004,-0.097538,0.282215,-0.790162,0.380349,-1.730752,-0.882109,-6.455364
1790543221.3319,-0.018728,-0.026706,-0.115544,-0.012617,-0.024114,-0.115544,0.333209,0.641311,0.404632,2.408670,2.166651,-8.628791
1790543221.3459,-0.030060,-0.031230,-0.114027,-0.017850,-0.026249,-0.114027,0.339280,0.709303,0.426486,0.990535,2.017931,-11.888930
1790543221.3599,-0.036364,-0.036065,-0.106369,-0.023404,-0.029194,-0.106369,0.457052,0.419123,0.464125,0.147319,2.575631,-9.482637
1790543221.3735,-0.043359,-0.037802,-0.100071,-0.029391,-0.031776,-0.100071,0.316211,0.433693,0.561256,0.453943,2.687171,-7.464455
1790543221.3871,-0.047054,-0.039979,-0.093728,-0.034690,-0.034237,-0.093728,0.238506,0.153226,0.587967,0.952207,2.389731,-9.754315
1790543221.4010,-0.052007,-0.044388,-0.087950,-0.039885,-0.037282,-0.087950,0.307712,0.246715,0.541830,0.952207,1.423051,-9.443825
1790543221.4150,-0.050091,-0.045092,-0.080019,-0.042947,-0.039625,-0.080019,0.194797,-0.105386,0.425272,-0.350944,3.170511,-10.064805
1790543221.4288,-0.036559,-0.044587,-0.068965,-0.041030,-0.041114,-0.068965,-0.091741,-0.975926,0.598894,-0.542584,1.311511,-11.927742
1790543221.4428,-0.030533,-0.039527,-0.066709,-0.037881,-0.040638,-0.066709,-0.417131,-0.701530,0.511476,3.175230,1.274331,-12.665154
1790543221.4568,-0.023396,-0.032852,-0.066605,-0.033536,-0.038302,-0.066605,-0.619892,-0.796233,0.393704,2.600310,0.010211,-9.482637
1790543221.4707,-0.017888,-0.020814,-0.073274,-0.028841,-0.033056,-0.073274,-0.894288,-0.765880,0.190943,2.906934,0.865351,-7.076343
1790543221.4846,-0.007339,-0.007806,-0.075792,-0.022391,-0.025481,-0.075792,-0.993848,-1.093698,0.036747,2.868606,0.790991,-7.697322
1790543221.4985,0.002341,0.005832,-0.086658,-0.014971,-0.016087,-0.086658,-0.894288,-1.018421,-0.079811,3.136902,2.278191,-8.163056
1790543221.5125,-0.012866,-0.000941,-0.073437,-0.014340,-0.011543,-0.073437,0.260361,0.964273,-0.376062,4.018446,-1.142369,-15.459560
1790543221.5265,-0.014674,-0.006276,-0.093993,-0.014440,-0.009963,-0.093993,0.487405,0.368129,-1.029270,-0.465928,2.538451,-9.715504
1790543221.5405,-0.002310,-0.008201,-0.116036,-0.010801,-0.009434,-0.116036,0.266431,-0.550976,-1.307309,-1.040848,2.241011,-7.658511
1790543221.5550,-0.000972,-0.013564,-0.132789,-0.007852,-0.010673,-0.132789,0.416985,-0.189162,-0.726949,2.293686,1.794851,-8.667602
1790543221.5689,0.007244,-0.024423,-0.133028,-0.003324,-0.014798,-0.133028,0.718092,-0.365213,-0.754874,-1.462456,1.014071,-11.811308
1790543221.5829,0.028100,-0.036082,-0.145042,0.006103,-0.021183,-0.145042,0.862575,-1.243037,-1.057195,-1.769080,2.055111,-11.462007
1790543221.5965,0.035830,-0.045660,-0.168780,0.015021,-0.028526,-0.168780,0.766658,-0.567974,-1.154327,1.297159,2.129471,-9.405014
1790543221.6102,0.039376,-0.050346,-0.197335,0.022328,-0.035072,-0.197335,0.471621,-0.214659,-1.109404,0.568927,2.315371,-7.542077
1790543221.6243,0.045333,-0.058233,-0.207001,0.029230,-0.042020,-0.207001,0.466765,-0.291150,-1.137329,-0.350944,0.530731,-9.521448
1790543221.6382,0.036765,-0.062775,-0.235106,0.031490,-0.048247,-0.235106,0.470407,0.767582,-0.902999,-0.810880,3.021791,-9.560259
1790543221.6522,0.020036,-0.060041,-0.231841,0.028054,-0.051785,-0.231841,-0.300573,1.566487,-0.751232,-5.793518,0.233291,-16.158161
1790543221.6660,0.021044,-0.046767,-0.231159,0.025951,-0.050280,-0.231159,-1.036343,0.328062,-0.747589,-5.371910,0.605091,-13.402567
1790543221.6800,0.017975,-0.036669,-0.216040,0.023558,-0.046196,-0.216040,-1.056984,0.558749,-0.595821,-2.612295,-2.183408,-7.891378
1790543221.6939,0.004079,-0.019649,-0.227112,0.017714,-0.038232,-0.227112,-1.141973,1.071117,-0.448910,0.032335,1.348691,-5.252217
1790543221.7078,-0.006536,-0.010703,-0.228397,0.010439,-0.029973,-0.228397,-0.923428,1.165820,-0.560611,-1.807408,-1.030829,-4.941727
1790543221.7218,-0.017990,0.003567,-0.236872,0.001910,-0.019911,-0.236872,-0.815369,0.999483,-0.452553,-0.580912,2.501271,-5.834385
1790543221.7357,-0.007065,-0.003509,-0.235784,-0.000782,-0.014991,-0.235784,0.406058,-0.713672,-0.085882,-1.270816,0.790991,-17.710609
1790543221.7497,-0.000802,-0.002976,-0.227053,-0.000788,-0.011386,-0.227053,-0.041961,-0.463558,0.422844,-0.772552,1.943571,-11.151518
1790543221.7637,-0.003594,-0.005395,-0.223230,-0.001630,-0.009589,-0.223230,0.091595,-0.055606,0.744591,1.182175,0.530731,-7.037532
1790543221.7777,-0.007987,-0.014115,-0.219473,-0.003537,-0.010947,-0.219473,0.616104,0.292852,0.266219,-0.082648,1.385871,-8.706413
1790543221.7917,-0.022964,-0.022093,-0.226707,-0.009365,-0.014291,-0.226707,0.579680,0.852572,0.244365,2.715294,1.646131,-9.870749
1790543221.8061,-0.038899,-0.032613,-0.229171,-0.018225,-0.019787,-0.229171,0.799440,0.891424,0.466553,2.715294,2.649991,-10.530539
1790543221.8201,-0.055931,-0.043764,-0.224248,-0.029537,-0.026980,-0.224248,0.861361,1.096614,0.736092,0.990535,2.352551,-9.288581
1790543221.8337,-0.068288,-0.050764,-0.217699,-0.041162,-0.034115,-0.217699,0.602749,0.847715,0.778587,0.377287,2.910251,-9.870749
1790543221.8473,-0.072852,-0.055231,-0.208133,-0.050669,-0.040450,-0.208133,0.418199,0.415481,0.766446,-1.232488,2.798711,-9.094525
1790543221.8613,-0.073151,-0.061528,-0.198835,-0.057414,-0.046773,-0.198835,0.427912,0.045167,0.681456,-0.504256,1.571771,-10.220049
1790543221.8752,-0.062835,-0.068767,-0.186886,-0.059040,-0.053371,-0.186886,0.297999,-0.748882,0.689955,-0.312616,-1.476988,-14.334035
1790543221.8892,-0.054870,-0.068977,-0.178079,-0.057789,-0.058053,-0.178079,-0.156090,-0.633538,0.564898,0.683911,-0.696209,-11.423196
1790543221.9031,-0.051480,-0.068625,-0.171138,-0.055896,-0.061225,-0.171138,-0.267791,-0.523051,0.606179,3.596838,-1.811608,-10.375294
1790543221.9172,-0.046370,-0.059016,-0.166783,-0.053038,-0.060562,-0.166783,-0.833581,-0.700316,0.574612,3.405198,-0.398769,-7.891378
1790543221.9310,-0.038486,-0.043769,-0.165343,-0.048673,-0.055524,-0.165343,-1.186897,-0.980783,0.425272,5.014973,0.344831,-8.978091
1790543221.9449,-0.029382,-0.026466,-0.160984,-0.042886,-0.046807,-0.160984,-1.341093,-1.017207,0.243151,4.861661,0.233291,-9.754315
1790543221.9589,-0.015364,-0.009098,-0.157078,-0.034629,-0.035494,-0.157078,-1.338665,-1.321957,0.120522,3.098574,0.344831,-7.425644
1790543221.9728,-0.000170,0.009408,-0.161464,-0.024292,-0.022023,-0.161464,-1.328951,-1.340169,0.135092,2.255358,1.460231,-7.969000
1790543221.9866,-0.010078,0.005754,-0.143550,-0.020028,-0.013690,-0.143550,0.091595,0.725087,-0.181799,1.488799,-0.547489,-18.952567
1790543222.0006,-0.008110,0.000102,-0.139275,-0.016452,-0.009552,-0.139275,0.387846,0.147155,-0.764587,-2.842263,2.352551,-15.808861
1790543222.0146,0.002754,0.001281,-0.192394,-0.010690,-0.006303,-0.192394,0.136518,-0.960142,-0.643173,2.945262,3.244871,-7.076343
1790543222.0285,0.001619,-0.000579,-0.204882,-0.006997,-0.004586,-0.204882,0.147445,0.053666,-0.507189,1.143847,1.311511,-7.076343
1790543222.0424,0.017587,-0.011662,-0.175983,0.000378,-0.006708,-0.175983,0.707165,-0.801090,-0.646815,-2.995575,0.605091,-8.551168
1790543222.0567,0.029489,-0.021755,-0.198510,0.009111,-0.011222,-0.198510,0.815224,-0.714886,-0.758516,-0.312616,2.241011,-7.231588
1790543222.0710,0.035589,-0.030511,-0.228109,0.017055,-0.017009,-0.228109,0.735090,-0.372498,-0.827723,0.453943,2.612811,-7.774944
1790543222.0865,0.045740,-0.037724,-0.252733,0.025660,-0.023223,-0.252733,0.545684,-0.518195,-0.906642,-0.580912,2.352551,-8.124245
1790543222.1008,0.051238,-0.044789,-0.275451,0.033333,-0.029693,-0.275451,0.556611,-0.268081,-0.887216,-0.427600,2.426911,-9.210958
1790543222.1152,0.038195,-0.050476,-0.300526,0.034792,-0.035928,-0.300526,0.579680,0.967915,-0.578823,-0.044320,4.360271,-10.181238
1790543222.1301,0.017445,-0.039332,-0.287832,0.029588,-0.036949,-0.287832,-0.772874,1.782605,-0.686882,-6.905029,2.241011,-14.877392
1790543222.1445,0.015023,-0.023574,-0.265848,0.025219,-0.032937,-0.265848,-1.202681,0.564820,-0.592179,-6.176798,0.047391,-12.665154
1790543222.1583,0.011183,-0.011612,-0.245754,0.021008,-0.026539,-0.245754,-1.101907,0.668022,-0.495048,-3.225543,-1.253909,-7.115154
1790543222.1723,0.003141,0.006286,-0.255888,0.015648,-0.016692,-0.255888,-1.190539,0.772438,-0.423413,-1.040848,1.906391,-6.261308
1790543222.1862,-0.008629,0.022505,-0.266387,0.008365,-0.004933,-0.266387,-1.089765,1.083259,-0.440411,-0.619240,1.051251,-3.466902
1790543222.2002,-0.010962,0.027965,-0.273598,0.002567,0.004936,-0.273598,-0.464482,0.362058,-0.612819,-1.424128,1.646131,-19.340679
1790543222.2142,-0.002898,0.020141,-0.268085,0.000927,0.009498,-0.268085,0.481334,-0.566760,0.159375,-1.117504,1.646131,-17.982287
1790543222.2281,-0.007446,0.015029,-0.262663,-0.001585,0.011157,-0.262663,0.290714,0.130157,0.526046,1.910407,1.125611,-12.548721
1790543222.2422,-0.009681,0.010335,-0.249064,-0.004014,0.010911,-0.249064,0.188726,0.233359,0.595252,-2.075704,-0.101329,-8.512357
1790543222.2561,-0.011854,0.001773,-0.247413,-0.006366,0.008169,-0.247413,0.565110,0.075521,0.238294,0.262303,0.382011,-3.544525
1790543222.2700,-0.025974,-0.007883,-0.262407,-0.012248,0.003354,-0.262407,0.764230,0.657095,0.341496,3.750150,2.092291,-7.153965
1790543222.2836,-0.038116,-0.019504,-0.258989,-0.020008,-0.003504,-0.258989,0.882001,0.749370,0.617107,1.335487,2.352551,-10.763406
1790543222.2977,-0.054613,-0.027092,-0.255626,-0.030390,-0.010580,-0.255626,0.675597,1.106327,0.734878,0.147319,3.244871,-8.085434
1790543222.3120,-0.058346,-0.033813,-0.244634,-0.038777,-0.017550,-0.244634,0.484977,0.207862,0.870862,-0.389272,2.761531,-11.462007
1790543222.3261,-0.056598,-0.042390,-0.234565,-0.044123,-0.025002,-0.234565,0.664670,-0.226801,0.864792,0.492271,3.467951,-11.229140
1790543222.3402,-0.046780,-0.042860,-0.219687,-0.044920,-0.030359,-0.219687,-0.077171,-0.826587,0.817440,0.875551,0.605091,-12.044175
1790543222.3542,-0.041263,-0.037830,-0.204305,-0.043823,-0.032600,-0.204305,-0.496050,-0.555833,0.794371,1.182175,0.047391,-9.909560
1790543222.3682,-0.038058,-0.032832,-0.184786,-0.042094,-0.032670,-0.184786,-0.562828,-0.538835,0.835652,2.830278,-0.919289,-8.551168
1790543222.3822,-0.033353,-0.027161,-0.171253,-0.039471,-0.031017,-0.171253,-0.576183,-0.661463,0.698454,3.136902,-0.547489,-8.395923
1790543222.3961,-0.022588,-0.017314,-0.164071,-0.034406,-0.026906,-0.164071,-0.795943,-0.992924,0.428915,2.025391,0.493551,-8.589979
1790543222.4101,-0.012207,-0.003608,-0.166327,-0.027747,-0.019917,-0.166327,-1.008418,-1.056060,0.290502,3.711822,1.125611,-8.861658
1790543222.4240,-0.014640,0.000414,-0.161735,-0.023815,-0.013818,-0.161735,-0.380706,0.051238,0.012464,2.906934,0.642271,-14.372847
1790543222.4379,-0.018128,-0.004198,-0.166364,-0.022109,-0.010932,-0.166364,0.289500,0.317135,-0.582466,1.220503,1.385871,-14.955014
1790543222.4518,-0.000495,-0.007859,-0.162177,-0.015624,-0.010010,-0.162177,0.217866,-0.968641,-0.967349,-1.654096,0.716631,-7.852567
1790543222.4658,-0.003941,-0.004583,-0.245314,-0.012120,-0.008382,-0.245314,0.142589,-0.110243,-0.435555,2.561982,2.352551,-2.380189
1790543222.4797,-0.001392,-0.010674,-0.240844,-0.008901,-0.009070,-0.240844,0.372062,-0.172164,-0.379704,0.875551,0.790991,-10.530539
1790543222.4937,0.012805,-0.019734,-0.251153,-0.002389,-0.012269,-0.251153,0.687739,-0.820516,-0.799797,-1.539112,2.612811,-12.315854
1790543222.5076,0.020117,-0.025273,-0.279965,0.004363,-0.016170,-0.279965,0.523829,-0.350643,-1.223533,-0.082648,3.133331,-9.055714
1790543222.5213,0.023657,-0.028610,-0.306192,0.010151,-0.019902,-0.306192,0.440054,-0.175807,-1.083907,0.492271,2.352551,-4.980539
1790543222.5349,0.030742,-0.035790,-0.307479,0.016328,-0.024669,-0.307479,0.433983,-0.298435,-1.000131,-1.424128,0.419191,-9.831937
1790543222.5489,0.043351,-0.046789,-0.308426,0.024435,-0.031305,-0.308426,0.707165,-0.711243,-0.815581,-1.385800,0.419191,-8.279490
1790543222.5634,0.046655,-0.055411,-0.326891,0.031101,-0.038536,-0.326891,0.726591,-0.228015,-0.684454,1.182175,4.694891,-12.975644
1790543222.5775,0.016233,-0.046447,-0.339428,0.026641,-0.040910,-0.339428,-0.634462,2.203912,-0.530258,0.760567,3.282051,-21.048371
1790543222.5915,0.019966,-0.033444,-0.316269,0.024638,-0.038670,-0.316269,-1.013274,0.131371,-0.685668,-8.783101,0.753811,-16.662707
1790543222.6055,0.021112,-0.025893,-0.256869,0.023580,-0.034837,-0.256869,-0.853008,0.427622,-0.633460,-4.222071,-2.183408,-4.980539
1790543222.6195,0.010603,-0.011550,-0.261265,0.019687,-0.027851,-0.261265,-1.128618,0.978843,-0.355421,-1.002520,0.047391,-4.049070
1790543222.6334,-0.004037,0.006835,-0.286366,0.012570,-0.017445,-0.286366,-1.109192,1.265380,-0.462266,-0.964192,2.761531,-5.135783
1790543222.6473,-0.013290,0.019178,-0.296850,0.004812,-0.006458,-0.296850,-0.879719,0.920564,-0.505975,-2.152360,1.943571,-10.452916
1790543222.6614,0.002560,0.008902,-0.298541,0.004136,-0.001850,-0.298541,0.566324,-0.943144,-0.281359,-4.873646,-1.662888,-21.281238
1790543222.6753,0.000419,0.010004,-0.292831,0.003021,0.001706,-0.292831,-0.063815,0.039097,0.478694,0.568927,2.464091,-11.578441
1790543222.6893,-0.005671,0.007414,-0.286212,0.000414,0.003418,-0.286212,0.070954,0.307422,0.567327,0.530599,0.158931,-9.599070
1790543222.7033,-0.009468,-0.002021,-0.279014,-0.002551,0.001786,-0.279014,0.630674,0.359630,0.400989,-1.462456,0.753811,-6.688231
1790543222.7174,-0.020943,-0.012770,-0.276011,-0.008069,-0.002581,-0.276011,0.685310,0.753012,0.390062,0.300631,0.456371,-8.395923
1790543222.7314,-0.035787,-0.025847,-0.271822,-0.016384,-0.009561,-0.271822,0.901428,0.922992,0.609822,1.297159,1.237151,-10.181238
1790543222.7449,-0.053122,-0.035284,-0.264032,-0.027406,-0.017278,-0.264032,0.713236,1.156107,0.830796,0.913879,2.129471,-10.025993
1790543222.7586,-0.064228,-0.041539,-0.253465,-0.038452,-0.024556,-0.253465,0.506831,0.731158,0.901216,0.223975,2.835891,-9.793126
1790543222.7727,-0.066727,-0.045708,-0.240919,-0.046935,-0.030902,-0.240919,0.297999,0.093733,0.897573,0.262303,2.241011,-9.715504
1790543222.7866,-0.056312,-0.047713,-0.226684,-0.049748,-0.035945,-0.226684,0.074597,-0.776807,0.855078,-0.772552,1.460231,-12.082986
1790543222.8008,-0.045922,-0.046181,-0.217023,-0.048600,-0.039016,-0.217023,-0.245937,-0.819302,0.672957,0.492271,-0.175689,-10.724595
1790543222.8160,-0.039541,-0.042821,-0.216121,-0.045882,-0.040158,-0.216121,-0.394062,-0.750096,0.801656,3.635166,-0.882109,-8.318301
1790543222.8302,-0.033750,-0.037019,-0.207723,-0.042243,-0.039216,-0.207723,-0.559185,-0.683318,0.850222,2.523654,-0.361589,-8.861658
1790543222.8442,-0.023573,-0.028030,-0.198706,-0.036642,-0.035860,-0.198706,-0.758305,-0.914005,0.640175,1.335487,0.047391,-8.085434
1790543222.8584,-0.014447,-0.015204,-0.197958,-0.029983,-0.029664,-0.197958,-0.993848,-0.921290,0.441056,3.520182,0.344831,-10.297672
1790543222.8724,-0.003673,0.001329,-0.200299,-0.022090,-0.020366,-0.200299,-1.243961,-1.025706,0.154518,3.596838,0.642271,-9.831937
1790543222.8868,0.003754,0.018818,-0.208829,-0.014337,-0.008611,-0.208829,-1.226963,-0.776807,-0.072526,4.785005,1.757671,-10.608161
1790543222.9011,-0.007923,0.017017,-0.209752,-0.012413,-0.000922,-0.209752,0.027245,0.848929,-0.403987,1.680439,0.493551,-14.722147
1790543222.9151,0.012167,0.012575,-0.172752,-0.005039,0.003127,-0.172752,0.339280,-0.818088,-1.009844,-8.093197,2.315371,-9.133336
1790543222.9290,0.004723,0.012628,-0.241510,-0.002110,0.005977,-0.241510,0.233650,0.257642,-0.495048,3.635166,3.058971,-4.747672
1790543222.9429,0.004062,0.004481,-0.246339,-0.000258,0.005528,-0.246339,0.573609,0.128943,-0.422199,-0.005993,1.237151,-7.736133
1790543222.9568,0.024127,-0.003809,-0.246312,0.007057,0.002727,-0.246312,0.611248,-1.173831,-0.810725,-2.612295,2.166651,-10.452916
1790543222.9708,0.027871,-0.016120,-0.262625,0.013301,-0.002927,-0.262625,0.863789,-0.140596,-1.076622,0.492271,1.608951,-10.103616
1790543222.9844,0.036404,-0.023449,-0.280648,0.020232,-0.009083,-0.280648,0.567539,-0.422277,-1.199250,-0.619240,2.092291,-8.745224
1790543222.9980,0.044402,-0.028808,-0.293210,0.027483,-0.015001,-0.293210,0.376918,-0.319075,-1.202892,-1.309144,1.274331,-7.076343
1790543223.0125,0.050389,-0.041712,-0.307783,0.034355,-0.023014,-0.307783,0.823723,-0.260797,-1.133686,-0.350944,0.939711,-9.210958
1790543223.0266,0.043305,-0.045270,-0.326018,0.037040,-0.029691,-0.326018,0.359920,0.676521,-0.861719,-1.539112,4.323091,-11.811308
1790543223.0407,0.027297,-0.035625,-0.316554,0.034117,-0.031471,-0.316554,-0.731593,1.523992,-0.595821,-7.709917,1.385871,-14.178791
1790543223.0551,0.029480,-0.022915,-0.308769,0.032726,-0.028904,-0.308769,-0.979278,0.228503,-0.479264,-6.675061,-0.064149,-11.384385
1790543223.0693,0.024749,-0.011002,-0.312311,0.030333,-0.023534,-0.312311,-1.030272,0.918135,-0.430698,-4.145415,-1.030829,-2.884734
1790543223.0833,0.015056,0.007954,-0.307662,0.025749,-0.014087,-0.307662,-1.141973,1.088115,-0.420985,-1.577440,1.497411,-2.380189
1790543223.0974,-0.001957,0.016524,-0.320279,0.017438,-0.004904,-0.320279,-0.611393,1.555560,-0.643173,-2.152360,1.199971,-6.532986
1790543223.1113,-0.007835,0.025456,-0.334248,0.009856,0.004204,-0.334248,-0.673315,0.624313,-0.740304,-0.964192,2.278191,-16.546273
1790543223.1254,0.000312,0.020888,-0.346367,0.006993,0.009209,-0.346367,0.215437,-0.529122,-0.283787,-0.082648,0.530731,-19.534735
1790543223.1394,-0.001094,0.025404,-0.339765,0.004567,0.014068,-0.339765,-0.293288,0.039097,0.317213,0.108991,2.910251,-11.578441
1790543223.1533,-0.004953,0.019344,-0.353067,0.001711,0.015650,-0.353067,0.249433,0.114373,0.453197,0.913879,-0.621849,-7.464455
1790543223.1672,-0.016602,0.010797,-0.349989,-0.003783,0.014194,-0.349989,0.668312,0.693519,0.359708,1.220503,2.129471,-7.425644
1790543223.1812,-0.027943,-0.000102,-0.351874,-0.011031,0.009906,-0.351874,0.763015,0.663166,0.353638,1.527127,1.274331,-8.046623
1790543223.1952,-0.041090,-0.013631,-0.348597,-0.020049,0.002844,-0.348597,0.949993,0.782152,0.590395,1.680439,1.720491,-10.452916
1790543223.2091,-0.059874,-0.024970,-0.339692,-0.031996,-0.005500,-0.339692,0.780013,1.210744,0.857507,0.875551,1.534591,-9.521448
1790543223.2227,-0.068810,-0.032916,-0.319410,-0.043040,-0.013725,-0.319410,0.627032,0.610958,0.937640,-0.427600,2.835891,-9.521448
1790543223.2367,-0.073867,-0.039070,-0.300439,-0.052288,-0.021328,-0.300439,0.398773,0.363273,0.958280,-1.155832,1.683311,-9.443825
1790543223.2506,-0.071730,-0.044175,-0.280280,-0.058121,-0.028182,-0.280280,0.372062,-0.152738,0.849008,-1.002520,2.464091,-9.948371
1790543223.2645,-0.058837,-0.046199,-0.269696,-0.058336,-0.033587,-0.269696,0.004177,-0.961356,0.890289,-0.964192,0.307651,-12.975644
1790543223.2784,-0.053148,-0.041155,-0.267745,-0.056779,-0.035858,-0.267745,-0.515476,-0.656607,0.890289,3.136902,-0.101329,-12.160609
1790543223.2923,-0.044663,-0.035166,-0.265938,-0.053144,-0.035650,-0.265938,-0.623535,-0.864225,0.944925,2.561982,-0.807749,-10.763406
1790543223.3068,-0.038956,-0.022854,-0.266789,-0.048888,-0.031811,-0.266789,-1.005990,-0.770736,0.670529,4.670021,-0.510309,-8.745224
1790543223.3212,-0.023070,-0.005794,-0.264368,-0.041143,-0.024006,-0.264368,-1.258531,-1.342597,0.437414,2.830278,0.716631,-9.599070
1790543223.3353,-0.008178,0.014324,-0.257941,-0.031253,-0.012507,-0.257941,-1.469792,-1.442157,0.275933,3.980118,0.939711,-6.765853
1790543223.3493,-0.008774,0.019140,-0.256579,-0.024509,-0.003013,-0.256579,-0.402561,-0.094459,0.295359,1.987063,1.497411,-14.101168
1790543223.3633,-0.018245,0.008910,-0.242627,-0.022630,0.000564,-0.242627,0.850434,0.909636,-0.196369,-3.378855,4.620531,-12.005364
1790543223.3772,-0.001168,0.004612,-0.235386,-0.016191,0.001778,-0.235386,0.390274,-0.848441,-0.932139,-4.873646,3.839751,-13.014455
1790543223.3913,-0.000446,0.004718,-0.252388,-0.011468,0.002660,-0.252388,0.018746,-0.152738,-0.604320,3.328542,2.055111,-9.327392
1790543223.4052,0.006519,0.000268,-0.252012,-0.006072,0.001943,-0.252012,0.245791,-0.343358,-0.384561,-1.385800,0.493551,-9.327392
1790543223.4191,0.018810,-0.011443,-0.252117,0.001393,-0.002073,-0.252117,0.748446,-0.631110,-0.661385,-2.535639,0.158931,-10.220049
1790543223.4327,0.032416,-0.024296,-0.252787,0.010700,-0.008740,-0.252787,0.935424,-0.694245,-0.904214,-2.075704,1.051251,-6.843476
1790543223.4464,0.041579,-0.031503,-0.266019,0.019963,-0.015569,-0.266019,0.623389,-0.588615,-1.069337,0.607255,3.058971,-8.784035
1790543223.4600,0.044957,-0.036102,-0.281516,0.027461,-0.021729,-0.281516,0.407272,-0.166093,-1.116688,0.568927,2.389731,-7.542077
1790543223.4740,0.051129,-0.044706,-0.297767,0.034562,-0.028622,-0.297767,0.590607,-0.338502,-1.120331,0.223975,1.497411,-9.210958
1790543223.4877,0.039843,-0.053171,-0.318719,0.036146,-0.035987,-0.318719,0.506831,0.858642,-1.024414,1.603783,0.307651,-14.139979
1790543223.5016,0.030294,-0.043430,-0.326894,0.034391,-0.038220,-0.326894,-0.759519,0.918135,-0.813153,-3.953775,1.385871,-18.137532
1790543223.5156,0.034179,-0.030466,-0.326172,0.034327,-0.035893,-0.326172,-0.971994,0.145941,-0.661385,-5.410238,0.679451,-8.240679
1790543223.5295,0.027947,-0.017799,-0.341605,0.032413,-0.030465,-0.341605,-1.092194,0.646168,-0.553326,-1.232488,-0.696209,-6.183686
1790543223.5435,0.015839,0.001036,-0.349810,0.027441,-0.021015,-0.349810,-1.375089,0.983699,-0.467122,-0.389272,1.014071,-7.115154
1790543223.5574,0.000559,0.015533,-0.366627,0.019376,-0.010050,-0.366627,-1.165042,1.305447,-0.683240,-0.734224,-0.026969,-7.852567
1790543223.5720,0.002230,0.011877,-0.370345,0.014232,-0.003472,-0.370345,0.191155,0.099804,-0.519330,-3.148887,1.274331,-16.701518
1790543223.5859,0.005305,0.008960,-0.370695,0.011554,0.000257,-0.370695,0.172942,-0.220730,0.050102,-0.350944,2.203831,-17.361308
1790543223.6000,0.002560,0.009831,-0.378626,0.008856,0.003129,-0.378626,-0.201013,0.125301,0.302644,0.262303,-0.398769,-12.509909
1790543223.6141,0.002862,0.007261,-0.381311,0.007058,0.004369,-0.381311,0.053956,-0.135740,0.509048,0.262303,-0.175689,-10.297672
1790543223.6281,-0.001119,0.000100,-0.365136,0.004604,0.003088,-0.365136,0.523829,0.409410,0.126593,-1.960720,1.720491,-9.210958
1790543223.6422,-0.014963,-0.007828,-0.375815,-0.001266,-0.000187,-0.375815,0.578466,0.770010,0.382777,2.715294,1.980751,-9.560259
1790543223.6562,-0.020514,-0.018377,-0.361615,-0.007040,-0.005644,-0.361615,0.772729,0.358416,0.578254,-0.465928,1.980751,-9.482637
1790543223.6698,-0.034762,-0.025659,-0.356255,-0.015357,-0.011648,-0.356255,0.557825,0.830717,0.873291,1.833751,2.203831,-9.560259
1790543223.6836,-0.038464,-0.028710,-0.330858,-0.022289,-0.016767,-0.330858,0.268860,0.244287,0.891503,-1.002520,2.538451,-9.249770
1790543223.6976,-0.041660,-0.032378,-0.319809,-0.028100,-0.021450,-0.319809,0.228793,0.065808,0.924284,0.952207,1.534591,-9.637881
1790543223.7115,-0.045780,-0.035802,-0.308425,-0.033404,-0.025756,-0.308425,0.211795,0.183579,0.827153,0.492271,1.348691,-9.172147
1790543223.7255,-0.044368,-0.037268,-0.291112,-0.036693,-0.029210,-0.291112,0.128019,-0.164879,0.733664,-0.044320,2.241011,-9.482637
1790543223.7395,-0.028046,-0.034632,-0.264748,-0.034099,-0.030836,-0.264748,-0.173088,-1.132551,0.823511,-2.382327,2.464091,-10.841028
1790543223.7534,-0.019713,-0.025826,-0.261145,-0.029783,-0.029333,-0.261145,-0.650246,-0.819302,0.676599,2.485326,1.943571,-11.694875
1790543223.7674,-0.014062,-0.015750,-0.281462,-0.025067,-0.025258,-0.281462,-0.862721,-0.741597,0.534545,4.018446,-0.473129,-9.288581
1790543223.7814,-0.004141,-0.000425,-0.293704,-0.018789,-0.017808,-0.293704,-1.144402,-1.100983,0.231009,3.673494,0.493551,-5.601518
1790543223.7953,0.016416,0.013076,-0.292930,-0.008228,-0.008543,-0.292930,-0.978064,-1.589068,0.092597,0.645583,1.125611,-6.377742
1790543223.8094,0.007912,0.009710,-0.299216,-0.003386,-0.003067,-0.299216,0.176585,0.459190,0.135092,2.830278,1.125611,-13.907112
1790543223.8240,-0.001283,0.003953,-0.296950,-0.002755,-0.000961,-0.296950,0.467979,0.813719,-0.423413,-2.190688,4.546171,-15.110259
1790543223.8379,0.011889,0.003079,-0.291019,0.001638,0.000251,-0.291019,0.100094,-0.598328,-0.980704,-4.145415,3.170511,-13.557812
1790543223.8520,0.007407,0.002389,-0.313458,0.003369,0.000892,-0.313458,0.000534,0.298923,-0.808296,2.715294,1.014071,-9.948371
1790543223.8659,0.014906,-0.004363,-0.319862,0.006830,-0.000684,-0.319862,0.390274,-0.417421,-0.609177,-0.350944,0.196111,-8.784035
1790543223.8799,0.027646,-0.016544,-0.327070,0.013075,-0.005442,-0.327070,0.817652,-0.752524,-0.819224,-0.734224,0.790991,-9.405014
1790543223.8927,0.042889,-0.029040,-0.330872,0.022019,-0.012522,-0.330872,0.994917,-0.955286,-1.060838,-1.232488,1.571771,-7.464455
1790543223.9054,0.050948,-0.033534,-0.343945,0.030698,-0.018825,-0.343945,0.478906,-0.542477,-1.172539,0.530599,3.356411,-8.085434
1790543223.9182,0.054367,-0.039123,-0.362384,0.037799,-0.024915,-0.362384,0.491048,-0.274152,-1.072979,1.642111,2.649991,-8.978091
1790543223.9322,0.061765,-0.046855,-0.375749,0.044989,-0.031497,-0.375749,0.538399,-0.349429,-1.162826,-1.040848,1.980751,-9.909560
1790543223.9462,0.046008,-0.051110,-0.398922,0.045295,-0.037381,-0.398922,0.189940,1.147608,-1.119117,1.910407,0.344831,-10.996273
1790543223.9601,0.039473,-0.043322,-0.406813,0.043548,-0.039163,-0.406813,-0.610179,0.691091,-0.941852,-3.263871,1.832031,-17.206063
1790543223.9739,0.032912,-0.030797,-0.407204,0.040357,-0.036653,-0.407204,-1.061840,0.760297,-0.802226,-2.688951,-0.733389,-8.900469
1790543223.9878,0.030258,-0.018556,-0.398133,0.037328,-0.031224,-0.398133,-1.065483,0.630384,-0.697809,-4.068759,-1.142369,-6.377742
1790543224.0017,0.016737,-0.004823,-0.415647,0.031151,-0.023304,-0.415647,-1.148044,1.094186,-0.581252,-0.235960,-0.435949,-6.028441
1790543224.0156,-0.002782,0.009460,-0.420258,0.020971,-0.013475,-0.420258,-1.042414,1.629623,-0.586108,-0.772552,0.865351,-5.485084
1790543224.0296,-0.003684,0.008360,-0.414373,0.013574,-0.006924,-0.414373,0.185084,0.266141,-0.468336,-1.884064,3.839751,-10.841028
1790543224.0435,0.000428,0.001923,-0.407996,0.009631,-0.004270,-0.407996,0.403629,-0.281437,0.308714,-1.539112,1.199971,-13.868301
1790543224.0575,-0.007763,-0.000959,-0.398354,0.004412,-0.003277,-0.398354,0.186298,0.481044,0.750662,-0.120976,1.460231,-9.599070
1790543224.0721,-0.008788,-0.005438,-0.393811,0.000452,-0.003925,-0.393811,0.284643,-0.139382,0.804084,1.105519,1.311511,-8.318301
1790543224.0863,-0.003785,-0.012770,-0.388465,-0.000819,-0.006578,-0.388465,0.459480,0.075521,0.084098,-5.218598,0.084571,-5.058161
1790543224.1004,-0.022267,-0.020817,-0.411748,-0.007253,-0.010850,-0.411748,0.535971,1.048049,0.388848,3.136902,0.976891,-8.124245
1790543224.1145,-0.039307,-0.036515,-0.411252,-0.016869,-0.018550,-0.411252,1.072622,1.044406,0.725165,1.757095,1.237151,-11.190329
1790543224.1281,-0.050979,-0.044163,-0.392008,-0.027102,-0.026234,-0.392008,0.640387,0.776081,0.830796,0.338959,3.058971,-9.715504
1790543224.1417,-0.057626,-0.047595,-0.367024,-0.036260,-0.032642,-0.367024,0.350207,0.427622,0.898788,-0.082648,3.207691,-8.628791
1790543224.1560,-0.058899,-0.051336,-0.346998,-0.043051,-0.038250,-0.346998,0.268860,0.036668,0.866006,-0.197632,2.129471,-9.443825
1790543224.1712,-0.051577,-0.054113,-0.330206,-0.045609,-0.043009,-0.330206,0.163229,-0.544906,0.756733,0.032335,2.166651,-12.587532
1790543224.1858,-0.042935,-0.051559,-0.322241,-0.044807,-0.045574,-0.322241,-0.220440,-0.712457,0.651103,1.527127,1.534591,-13.441378
1790543224.2003,-0.039644,-0.047531,-0.339129,-0.043258,-0.046161,-0.339129,-0.417131,-0.503625,0.580682,3.980118,-0.547489,-10.181238
1790543224.2150,-0.031090,-0.037193,-0.343579,-0.039608,-0.043471,-0.343579,-0.777731,-0.814445,0.505405,2.485326,0.456371,-7.969000
1790543224.2296,-0.018224,-0.022971,-0.351607,-0.033192,-0.037321,-0.351607,-1.055769,-1.147120,0.307500,4.133430,0.270471,-10.258860
1790543224.2437,-0.002004,-0.009003,-0.356525,-0.023836,-0.028825,-0.356525,-1.055769,-1.471296,0.187300,3.980118,0.419191,-7.852567
1790543224.2579,0.012763,0.004966,-0.358794,-0.012856,-0.018688,-0.358794,-1.001133,-1.298888,0.166660,2.370342,1.014071,-6.649420
1790543224.2719,0.010577,0.009209,-0.364106,-0.005826,-0.010319,-0.364106,-0.327284,0.070664,-0.032459,2.446998,2.389731,-16.779140
1790543224.2859,0.007249,0.003871,-0.363199,-0.001904,-0.006062,-0.363199,0.380561,0.477402,-0.658957,-2.458983,2.426911,-13.441378
1790543224.2999,0.018282,0.002220,-0.369311,0.004152,-0.003578,-0.369311,0.166872,-0.496340,-1.171325,-2.114032,3.356411,-12.393476
1790543224.3140,0.022501,0.001398,-0.382497,0.009656,-0.002085,-0.382497,0.255504,-0.258368,-0.985561,0.760567,1.980751,-3.350469
1790543224.3286,0.031519,-0.004652,-0.384993,0.016215,-0.002855,-0.384993,0.506831,-0.448989,-0.606749,-0.887536,2.055111,-5.717951
1790543224.3427,0.043214,-0.019240,-0.392848,0.024315,-0.007770,-0.392848,0.976704,-0.639609,-0.877502,-1.462456,1.199971,-11.694875
1790543224.3564,0.060483,-0.031902,-0.401336,0.035165,-0.015010,-0.401336,0.975490,-1.048775,-1.075408,-1.539112,2.835891,-9.482637
1790543224.3701,0.072267,-0.037134,-0.412798,0.046296,-0.021647,-0.412798,0.506831,-0.742811,-1.130044,-0.120976,3.467951,-7.464455
1790543224.3842,0.070814,-0.042671,-0.428052,0.053651,-0.027954,-0.428052,0.452195,0.092519,-1.053553,1.527127,2.724351,-7.580888
1790543224.3981,0.055821,-0.050447,-0.442554,0.054302,-0.034702,-0.442554,0.364777,1.145180,-1.053553,0.990535,-1.068009,-12.859210
1790543224.4121,0.038915,-0.044027,-0.455923,0.049686,-0.037499,-0.455923,-0.521547,1.466928,-1.038983,-3.493839,1.608951,-15.304315
1790543224.4260,0.041022,-0.034707,-0.460367,0.047087,-0.036662,-0.460367,-0.783802,0.228503,-0.969777,-6.713389,-0.138509,-14.139979
1790543224.4400,0.037493,-0.025326,-0.468953,0.044209,-0.033261,-0.468953,-0.908858,0.568463,-0.774300,-3.072231,-1.885968,-8.046623
1790543224.4539,0.034127,-0.007304,-0.470897,0.041184,-0.025474,-0.470897,-1.347163,0.579390,-0.665028,-2.727279,0.642271,-6.416553
1790543224.4679,0.023871,0.009079,-0.481771,0.035990,-0.015108,-0.481771,-1.309525,1.084473,-0.714807,-1.730752,-0.101329,-4.592427
1790543224.4817,0.004744,0.023772,-0.490928,0.026617,-0.003444,-0.490928,-0.975636,1.553132,-0.745161,-0.005993,2.166651,-6.028441
1790543224.4957,0.006032,0.020741,-0.499541,0.020441,0.003811,-0.499541,0.137732,0.245501,-0.662599,-5.295254,0.790991,-15.110259
1790543224.5096,0.007746,0.014660,-0.499308,0.016633,0.007066,-0.499308,0.438840,-0.200089,0.154518,1.373815,3.802571,-19.457112
1790543224.5235,-0.001273,0.012053,-0.500116,0.011261,0.008562,-0.500116,0.134090,0.487115,0.564898,1.488799,1.497411,-13.984735
1790543224.5375,0.000381,0.006374,-0.490134,0.007997,0.007906,-0.490134,0.351421,-0.039823,0.410702,-2.229015,0.790991,-8.900469
1790543224.5515,-0.005416,-0.004183,-0.492991,0.003973,0.004279,-0.492991,0.573609,0.640097,0.237080,-1.424128,-0.473129,-3.078790
1790543224.5654,-0.017483,-0.011684,-0.492521,-0.002464,-0.000510,-0.492521,0.585751,0.706875,0.392490,1.833751,2.315371,-9.055714
1790543224.5805,-0.030387,-0.020195,-0.484978,-0.010841,-0.006416,-0.484978,0.601535,0.706875,0.625606,1.527127,2.501271,-10.064805
1790543224.5944,-0.043509,-0.026048,-0.466358,-0.020641,-0.012305,-0.466358,0.511688,0.841645,0.798014,0.415615,3.133331,-9.016902
1790543224.6083,-0.047750,-0.030117,-0.444432,-0.028774,-0.017649,-0.444432,0.375704,0.221218,0.841723,-0.005993,3.319231,-9.366203
1790543224.6224,-0.047944,-0.032380,-0.426836,-0.034525,-0.022068,-0.426836,0.200868,-0.027681,0.702096,-0.350944,2.389731,-8.861658
1790543224.6363,-0.049963,-0.036063,-0.415317,-0.039156,-0.026267,-0.415317,0.247005,0.051238,0.703311,0.568927,1.869211,-10.841028
1790543224.6503,-0.039744,-0.036365,-0.401813,-0.039333,-0.029296,-0.401813,0.022389,-0.847227,0.664458,1.067191,2.724351,-13.324944
1790543224.6642,-0.030649,-0.029325,-0.390968,-0.036727,-0.029305,-0.390968,-0.499692,-0.855726,0.706953,2.676966,2.984611,-13.751868
1790543224.6782,-0.026245,-0.021082,-0.398868,-0.033583,-0.026838,-0.398868,-0.720666,-0.608041,0.703311,2.906934,-0.101329,-8.589979
1790543224.6922,-0.019917,-0.010185,-0.402526,-0.029483,-0.021842,-0.402526,-0.833581,-0.741597,0.500549,2.753622,0.716631,-7.231588
1790543224.7062,-0.003425,0.004402,-0.400727,-0.021666,-0.013969,-0.400727,-1.065483,-1.400876,0.320856,1.987063,1.237151,-7.697322
1790543224.7202,0.007557,0.020201,-0.405208,-0.012899,-0.003718,-0.405208,-1.141973,-1.086413,0.135092,3.711822,1.385871,-7.930189
1790543224.7342,0.001555,0.022033,-0.415504,-0.008563,0.004007,-0.415504,-0.202228,0.280711,-0.252219,4.708349,0.939711,-13.286133
1790543224.7481,-0.003181,0.017843,-0.422898,-0.006948,0.008158,-0.422898,0.282215,0.576962,-0.722092,-2.114032,2.389731,-15.847672
1790543224.7621,0.018388,0.015941,-0.418911,0.000653,0.010493,-0.418911,0.255504,-1.115553,-1.034127,-5.256926,4.397451,-10.414105
1790543224.7760,0.009531,0.009709,-0.434101,0.003316,0.010258,-0.434101,0.475264,0.432479,-0.335995,3.635166,1.757671,-7.192776
1790543224.7900,0.012556,-0.000408,-0.440756,0.006088,0.007058,-0.440756,0.645244,-0.123598,-0.505975,-0.120976,0.456371,-9.288581
1790543224.8040,0.027389,-0.007940,-0.447944,0.012479,0.002559,-0.447944,0.563896,-0.880009,-0.827723,-1.309144,2.575631,-11.539630
1790543224.8178,0.031227,-0.016979,-0.464173,0.018103,-0.003303,-0.464173,0.642815,-0.179449,-1.065694,0.837223,1.646131,-9.172147
1790543224.8324,0.034049,-0.020997,-0.479726,0.022887,-0.008611,-0.479726,0.396345,-0.043465,-1.100905,0.032335,2.724351,-6.261308
1790543224.8466,0.042932,-0.025512,-0.491822,0.028900,-0.013681,-0.491822,0.310140,-0.406494,-1.023199,-1.194160,1.423051,-7.619700
1790543224.8608,0.048688,-0.035912,-0.505043,0.034837,-0.020351,-0.505043,0.682882,-0.258368,-0.983133,-0.504256,1.014071,-8.706413
1790543224.8748,0.040907,-0.044243,-0.514564,0.036658,-0.027518,-0.514564,0.596678,0.612172,-0.583680,0.147319,2.612811,-14.955014
1790543224.8889,0.017818,-0.032929,-0.524649,0.031006,-0.029141,-0.524649,-0.775303,1.795960,-0.566682,-2.267343,4.211551,-19.107812
1790543224.9028,0.016348,-0.019486,-0.530772,0.026609,-0.026245,-0.530772,-1.016917,0.421551,-0.580038,-6.368438,1.125611,-15.614805
1790543224.9168,0.011886,-0.007457,-0.539191,0.022192,-0.020608,-0.539191,-0.969565,0.739657,-0.605535,-2.880591,-0.212869,-4.708860
1790543224.9309,0.002106,0.005092,-0.549527,0.016166,-0.012898,-0.549527,-0.948925,0.748156,-0.373633,0.147319,0.307651,-3.428091
1790543224.9449,-0.011853,0.020033,-0.546347,0.007760,-0.003019,-0.546347,-0.862721,1.151251,-0.380918,-0.350944,1.943571,-3.428091
1790543224.9587,-0.008366,0.014025,-0.550836,0.002922,0.002094,-0.550836,0.369633,-0.160023,-0.138090,-1.999048,1.646131,-20.427392
1790543224.9726,-0.002390,0.013464,-0.546761,0.001329,0.005505,-0.546761,-0.005536,-0.536407,0.396133,0.607255,1.571771,-12.665154
1790543224.9866,-0.009788,0.016447,-0.534732,-0.002006,0.008788,-0.534732,-0.142735,0.292852,0.774945,1.450471,2.575631,-7.736133
1790543225.0008,-0.003936,0.012692,-0.532395,-0.002585,0.009959,-0.532395,0.132876,-0.322718,0.472624,-1.999048,-0.175689,-6.416553
1790543225.0150,-0.016493,0.004948,-0.532714,-0.006758,0.008456,-0.532714,0.550541,0.557535,0.470195,1.565455,0.642271,-3.156413
1790543225.0292,-0.032796,-0.009104,-0.529448,-0.014569,0.003188,-0.529448,0.969420,0.953346,0.581896,2.255358,1.460231,-9.715504
1790543225.0428,-0.047101,-0.020352,-0.518865,-0.024329,-0.003874,-0.518865,0.823723,0.902352,0.879361,0.875551,2.129471,-10.181238
1790543225.0565,-0.060167,-0.029142,-0.504893,-0.035080,-0.011455,-0.504893,0.654957,0.880497,0.952210,-0.197632,2.538451,-10.414105
1790543225.0701,-0.062128,-0.035290,-0.488188,-0.043195,-0.018605,-0.488188,0.471621,0.152012,0.907286,-1.424128,2.538451,-9.288581
1790543225.0848,-0.065231,-0.039580,-0.476703,-0.049805,-0.024898,-0.476703,0.253076,0.110731,0.754305,0.645583,1.460231,-9.172147
1790543225.0989,-0.053571,-0.038997,-0.463030,-0.050935,-0.029128,-0.463030,-0.028605,-0.917647,0.655959,0.568927,3.096151,-12.703965
1790543225.1129,-0.046328,-0.034385,-0.456477,-0.049553,-0.030705,-0.456477,-0.424416,-0.771950,0.596466,3.443526,0.382011,-9.870749
1790543225.1270,-0.037802,-0.028801,-0.450644,-0.046028,-0.030134,-0.450644,-0.562828,-0.863011,0.652317,3.136902,-0.807749,-9.948371
1790543225.1409,-0.031293,-0.020834,-0.445989,-0.041607,-0.027344,-0.445989,-0.700026,-0.758595,0.507834,3.558510,-0.250049,-8.900469
1790543225.1549,-0.015988,-0.006262,-0.441447,-0.033922,-0.021019,-0.441447,-1.067911,-1.286747,0.286860,2.140375,1.274331,-8.667602
1790543225.1689,-0.003269,0.009867,-0.439054,-0.024726,-0.011753,-0.439054,-1.226963,-1.233324,0.087741,4.363398,0.456371,-7.969000
1790543225.1828,0.009739,0.024703,-0.439511,-0.014386,-0.000817,-0.439511,-1.099479,-1.122837,-0.096809,2.715294,1.162791,-8.434735
1790543225.1967,-0.001285,0.020381,-0.444943,-0.010456,0.005543,-0.444943,0.236078,0.821004,-0.394274,2.063719,1.162791,-17.050819
1790543225.2107,-0.005182,0.016362,-0.458385,-0.008874,0.008789,-0.458385,0.344136,0.553893,-0.947923,-1.845736,3.802571,-13.945924
1790543225.2246,0.014080,0.014251,-0.465099,-0.001987,0.010427,-0.465099,0.158373,-1.090056,-0.997702,-2.190688,2.055111,-10.297672
1790543225.2386,0.013519,0.008050,-0.475589,0.002664,0.009714,-0.475589,0.465551,0.051238,-0.525401,0.990535,1.608951,-7.153965
1790543225.2525,0.022485,-0.000350,-0.478914,0.008611,0.006695,-0.478914,0.593036,-0.446560,-0.576395,-1.884064,1.646131,-9.948371
1790543225.2665,0.039194,-0.009878,-0.486708,0.017786,0.001723,-0.486708,0.710807,-0.958928,-0.855648,-1.922392,2.166651,-8.861658
1790543225.2800,0.044458,-0.017670,-0.503397,0.025788,-0.004095,-0.503397,0.599106,-0.294792,-1.074193,0.683911,2.129471,-8.240679
1790543225.2936,0.051030,-0.021609,-0.519556,0.033360,-0.009349,-0.519556,0.336852,-0.305720,-1.092406,-0.580912,2.538451,-8.357112
1790543225.3076,0.057453,-0.027721,-0.535888,0.040588,-0.014861,-0.535888,0.483763,-0.302077,-1.065694,-0.427600,2.203831,-7.153965
1790543225.3218,0.062693,-0.037768,-0.549436,0.047220,-0.021733,-0.549436,0.686525,-0.200089,-0.951565,-1.117504,1.683311,-9.210958
1790543225.3365,0.045695,-0.039614,-0.563087,0.046762,-0.027097,-0.563087,0.125591,1.205887,-0.716021,0.760567,2.873071,-13.713056
1790543225.3507,0.033422,-0.028085,-0.571634,0.042760,-0.027393,-0.571634,-0.853008,1.029837,-0.503547,-2.382327,1.757671,-14.683336
1790543225.3650,0.031855,-0.014234,-0.572441,0.039489,-0.023446,-0.572441,-1.056984,0.428836,-0.384561,-4.567022,0.047391,-8.978091
1790543225.3790,0.028561,-0.001127,-0.573935,0.036210,-0.016750,-0.573935,-1.063054,0.614600,-0.356635,-4.030431,-0.361589,-6.455364
1790543225.3931,0.017771,0.015575,-0.575456,0.030679,-0.007052,-0.575456,-1.145616,0.978843,-0.173300,-1.079176,0.902531,-3.428091
1790543225.4075,0.008049,0.028984,-0.583083,0.023890,0.003759,-0.583083,-0.992634,1.116041,-0.306856,-3.187215,0.307651,-4.126693
1790543225.4215,0.001372,0.032911,-0.583830,0.017134,0.012504,-0.583830,-0.186444,0.495614,-0.320211,0.683911,2.426911,-6.494175
1790543225.4356,0.004553,0.024406,-0.586283,0.013360,0.016075,-0.586283,0.497118,-0.348215,0.284432,1.757095,0.419191,-18.448022
1790543225.4499,-0.005661,0.023800,-0.579922,0.007654,0.018392,-0.579922,0.028459,0.434907,0.736092,4.018446,2.798711,-15.226693
1790543225.4637,-0.003683,0.024149,-0.567974,0.004253,0.020119,-0.567974,0.012676,-0.200089,0.613464,-0.619240,1.683311,-6.067252
1790543225.4777,-0.017317,0.015284,-0.564231,-0.002218,0.018669,-0.564231,0.635531,0.619457,0.581896,2.715294,1.125611,-5.407462
1790543225.4916,-0.029835,0.002219,-0.559223,-0.010503,0.013734,-0.559223,0.884430,0.663166,0.659602,1.833751,0.753811,-7.115154
1790543225.5053,-0.046533,-0.010951,-0.549802,-0.021312,0.006329,-0.549802,0.922068,1.045620,0.917000,1.028863,1.423051,-9.327392
1790543225.5190,-0.060939,-0.019159,-0.535469,-0.033200,-0.001318,-0.535469,0.681668,0.977628,0.965565,-0.427600,3.579491,-9.249770
1790543225.5330,-0.066991,-0.027129,-0.521270,-0.043338,-0.009061,-0.521270,0.538399,0.297709,1.011703,0.530599,2.129471,-10.103616
1790543225.5470,-0.071201,-0.033746,-0.506669,-0.051696,-0.016467,-0.506669,0.498332,0.169010,0.930355,0.990535,3.728211,-12.160609
1790543225.5609,-0.056142,-0.035270,-0.492311,-0.053030,-0.022107,-0.492311,0.045457,-1.234538,0.849008,1.258831,1.980751,-13.130889
1790543225.5749,-0.052821,-0.030217,-0.479780,-0.052967,-0.024540,-0.479780,-0.471767,-0.547334,0.799228,4.325070,0.419191,-10.763406
1790543225.5893,-0.050154,-0.024734,-0.467284,-0.052123,-0.024598,-0.467284,-0.560399,-0.499982,0.805299,3.558510,-0.770569,-8.784035
1790543225.6034,-0.043074,-0.014949,-0.458047,-0.049408,-0.021704,-0.458047,-0.797157,-0.820516,0.604965,3.673494,0.307651,-8.279490
1790543225.6174,-0.031180,-0.001545,-0.450222,-0.043940,-0.015656,-0.450222,-1.064268,-1.062130,0.336640,2.332014,0.233291,-8.318301
1790543225.6317,-0.016534,0.016126,-0.445936,-0.035718,-0.006122,-0.445936,-1.298598,-1.275819,0.204298,2.945262,0.753811,-7.852567
1790543225.6462,-0.001915,0.034604,-0.445460,-0.025577,0.006096,-0.445460,-1.293741,-1.211470,0.019749,2.523654,1.460231,-7.852567
1790543225.6603,-0.021352,0.024121,-0.444443,-0.024310,0.011503,-0.444443,0.584537,1.250810,-0.258290,4.171758,-1.030829,-10.336483
1790543225.6743,-0.008535,0.014158,-0.452184,-0.019577,0.012300,-0.452184,0.755731,-0.414993,-1.105761,-6.713389,3.021791,-12.432287
1790543225.6887,0.000828,0.013513,-0.466485,-0.013456,0.012664,-0.466485,0.100094,-0.526694,-0.848363,0.377287,2.426911,-8.978091
1790543225.7027,-0.000317,0.010843,-0.472230,-0.009514,0.012118,-0.472230,0.102522,-0.054392,-0.326282,3.520182,0.270471,-10.103616
1790543225.7167,0.010148,0.000180,-0.470611,-0.003615,0.008536,-0.470611,0.709593,-0.459916,-0.644387,-3.570495,1.014071,-11.539630
1790543225.7309,0.031119,-0.011837,-0.479114,0.006805,0.002424,-0.479114,0.883216,-1.260035,-0.849577,-2.305671,2.761531,-11.694875
1790543225.7446,0.038375,-0.016141,-0.508668,0.016276,-0.003145,-0.508668,0.484977,-0.436847,-1.066909,0.722239,3.951291,-7.658511
1790543225.7583,0.041913,-0.019359,-0.531123,0.023967,-0.008009,-0.531123,0.367205,-0.133312,-0.952779,-0.005993,3.021791,-6.882287
1790543225.7726,0.046682,-0.025698,-0.544269,0.030781,-0.013316,-0.544269,0.379347,-0.174592,-1.072979,-0.389272,1.051251,-9.909560
1790543225.7866,0.051835,-0.028907,-0.566937,0.037098,-0.017993,-0.566937,0.396345,-0.264439,-0.909070,-0.005993,4.992331,-9.637881
1790543225.8004,0.037609,-0.030298,-0.570891,0.037251,-0.021685,-0.570891,-0.028605,1.060190,-0.741518,1.680439,-0.101329,-15.381938
1790543225.8145,0.034181,-0.017300,-0.579612,0.036330,-0.020369,-0.579612,-0.934355,0.595174,-0.628603,-7.020013,2.612811,-14.256413
1790543225.8289,0.026775,-0.002036,-0.579126,0.033463,-0.014869,-0.579126,-1.185683,0.824647,-0.405201,-4.107087,-0.473129,-8.900469
1790543225.8435,0.024610,0.011321,-0.578415,0.030807,-0.007012,-0.578415,-1.063054,0.476188,-0.298357,-3.800463,-0.659029,-7.076343
1790543225.8577,0.014296,0.027320,-0.587627,0.025854,0.003287,-0.587627,-0.913715,0.950917,-0.400345,-0.849208,2.092291,-3.117602
1790543225.8717,0.000263,0.041915,-0.594443,0.018177,0.014876,-0.594443,-0.893074,1.162178,-0.231579,-0.772552,2.426911,-4.864105
1790543225.8860,-0.001415,0.038653,-0.597789,0.012299,0.022009,-0.597789,0.163229,0.254000,0.042817,-3.723807,1.608951,-16.041728
1790543225.9001,0.002254,0.032749,-0.590432,0.009286,0.025231,-0.590432,0.369633,-0.277794,0.624391,-2.727279,1.869211,-13.907112
1790543225.9140,-0.003362,0.028811,-0.581519,0.005491,0.026305,-0.581519,0.196011,0.178723,0.833224,1.220503,0.790991,-11.423196
1790543225.9281,-0.006716,0.020399,-0.576282,0.001829,0.024533,-0.576282,0.471621,0.189650,0.609822,-0.849208,-0.026969,-8.434735
1790543225.9424,-0.019048,0.013557,-0.569628,-0.004434,0.021240,-0.569628,0.544470,0.682592,0.471409,1.297159,1.943571,-6.067252
1790543225.9563,-0.031263,0.003335,-0.563361,-0.012483,0.015869,-0.563361,0.744803,0.720230,0.553971,1.527127,2.203831,-9.948371
1790543225.9700,-0.045928,-0.006247,-0.554616,-0.022516,0.009234,-0.554616,0.713236,0.908422,0.760375,1.488799,2.501271,-10.802217
1790543225.9836,-0.057707,-0.011707,-0.544246,-0.033073,0.002952,-0.544246,0.430341,0.774867,0.832010,0.032335,2.947431,-10.375294
1790543225.9976,-0.061434,-0.018042,-0.531990,-0.041582,-0.003346,-0.531990,0.447339,0.192078,0.891503,-0.389272,2.501271,-10.220049
1790543226.0116,-0.065798,-0.021613,-0.520306,-0.048847,-0.008826,-0.520306,0.257932,0.171438,0.772517,1.105519,2.278191,-9.327392
1790543226.0255,-0.051800,-0.026803,-0.510857,-0.049733,-0.014219,-0.510857,0.185084,-1.064559,0.754305,-0.734224,-0.882109,-13.907112
1790543226.0394,-0.044529,-0.024137,-0.500259,-0.048171,-0.017195,-0.500259,-0.271434,-0.734312,0.651103,2.868606,1.051251,-12.393476
1790543226.0533,-0.040195,-0.018583,-0.489759,-0.045778,-0.017611,-0.489759,-0.539759,-0.601970,0.653531,4.018446,-0.324409,-10.918651
1790543226.0672,-0.034457,-0.009213,-0.481101,-0.042382,-0.015092,-0.481101,-0.781373,-0.763451,0.465339,4.440053,0.047391,-8.201867
1790543226.0813,-0.021663,0.006243,-0.476013,-0.036166,-0.008691,-0.476013,-1.150472,-1.122837,0.204298,2.446998,0.865351,-7.813756
1790543226.0957,-0.009033,0.023849,-0.473476,-0.028026,0.001071,-0.473476,-1.250032,-1.155619,0.070743,3.251886,1.088431,-6.804665
1790543226.1097,-0.004956,0.033316,-0.472972,-0.021105,0.010744,-0.472972,-0.700026,-0.393138,-0.034888,2.025391,1.906391,-11.112707
1790543226.1239,-0.014833,0.023308,-0.481317,-0.019223,0.014514,-0.481317,0.675597,0.785794,-0.567896,1.603783,2.501271,-18.680889
1790543226.1379,-0.000581,0.020138,-0.495955,-0.013631,0.016201,-0.495955,0.281001,-0.702744,-1.176181,-1.807408,2.910251,-10.996273
1790543226.1519,0.005067,0.018205,-0.509095,-0.008022,0.016802,-0.509095,0.174157,-0.408922,-0.785228,1.872079,1.832031,-7.348021
1790543226.1658,0.006521,0.012173,-0.515881,-0.003659,0.015413,-0.515881,0.425484,-0.059249,-0.498690,0.645583,1.423051,-8.007811
1790543226.1799,0.018917,0.005030,-0.525434,0.003114,0.012298,-0.525434,0.527472,-0.648108,-0.818009,-1.692424,2.017931,-9.288581
1790543226.1935,0.028864,-0.001928,-0.538964,0.010839,0.008031,-0.538964,0.560254,-0.571617,-0.845935,-0.427600,2.315371,-8.279490
1790543226.2072,0.034321,-0.006944,-0.556385,0.017883,0.003538,-0.556385,0.449767,-0.287508,-0.929710,0.300631,2.538451,-7.348021
1790543226.2209,0.041681,-0.012105,-0.570270,0.025023,-0.001155,-0.570270,0.374490,-0.379782,-0.986775,-0.389272,1.906391,-9.405014
1790543226.2349,0.049421,-0.016831,-0.585989,0.032342,-0.005857,-0.585989,0.381775,-0.371283,-0.887216,-1.117504,2.612811,-9.094525
1790543226.2503,0.039596,-0.026399,-0.598657,0.034518,-0.012020,-0.598657,0.727805,0.723873,-0.325068,-0.810880,3.505131,-9.055714
1790543226.2652,0.017953,-0.019615,-0.613024,0.029549,-0.014298,-0.613024,-0.407418,1.681831,-0.465908,-4.452038,4.471811,-16.391028
1790543226.2795,0.012485,-0.005754,-0.620558,0.024430,-0.011735,-0.620558,-0.979278,0.720230,-0.572753,-5.870174,2.017931,-13.053266
1790543226.2937,0.008482,0.002223,-0.616538,0.019645,-0.007548,-0.616538,-0.734022,0.646168,-0.456195,-3.340527,-0.956469,-6.338930
1790543226.3090,0.000244,0.015070,-0.624851,0.013825,-0.000763,-0.624851,-0.884575,0.762725,-0.396702,-1.194160,0.493551,-4.747672
1790543226.3228,-0.009536,0.024699,-0.631468,0.006816,0.006876,-0.631468,-0.712167,0.918135,-0.293500,-1.309144,1.051251,-6.261308
1790543226.3369,-0.004306,0.019555,-0.634897,0.003480,0.010680,-0.634897,0.237292,-0.185520,-0.213367,-4.873646,-0.584669,-20.388581
1790543226.3513,-0.002409,0.017247,-0.627783,0.001713,0.012650,-0.627783,0.115878,-0.221944,0.543044,-0.350944,2.166651,-17.050819
1790543226.3654,-0.004630,0.012928,-0.618548,-0.000190,0.012733,-0.618548,0.259146,-0.016754,0.753090,0.683911,1.274331,-10.414105
1790543226.3793,-0.007802,0.009029,-0.606535,-0.002473,0.011622,-0.606535,0.347779,0.189650,0.628034,-0.849208,2.426911,-7.736133
1790543226.3933,-0.016088,0.002713,-0.601518,-0.006558,0.008949,-0.601518,0.476478,0.618242,0.352424,-0.580912,1.199971,-5.252217
1790543226.4073,-0.026704,-0.009256,-0.596660,-0.012602,0.003488,-0.596660,0.856504,0.603673,0.356066,2.370342,1.980751,-11.190329
1790543226.4212,-0.043747,-0.020692,-0.587526,-0.021945,-0.003766,-0.587526,0.850434,1.029837,0.609822,2.408670,2.352551,-9.948371
1790543226.4350,-0.058328,-0.026902,-0.575320,-0.032860,-0.010707,-0.575320,0.532328,0.935133,0.749448,0.990535,3.505131,-9.948371
1790543226.4488,-0.063076,-0.033797,-0.563809,-0.041925,-0.017634,-0.563809,0.514116,0.284353,0.811369,-0.159304,2.241011,-8.822846
1790543226.4627,-0.062031,-0.043640,-0.550035,-0.047957,-0.025436,-0.550035,0.761801,-0.153952,0.777373,0.300631,3.839751,-12.082986
1790543226.4768,-0.051992,-0.046812,-0.541663,-0.049167,-0.031849,-0.541663,0.101308,-0.795019,0.675385,0.492271,0.047391,-13.363756
1790543226.4908,-0.042592,-0.043391,-0.532785,-0.047195,-0.035311,-0.532785,-0.366137,-0.795019,0.629248,1.105519,-0.064149,-10.103616
1790543226.5046,-0.040232,-0.039442,-0.520881,-0.045106,-0.036550,-0.520881,-0.482694,-0.451417,0.713024,3.136902,-1.291089,-8.589979
1790543226.5187,-0.032396,-0.034108,-0.512358,-0.041293,-0.035818,-0.512358,-0.547044,-0.773164,0.473838,2.293686,-0.882109,-7.969000
1790543226.5337,-0.022635,-0.023025,-0.506457,-0.035696,-0.031980,-0.506457,-0.812941,-0.888508,0.250436,3.941790,0.307651,-9.948371
1790543226.5477,-0.011281,-0.006160,-0.504517,-0.028371,-0.024234,-0.504517,-1.228178,-1.037847,0.034318,4.056774,1.608951,-10.802217
1790543226.5619,-0.002140,0.013491,-0.502504,-0.020502,-0.012916,-0.502504,-1.413941,-0.928575,-0.049457,4.133430,1.014071,-7.619700
1790543226.5757,-0.002714,0.020715,-0.499172,-0.015165,-0.002827,-0.499172,-0.674529,-0.079889,-0.312926,4.095102,-0.919289,-12.820399
1790543226.5901,-0.008963,0.013605,-0.508140,-0.013305,0.002103,-0.508140,0.534757,0.807649,-0.719664,-3.455511,2.129471,-8.745224
1790543226.6044,0.003965,0.007725,-0.517144,-0.008124,0.003789,-0.517144,0.410914,-0.475700,-1.048696,-5.065286,1.869211,-11.306763
1790543226.6186,0.006305,0.006867,-0.531278,-0.003795,0.004713,-0.531278,0.081882,-0.055606,-0.894500,0.875551,2.203831,-10.181238
1790543226.6326,0.014008,0.002865,-0.539963,0.001546,0.004158,-0.539963,0.265217,-0.416207,-0.752446,-0.159304,1.460231,-9.831937
1790543226.6466,0.026096,-0.004358,-0.552248,0.008911,0.001603,-0.552248,0.560254,-0.547334,-1.019557,-2.305671,2.166651,-8.085434
1790543226.6602,0.036540,-0.011864,-0.566033,0.017200,-0.002437,-0.566033,0.624603,-0.509696,-1.031698,-1.309144,2.241011,-6.804665
1790543226.6739,0.044622,-0.016348,-0.579747,0.025426,-0.006610,-0.579747,0.457052,-0.411350,-0.901785,-0.657568,2.501271,-5.717951
1790543226.6879,0.056559,-0.021859,-0.591802,0.034766,-0.011185,-0.591802,0.423056,-0.644465,-0.894500,-1.999048,2.724351,-10.452916
1790543226.7018,0.062757,-0.027880,-0.603280,0.043163,-0.016193,-0.603280,0.499547,-0.302077,-0.830151,-0.925864,3.096151,-9.249770
1790543226.7158,0.043137,-0.027284,-0.616983,0.043156,-0.019520,-0.616983,0.095237,1.540990,-0.696595,-0.925864,5.438491,-11.345574
1790543226.7296,0.036080,-0.018596,-0.636930,0.041033,-0.019243,-0.636930,-0.661173,0.886568,-0.723306,-7.633261,2.352551,-15.537182
1790543226.7434,0.031424,-0.008255,-0.651433,0.038150,-0.015947,-0.651433,-0.878505,0.591531,-0.507189,-3.340527,-0.398769,-10.802217
1790543226.7576,0.028958,0.000074,-0.661723,0.035392,-0.011140,-0.661723,-0.710953,0.512612,-0.372419,-4.567022,-0.287229,-8.745224
1790543226.7717,0.020688,0.013770,-0.665568,0.030981,-0.003667,-0.665568,-0.944068,0.787008,-0.266789,-1.462456,1.348691,-5.523895
1790543226.7858,0.011320,0.023576,-0.675841,0.025083,0.004506,-0.675841,-0.791086,0.922992,-0.201225,-2.114032,0.233291,-5.873196
1790543226.7996,0.001299,0.038640,-0.669347,0.017948,0.014746,-0.669347,-0.985349,0.989770,-0.174514,-2.535639,2.575631,-6.532986
1790543226.8136,0.014810,0.035131,-0.677474,0.017006,0.020861,-0.677474,0.108593,-0.955286,0.154518,-1.922392,-0.250049,-16.740329
1790543226.8276,0.018667,0.028730,-0.672073,0.017504,0.023222,-0.672073,0.397559,-0.498768,0.699668,1.182175,1.088431,-11.578441
1790543226.8417,0.010409,0.028511,-0.656422,0.015376,0.024809,-0.656422,0.004177,0.187222,0.765232,2.753622,1.014071,-6.106063
1790543226.8560,0.002977,0.022128,-0.651431,0.011656,0.024004,-0.651431,0.446124,0.567248,0.373064,-1.347472,1.423051,-7.309210
1790543226.8699,-0.011015,0.013114,-0.641080,0.004855,0.020737,-0.641080,0.681668,0.717802,0.366993,3.865134,2.241011,-8.822846
1790543226.8836,-0.024409,0.000863,-0.633831,-0.003924,0.014775,-0.633831,0.928139,0.821004,0.472624,1.680439,2.241011,-9.327392
1790543226.8973,-0.041332,-0.007817,-0.619548,-0.015147,0.007997,-0.619548,0.743589,1.060190,0.645032,1.948735,3.802571,-9.831937
1790543226.9109,-0.051329,-0.016469,-0.604893,-0.026001,0.000657,-0.604893,0.733876,0.621885,0.723951,0.645583,3.728211,-9.715504
1790543226.9248,-0.056005,-0.023172,-0.593779,-0.035002,-0.006492,-0.593779,0.488619,0.266141,0.759161,-0.082648,2.017931,-8.473546
1790543226.9388,-0.053486,-0.025746,-0.588081,-0.040548,-0.012268,-0.588081,0.111021,-0.225586,0.607393,-0.235960,1.237151,-13.208511
1790543226.9527,-0.035158,-0.024694,-0.577360,-0.038931,-0.015996,-0.577360,-0.126951,-1.419088,0.603751,0.607255,1.943571,-14.566903
1790543226.9666,-0.030074,-0.018453,-0.572026,-0.036274,-0.016733,-0.572026,-0.623535,-0.663892,0.523618,3.865134,-1.068009,-9.405014
1790543226.9805,-0.021480,-0.011403,-0.567869,-0.031836,-0.015134,-0.567869,-0.653888,-0.804732,0.387634,2.063719,-0.547489,-9.288581
1790543226.9943,-0.008090,0.001268,-0.562611,-0.024712,-0.010213,-0.562611,-0.980493,-1.246680,0.133878,3.596838,0.605091,-8.201867
1790543227.0083,0.001232,0.016071,-0.557988,-0.016929,-0.002328,-0.557988,-1.094622,-0.941930,0.119308,3.021918,0.902531,-6.921098
1790543227.0223,0.014776,0.033113,-0.554504,-0.007417,0.008304,-0.554504,-1.191753,-1.158048,0.046460,2.063719,1.943571,-7.619700
1790543227.0363,0.004677,0.028072,-0.554535,-0.003789,0.014235,-0.554535,0.217866,0.632812,-0.132019,3.098574,-0.547489,-13.829490
1790543227.0501,-0.007856,0.025332,-0.567295,-0.005009,0.017564,-0.567295,0.243363,1.109970,-0.666242,-1.079176,4.100011,-15.381938
1790543227.0640,0.003325,0.026799,-0.577187,-0.002509,0.020335,-0.577187,-0.177945,-0.527908,-1.043840,-1.654096,0.865351,-13.092077
1790543227.0780,0.006616,0.023497,-0.585171,0.000228,0.021283,-0.585171,0.152302,-0.132097,-0.706308,0.415615,0.419191,-7.542077
1790543227.0919,0.012983,0.016068,-0.589531,0.004055,0.019719,-0.589531,0.503189,-0.258368,-0.552112,-1.309144,1.088431,-7.697322
1790543227.1061,0.023913,0.006965,-0.598404,0.010012,0.015893,-0.598404,0.652529,-0.498768,-0.855648,-2.229015,2.203831,-9.870749
1790543227.1199,0.036527,-0.000337,-0.609767,0.017967,0.011024,-0.609767,0.567539,-0.734312,-0.967349,-0.657568,2.464091,-9.133336
1790543227.1336,0.039429,-0.004061,-0.625109,0.024405,0.006498,-0.625109,0.351421,-0.064105,-1.032913,0.108991,3.133331,-8.551168
1790543227.1476,0.046659,-0.007646,-0.636827,0.031081,0.002255,-0.636827,0.283429,-0.343358,-0.887216,-0.887536,2.426911,-9.210958
1790543227.1615,0.056321,-0.015564,-0.647179,0.038653,-0.003091,-0.647179,0.527472,-0.463558,-0.826508,-2.305671,1.460231,-10.181238
1790543227.1754,0.053034,-0.022663,-0.653491,0.042967,-0.008962,-0.653491,0.637959,0.279497,-0.395488,-0.159304,5.141051,-12.160609
1790543227.1893,0.036904,-0.016093,-0.664452,0.041148,-0.011102,-0.664452,-0.481480,1.337014,-0.525401,-2.842263,3.170511,-16.779140
1790543227.2032,0.034730,-0.004197,-0.676866,0.039223,-0.009030,-0.676866,-0.911286,0.471331,-0.566682,-5.256926,1.348691,-12.742777
1790543227.2172,0.030451,0.003055,-0.691041,0.036591,-0.005405,-0.691041,-0.681814,0.655881,-0.468336,-3.493839,-0.696209,-6.921098
1790543227.2312,0.017872,0.017034,-0.696507,0.030976,0.001327,-0.696507,-0.991420,1.010410,-0.285001,-0.312616,0.865351,-3.893825
1790543227.2452,0.009508,0.030105,-0.697090,0.024535,0.009960,-0.697090,-0.843295,0.774867,-0.268003,-0.964192,1.832031,-4.864105
1790543227.2590,0.011242,0.029786,-0.702514,0.020547,0.015908,-0.702514,-0.046817,-0.003398,-0.091952,-3.647151,1.869211,-20.660259
1790543227.2730,0.011289,0.023697,-0.700423,0.017770,0.018245,-0.700423,0.375704,-0.043465,0.404632,-1.385800,1.869211,-18.797322
1790543227.2870,0.004862,0.021431,-0.692852,0.013898,0.019201,-0.692852,0.114664,0.319563,0.830796,-0.312616,1.571771,-13.363756
1790543227.3008,0.006851,0.012467,-0.691704,0.011783,0.017180,-0.691704,0.408486,-0.145453,0.821082,-2.114032,-1.700068,-7.619700
1790543227.3147,-0.005473,0.003840,-0.687332,0.006607,0.013178,-0.687332,0.591821,0.858642,0.495692,-0.504256,0.976891,-7.115154
1790543227.3288,-0.019950,-0.005395,-0.684399,-0.001360,0.007606,-0.684399,0.620961,0.952131,0.544258,0.300631,1.311511,-10.879840
1790543227.3426,-0.034888,-0.014617,-0.675544,-0.011419,0.000939,-0.675544,0.696238,0.931491,0.646246,1.527127,2.501271,-10.685784
1790543227.3567,-0.049332,-0.022327,-0.659515,-0.022793,-0.006041,-0.659515,0.601535,0.904780,0.794371,0.607255,2.649991,-8.784035
1790543227.3706,-0.056321,-0.027655,-0.639694,-0.032851,-0.012525,-0.639694,0.432769,0.450691,0.864792,-0.504256,2.798711,-9.094525
1790543227.3847,-0.050923,-0.030820,-0.628967,-0.038273,-0.018013,-0.628967,0.158373,-0.444132,0.755519,-0.350944,1.423051,-12.199420
1790543227.3988,-0.041064,-0.029382,-0.621542,-0.039110,-0.021424,-0.621542,-0.171874,-0.803518,0.602537,0.760567,1.162791,-12.432287
1790543227.4131,-0.034116,-0.026263,-0.621360,-0.037612,-0.022876,-0.621360,-0.381921,-0.631110,0.649888,0.952207,-0.584669,-8.589979
1790543227.4270,-0.027945,-0.022303,-0.621615,-0.034712,-0.022704,-0.621615,-0.452341,-0.662678,0.630462,1.642111,-0.584669,-7.115154
1790543227.4409,-0.018549,-0.016985,-0.620113,-0.029863,-0.020988,-0.620113,-0.493622,-0.848441,0.468981,1.297159,0.047391,-7.619700
1790543227.4549,-0.006601,-0.007134,-0.618736,-0.022884,-0.016832,-0.618736,-0.766804,-1.088841,0.229795,4.401726,0.865351,-12.975644
1790543227.4688,0.004077,0.010767,-0.617463,-0.014796,-0.008552,-0.617463,-1.309525,-1.007494,-0.033674,4.861661,1.720491,-11.694875
1790543227.4828,0.005566,0.025718,-0.617760,-0.008687,0.001729,-0.617760,-1.084909,-0.336073,-0.195155,4.286742,1.534591,-8.822846
1790543227.4966,-0.006867,0.024566,-0.623275,-0.008141,0.008580,-0.623275,0.098880,1.126968,-0.573967,-1.730752,2.687171,-12.471098
1790543227.5106,0.015463,0.018516,-0.609999,-0.001060,0.011561,-0.609999,0.506831,-1.161690,-0.991632,-6.330110,3.876931,-12.121798
1790543227.5245,0.010851,0.016023,-0.620350,0.002513,0.012900,-0.620350,0.291928,0.460404,-0.882359,0.683911,3.653851,-8.939280
1790543227.5384,0.013282,0.010056,-0.631051,0.005744,0.012047,-0.631051,0.402415,-0.027681,-0.756088,-0.235960,1.720491,-11.927742
1790543227.5524,0.023820,0.007937,-0.640000,0.011167,0.010814,-0.640000,0.143803,-0.588615,-0.813153,-0.657568,2.055111,-11.151518
1790543227.5664,0.030914,-0.000131,-0.653903,0.017091,0.007530,-0.653903,0.523829,-0.275366,-1.085121,-0.925864,1.162791,-9.560259
1790543227.5799,0.036351,-0.005820,-0.663135,0.022869,0.003525,-0.663135,0.475264,-0.129669,-1.130044,-0.964192,1.757671,-5.679140
1790543227.5936,0.044915,-0.005537,-0.669666,0.029483,0.000806,-0.669666,0.100094,-0.365213,-1.134900,-1.079176,2.649991,-5.912007
1790543227.6081,0.050297,-0.010039,-0.682688,0.035727,-0.002447,-0.682688,0.291928,-0.173378,-1.035341,-0.887536,1.943571,-9.482637
1790543227.6222,0.053897,-0.016329,-0.691367,0.041178,-0.006612,-0.691367,0.469193,-0.051964,-0.871432,-1.654096,2.649991,-10.142427
1790543227.6362,0.047212,-0.015550,-0.696392,0.042988,-0.009293,-0.696392,0.027245,0.675307,-0.643173,-2.458983,4.397451,-12.082986
1790543227.6503,0.028350,-0.006343,-0.704367,0.038597,-0.008408,-0.704367,-0.629606,1.436574,-0.509617,-0.312616,3.728211,-15.149070
1790543227.6643,0.023508,0.003848,-0.721215,0.034070,-0.004732,-0.721215,-0.797157,0.661951,-0.470765,-4.605350,0.902531,-10.957462
1790543227.6783,0.016719,0.011655,-0.736095,0.028865,0.000184,-0.736095,-0.653888,0.760297,-0.308070,-3.302199,0.270471,-8.706413
1790543227.6922,0.009225,0.021915,-0.739539,0.022973,0.006704,-0.739539,-0.740092,0.823432,-0.213367,-2.267343,1.088431,-5.485084
1790543227.7062,0.004152,0.030621,-0.743995,0.017326,0.013879,-0.743995,-0.630820,0.614600,-0.207296,-2.612295,1.385871,-7.386832
1790543227.7202,0.010412,0.025610,-0.751242,0.015252,0.017398,-0.751242,0.260361,-0.430776,0.135092,-1.654096,0.902531,-17.865854
1790543227.7343,0.009401,0.021525,-0.747213,0.013497,0.018636,-0.747213,0.234864,-0.100530,0.761589,0.377287,1.311511,-12.160609
1790543227.7483,0.003542,0.013541,-0.743532,0.010510,0.017108,-0.743532,0.491048,0.143513,0.999561,1.488799,0.679451,-10.181238
1790543227.7622,-0.006388,0.006864,-0.726578,0.005441,0.014035,-0.726578,0.554183,0.708089,0.567327,-0.964192,2.241011,-7.386832
1790543227.7762,-0.021788,-0.000733,-0.716666,-0.002728,0.009604,-0.716666,0.569967,0.847715,0.680242,2.600310,2.166651,-9.055714
1790543227.7901,-0.033398,-0.012732,-0.707529,-0.011929,0.002903,-0.707529,0.857719,0.721444,0.674171,0.607255,2.055111,-10.879840
1790543227.8036,-0.053225,-0.021619,-0.692869,-0.024318,-0.004453,-0.692869,0.688953,1.208315,0.892717,2.676966,2.389731,-9.133336
1790543227.8174,-0.063354,-0.029428,-0.672266,-0.036029,-0.011946,-0.672266,0.619747,0.700804,0.924284,-0.810880,3.096151,-9.909560
1790543227.8310,-0.066378,-0.037031,-0.655795,-0.045133,-0.019471,-0.655795,0.538399,0.120444,0.927927,0.262303,1.943571,-9.172147
1790543227.8454,-0.058164,-0.041375,-0.634251,-0.049043,-0.026042,-0.634251,0.330781,-0.711243,0.824725,1.220503,3.319231,-11.617252
1790543227.8599,-0.044848,-0.043467,-0.633354,-0.047784,-0.031270,-0.633354,-0.007965,-1.026920,0.664458,0.913879,-0.473129,-11.539630
1790543227.8739,-0.039034,-0.041899,-0.636796,-0.045159,-0.034459,-0.636796,-0.306644,-0.691817,0.732450,3.481854,-1.291089,-9.870749
1790543227.8879,-0.034518,-0.038359,-0.637248,-0.041967,-0.035629,-0.637248,-0.455983,-0.626253,0.755519,2.906934,-1.179549,-7.425644
1790543227.9019,-0.028054,-0.031236,-0.634528,-0.037793,-0.034311,-0.634528,-0.634462,-0.730669,0.506620,3.213558,-0.324409,-8.667602
1790543227.9159,-0.019348,-0.018232,-0.631854,-0.032260,-0.029487,-0.631854,-1.014489,-0.864225,0.320856,3.405198,0.270471,-9.715504
1790543227.9301,-0.009057,0.000956,-0.628745,-0.025299,-0.020354,-0.628745,-1.399372,-0.997781,0.086526,4.440053,1.088431,-9.676693
1790543227.9441,0.001112,0.021518,-0.624508,-0.017376,-0.007793,-0.624508,-1.537784,-1.029348,0.007607,4.210086,0.530731,-7.774944
1790543227.9579,0.003338,0.038579,-0.626678,-0.011161,0.006119,-0.626678,-1.231820,-0.357928,-0.087096,3.098574,1.720491,-8.279490
1790543227.9719,0.009418,0.036098,-0.637664,-0.004988,0.015112,-0.637664,0.250647,-0.351857,-0.713593,0.722239,2.575631,-7.542077
1790543227.9858,0.017679,0.029877,-0.641200,0.001812,0.019542,-0.641200,0.625817,-0.276580,-0.852005,-1.999048,3.802571,-6.610609
1790543227.9998,0.013338,0.024690,-0.652487,0.005270,0.021086,-0.652487,0.420627,0.331705,-0.722092,1.987063,2.724351,-8.978091
1790543228.0137,0.020544,0.024493,-0.661717,0.009852,0.022108,-0.661717,-0.020106,-0.370069,-0.798583,-0.082648,1.311511,-8.473546
1790543228.0277,0.035511,0.014565,-0.666242,0.017550,0.019845,-0.666242,0.650100,-0.825373,-0.760945,-2.190688,1.088431,-9.948371
1790543228.0414,0.046645,0.001964,-0.675115,0.026278,0.014481,-0.675115,0.831007,-0.447774,-1.147042,-2.727279,0.679451,-8.473546
1790543228.0550,0.057992,-0.003899,-0.685032,0.035792,0.008967,-0.685032,0.549326,-0.583758,-1.053553,-1.270816,3.096151,-6.610609
1790543228.0690,0.062515,-0.011899,-0.698710,0.043809,0.002707,-0.698710,0.586965,-0.179449,-1.048696,-0.120976,2.426911,-8.667602
1790543228.0830,0.068311,-0.020924,-0.711766,0.051160,-0.004382,-0.711766,0.657385,-0.214659,-1.014700,-1.309144,2.538451,-9.327392
1790543228.0969,0.052043,-0.022785,-0.728270,0.051425,-0.009903,-0.728270,0.107379,1.406221,-0.998917,-2.573967,3.393591,-15.770049
1790543228.1114,0.044208,-0.008441,-0.739191,0.049260,-0.009464,-0.739191,-1.003561,0.886568,-0.685668,-6.866701,2.687171,-14.101168
1790543228.1254,0.038360,0.004445,-0.750918,0.045990,-0.005292,-0.750918,-1.025416,0.768796,-0.601892,-5.333582,0.419191,-11.617252
1790543228.1394,0.036349,0.013482,-0.763554,0.043098,0.000340,-0.763554,-0.822654,0.462832,-0.526615,-2.727279,-0.659029,-6.532986
1790543228.1533,0.030891,0.025016,-0.765145,0.039436,0.007743,-0.765145,-0.758305,0.709303,-0.683240,-1.615768,1.683311,-4.670049
1790543228.1672,0.023407,0.033601,-0.769528,0.034627,0.015501,-0.769528,-0.571327,0.986127,-0.678383,-2.458983,1.348691,-4.126693
1790543228.1812,0.011456,0.045031,-0.777093,0.027676,0.024360,-0.777093,-0.788658,1.182818,-0.532686,-3.800463,3.207691,-11.112707
1790543228.1951,0.018994,0.034277,-0.795067,0.025071,0.027335,-0.795067,0.591821,-0.498768,-0.030031,-1.615768,-1.253909,-17.012007
1790543228.2089,0.016347,0.028710,-0.787562,0.022454,0.027747,-0.787562,0.391488,-0.016754,0.723951,1.297159,2.538451,-14.372847
1790543228.2229,0.005362,0.022213,-0.785419,0.017326,0.026087,-0.785419,0.413343,0.507755,0.670529,1.872079,0.753811,-6.959909
1790543228.2369,-0.004138,0.012347,-0.781551,0.010887,0.021965,-0.781551,0.710807,0.513826,0.394919,1.105519,1.199971,-6.028441
1790543228.2508,-0.015796,0.000924,-0.778744,0.002882,0.015653,-0.778744,0.795797,0.728729,0.476266,0.645583,1.162791,-7.969000
1790543228.2645,-0.029570,-0.009139,-0.770012,-0.006854,0.008215,-0.770012,0.735090,0.861071,0.721523,0.952207,1.980751,-10.142427
1790543228.2784,-0.043029,-0.017417,-0.753067,-0.017706,0.000526,-0.753067,0.647672,0.810077,0.901216,0.952207,2.835891,-9.560259
1790543228.2920,-0.050685,-0.025129,-0.736436,-0.027600,-0.007171,-0.736436,0.557825,0.368129,1.051769,1.258831,2.315371,-10.336483
1790543228.3060,-0.060130,-0.032160,-0.720606,-0.037359,-0.014668,-0.720606,0.481334,0.533252,1.022630,0.492271,1.534591,-7.464455
1790543228.3202,-0.058265,-0.038996,-0.707217,-0.043631,-0.021966,-0.707217,0.450981,-0.214659,0.810155,0.147319,1.794851,-10.336483
1790543228.3363,-0.050777,-0.035743,-0.690832,-0.045775,-0.026099,-0.690832,-0.216797,-0.635966,0.731236,2.983590,3.282051,-15.964105
1790543228.3511,-0.049025,-0.024305,-0.682274,-0.046750,-0.025561,-0.682274,-0.884575,-0.408922,0.700882,4.976645,0.158931,-12.199420
1790543228.3662,-0.045389,-0.010945,-0.670529,-0.046341,-0.021176,-0.670529,-0.958638,-0.632324,0.556399,5.628221,0.642271,-8.085434
1790543228.3809,-0.037378,0.005029,-0.665500,-0.043652,-0.013315,-0.665500,-1.205109,-0.797447,0.326927,3.136902,-0.026969,-8.085434
1790543228.3960,-0.024793,0.023442,-0.658816,-0.037995,-0.002288,-0.658816,-1.296170,-1.194472,0.223724,3.481854,0.382011,-5.252217
1790543228.4101,-0.013200,0.039369,-0.655680,-0.030556,0.010209,-0.655680,-1.118905,-1.047561,0.113238,2.676966,1.906391,-7.697322
1790543228.4239,-0.023300,0.032081,-0.652094,-0.028380,0.016771,-0.652094,0.328353,0.658309,-0.013033,2.676966,-1.997508,-15.110259
1790543228.4380,-0.005581,0.022390,-0.652954,-0.021540,0.018456,-0.652954,0.798226,-0.878795,-0.592179,-6.713389,4.843611,-12.160609
1790543228.4520,-0.008259,0.019821,-0.667015,-0.017556,0.018866,-0.667015,0.191155,0.171438,-0.752446,3.098574,1.906391,-9.987182
1790543228.4659,-0.008040,0.016474,-0.676226,-0.014701,0.018148,-0.676226,0.249433,0.011171,-0.566682,1.143847,1.460231,-7.503266
1790543228.4799,0.002583,0.012046,-0.680248,-0.009516,0.016317,-0.680248,0.264003,-0.648108,-0.561825,-0.312616,1.014071,-11.073895
1790543228.4935,0.014544,0.002491,-0.686549,-0.002298,0.012170,-0.686549,0.681668,-0.620183,-0.805868,-1.692424,1.162791,-8.007811
1790543228.5071,0.021167,-0.005280,-0.699305,0.004742,0.006935,-0.699305,0.651314,-0.354285,-0.869003,0.032335,2.278191,-7.037532
1790543228.5207,0.029760,-0.009098,-0.712971,0.012247,0.002125,-0.712971,0.361134,-0.481770,-0.963706,-0.159304,2.687171,-8.124245
1790543228.5347,0.038275,-0.014709,-0.726888,0.020055,-0.002925,-0.726888,0.425484,-0.431991,-1.023199,-0.619240,2.389731,-9.754315
1790543228.5487,0.040128,-0.020377,-0.741568,0.026077,-0.008161,-0.741568,0.446124,0.067022,-0.979490,-1.079176,2.612811,-9.366203
1790543228.5626,0.020350,-0.023391,-0.756679,0.024359,-0.012730,-0.756679,0.193583,1.598055,-0.845935,-0.810880,1.832031,-11.811308
1790543228.5765,0.014543,-0.012792,-0.769609,0.021414,-0.012749,-0.769609,-0.777731,0.839216,-0.836222,-7.479949,2.092291,-13.984735
1790543228.5904,0.010308,0.000108,-0.780429,0.018082,-0.008892,-0.780429,-1.014489,0.589103,-0.638316,-2.957247,0.344831,-10.142427
1790543228.6047,0.010281,0.010544,-0.788922,0.015742,-0.003061,-0.788922,-0.856650,0.471331,-0.589751,-4.222071,-0.473129,-5.562707
1790543228.6189,0.000810,0.026885,-0.790786,0.011262,0.005923,-0.790786,-0.974422,0.779723,-0.581252,0.108991,2.426911,-4.592427
1790543228.6330,0.001490,0.032821,-0.795111,0.008331,0.013992,-0.795111,-0.386777,0.107089,-0.394274,-0.619240,1.348691,-5.096972
1790543228.6470,0.002866,0.026204,-0.794260,0.006691,0.017656,-0.794260,0.429126,-0.245013,0.201870,2.676966,1.980751,-15.498371
1790543228.6610,-0.001917,0.023362,-0.789337,0.004109,0.019368,-0.789337,0.135304,0.171438,0.615892,1.335487,1.311511,-14.178791
1790543228.6749,-0.003539,0.018765,-0.782630,0.001814,0.019187,-0.782630,0.244577,0.011171,0.708167,-0.542584,0.828171,-12.665154
1790543228.6889,-0.016833,0.010057,-0.777082,-0.003780,0.016448,-0.777082,0.684096,0.731158,0.467767,2.025391,2.129471,-7.037532
1790543228.7030,-0.029878,0.003328,-0.772227,-0.011609,0.012512,-0.772227,0.489833,0.717802,0.500549,1.987063,1.608951,-7.386832
1790543228.7169,-0.042455,-0.007215,-0.765026,-0.020863,0.006594,-0.765026,0.752088,0.733586,0.647460,1.642111,1.980751,-9.909560
1790543228.7305,-0.058367,-0.016097,-0.755539,-0.032114,-0.000213,-0.755539,0.697452,1.035907,0.788301,0.875551,2.649991,-8.939280
1790543228.7441,-0.065630,-0.021851,-0.743843,-0.042169,-0.006705,-0.743843,0.433983,0.464046,0.893931,-0.235960,2.612811,-9.987182
1790543228.7580,-0.068989,-0.024924,-0.730533,-0.050215,-0.012170,-0.730533,0.254290,0.170224,0.909715,-0.274288,3.133331,-9.793126
1790543228.7720,-0.071758,-0.029077,-0.720165,-0.056678,-0.017242,-0.720165,0.230007,0.120444,0.813798,0.108991,1.348691,-9.754315
1790543228.7860,-0.057870,-0.028998,-0.708015,-0.057036,-0.020769,-0.708015,-0.034676,-1.024492,0.771303,-1.002520,2.278191,-10.918651
1790543228.7999,-0.047292,-0.022864,-0.697332,-0.054112,-0.021398,-0.697332,-0.520333,-0.911577,0.657173,1.872079,1.348691,-14.217602
1790543228.8139,-0.038215,-0.018574,-0.689094,-0.049343,-0.020550,-0.689094,-0.520333,-0.903078,0.674171,2.753622,-1.439808,-9.405014
1790543228.8279,-0.034504,-0.011242,-0.681418,-0.044892,-0.017758,-0.681418,-0.681814,-0.595900,0.545472,4.171758,-0.659029,-8.900469
1790543228.8419,-0.023675,0.001464,-0.676101,-0.038527,-0.011991,-0.676101,-1.043628,-1.026920,0.260149,3.520182,-0.398769,-9.366203
1790543228.8560,-0.013370,0.019501,-0.674139,-0.030980,-0.002544,-0.674139,-1.304669,-1.003851,0.142377,4.440053,1.534591,-9.909560
1790543228.8706,-0.006818,0.039603,-0.674225,-0.023731,0.010100,-0.674225,-1.405442,-0.741597,-0.033674,5.359925,1.460231,-9.133336
1790543228.8848,-0.013034,0.044209,-0.672932,-0.020522,0.020333,-0.672932,-0.452341,0.569677,-0.391846,-0.504256,-0.064149,-16.080539
1790543228.8987,0.009345,0.040203,-0.673245,-0.011562,0.026294,-0.673245,0.277359,-1.166547,-0.890858,-7.058341,2.612811,-13.829490
1790543228.9127,0.003234,0.037444,-0.691101,-0.007123,0.029639,-0.691101,0.312569,0.547822,-0.757302,1.182175,4.508991,-10.646972
1790543228.9268,-0.003223,0.032690,-0.700262,-0.005953,0.030554,-0.700262,0.283429,0.653452,-0.719664,-0.504256,1.274331,-11.772497
1790543228.9408,0.013703,0.030959,-0.705030,-0.000056,0.030676,-0.705030,0.089167,-0.926146,-0.831365,-2.343999,1.423051,-9.831937
1790543228.9543,0.017603,0.021896,-0.717556,0.005242,0.028042,-0.717556,0.569967,-0.136954,-0.996488,0.683911,0.567911,-10.957462
1790543228.9680,0.029845,0.015248,-0.733593,0.012623,0.024204,-0.733593,0.631888,-0.609255,-1.110618,-1.117504,2.984611,-6.106063
1790543228.9816,0.037365,0.011934,-0.751380,0.020045,0.020523,-0.751380,0.355064,-0.363999,-1.137329,-0.044320,3.058971,-7.037532
1790543228.9956,0.040205,0.006343,-0.768618,0.026093,0.016269,-0.768618,0.464337,0.005101,-1.102119,-0.427600,3.021791,-8.473546
1790543229.0096,0.048235,0.001757,-0.784504,0.032736,0.011915,-0.784504,0.418199,-0.247441,-1.018343,-2.650623,3.393591,-8.163056
1790543229.0235,0.042464,0.001786,-0.798428,0.035654,0.008876,-0.798428,0.272502,0.567248,-0.759731,-0.542584,6.962870,-8.201867
1790543229.0375,0.032132,0.003997,-0.811843,0.034597,0.007413,-0.811843,-0.187658,0.936348,-0.669884,-2.535639,3.170511,-18.564455
1790543229.0514,0.031818,0.014465,-0.824522,0.033764,0.009528,-0.824522,-0.785016,0.370557,-0.413700,-5.678534,1.571771,-10.841028
1790543229.0654,0.032532,0.021254,-0.832244,0.033394,0.013046,-0.832244,-0.611393,0.249143,-0.158730,-4.682006,-0.250049,-9.055714
1790543229.0793,0.028233,0.032446,-0.839057,0.031846,0.018866,-0.839057,-0.902787,0.541751,-0.130805,-2.727279,0.307651,-7.464455
1790543229.0931,0.026891,0.038152,-0.843868,0.030359,0.024652,-0.843868,-0.656317,0.471331,-0.232793,-2.497311,-1.030829,-3.855014
1790543229.1071,0.024705,0.039828,-0.848436,0.028663,0.029205,-0.848436,-0.168232,0.216361,-0.090738,-0.734224,1.348691,-9.521448
1790543229.1218,0.026352,0.030845,-0.851800,0.027970,0.029697,-0.851800,0.476478,-0.143025,0.308714,-1.194160,-0.510309,-14.101168
1790543229.1361,0.025368,0.025331,-0.843464,0.027189,0.028387,-0.843464,0.346565,-0.033752,0.753090,-1.347472,1.460231,-13.053266
1790543229.1502,0.022032,0.018808,-0.839237,0.025642,0.025513,-0.839237,0.379347,0.136228,0.697240,-0.734224,0.419191,-9.948371
1790543229.1642,0.010056,0.009737,-0.835907,0.020966,0.020781,-0.835907,0.620961,0.630384,0.632890,1.220503,0.790991,-6.106063
1790543229.1781,-0.001393,-0.002493,-0.832646,0.014259,0.013798,-0.832646,0.812795,0.686234,0.681456,0.338959,0.493551,-6.998721
1790543229.1918,-0.017723,-0.012652,-0.823350,0.004664,0.005863,-0.823350,0.749660,1.068689,0.805299,0.300631,1.460231,-7.736133
1790543229.2054,-0.032404,-0.020727,-0.811584,-0.006456,-0.002114,-0.811584,0.584537,0.948489,0.919428,0.377287,2.203831,-12.082986
1790543229.2193,-0.040099,-0.029559,-0.797061,-0.016549,-0.010347,-0.797061,0.612462,0.436121,0.994705,0.108991,1.794851,-10.646972
1790543229.2335,-0.042978,-0.031571,-0.777328,-0.024478,-0.016715,-0.777328,0.189940,0.102232,0.851436,0.147319,2.241011,-7.658511
1790543229.2476,-0.028600,-0.036535,-0.764169,-0.025714,-0.022661,-0.764169,0.288286,-1.240609,0.901216,2.370342,1.423051,-13.208511
1790543229.2616,-0.017722,-0.031768,-0.757592,-0.023317,-0.025393,-0.757592,-0.442628,-0.964999,0.676599,1.757095,0.158931,-10.879840
1790543229.2756,-0.014384,-0.026112,-0.748752,-0.020637,-0.025609,-0.748752,-0.605323,-0.550976,0.732450,3.366870,-1.625708,-8.939280
1790543229.2898,-0.010879,-0.014801,-0.741064,-0.017709,-0.022366,-0.741064,-0.891860,-0.566760,0.460482,3.941790,0.010211,-8.473546
1790543229.3039,-0.000396,-0.000209,-0.736419,-0.012515,-0.015719,-0.736419,-1.155329,-1.002637,0.252864,3.405198,-0.324409,-9.249770
1790543229.3179,0.004855,0.016159,-0.734218,-0.007304,-0.006156,-0.734218,-1.224535,-0.640823,0.133878,3.520182,0.753811,-8.434735
1790543229.3318,0.013946,0.032649,-0.732710,-0.000929,0.005486,-0.732710,-1.223321,-0.897007,0.065886,3.328542,1.199971,-8.978091
1790543229.3460,-0.003573,0.033238,-0.729914,-0.001722,0.013811,-0.729914,-0.220440,1.088115,-0.176942,6.509765,-1.923148,-16.391028
1790543229.3602,0.016598,0.029059,-0.717592,0.003774,0.018386,-0.717592,0.324710,-1.057274,-0.801011,-3.953775,2.687171,-9.987182
1790543229.3750,0.007585,0.023524,-0.739163,0.004917,0.019927,-0.739163,0.501975,0.552679,-0.617676,2.408670,2.984611,-6.377742
1790543229.3892,0.005523,0.019544,-0.750549,0.005099,0.019812,-0.750549,0.266431,0.244287,-0.680811,0.492271,1.274331,-7.542077
1790543229.4034,0.022895,0.015454,-0.751707,0.010438,0.018505,-0.751707,0.253076,-1.037847,-0.694167,-1.500784,1.534591,-11.073895
1790543229.4172,0.027636,0.003335,-0.759808,0.015597,0.013954,-0.759808,0.733876,-0.119956,-1.105761,-0.465928,-0.212869,-8.784035
1790543229.4310,0.043311,-0.004411,-0.767796,0.023911,0.008445,-0.767796,0.634316,-0.825373,-1.160397,-1.769080,2.538451,-7.115154
1790543229.4452,0.052130,-0.010714,-0.782757,0.032377,0.002697,-0.782757,0.474050,-0.419849,-1.132472,-0.695896,2.315371,-8.007811
1790543229.4592,0.058106,-0.018799,-0.798243,0.040096,-0.003752,-0.798243,0.597892,-0.265653,-1.060838,-0.427600,2.389731,-8.706413
1790543229.4731,0.054101,-0.026227,-0.809606,0.044297,-0.010494,-0.809606,0.673169,0.444620,-0.734234,-1.194160,4.434631,-9.172147
1790543229.4874,0.041042,-0.019685,-0.820105,0.043321,-0.013252,-0.820105,-0.421987,1.107542,-0.689310,-3.072231,4.992331,-17.788231
1790543229.5013,0.038946,-0.007426,-0.817474,0.042009,-0.011504,-0.817474,-0.928284,0.564820,-0.641959,-7.709917,1.460231,-12.471098
1790543229.5153,0.036846,0.001449,-0.818721,0.040460,-0.007618,-0.818721,-0.760733,0.566034,-0.519330,-3.915447,-0.250049,-5.989630
1790543229.5294,0.030787,0.012616,-0.824036,0.037558,-0.001548,-0.824036,-0.860293,0.670450,-0.452553,-1.424128,0.493551,-5.135783
1790543229.5437,0.025144,0.022636,-0.831922,0.033834,0.005707,-0.831922,-0.704882,0.545394,-0.567896,-0.734224,2.129471,-9.870749
1790543229.5577,0.024324,0.029056,-0.838975,0.030981,0.012712,-0.838975,-0.514262,0.201792,-0.446482,-1.539112,1.832031,-14.993826
1790543229.5717,0.027160,0.026573,-0.843304,0.029835,0.016870,-0.843304,0.063670,-0.217087,0.045246,-0.350944,0.196111,-16.817952
1790543229.5859,0.024175,0.023663,-0.843749,0.028137,0.018908,-0.843749,0.145017,0.003886,0.544258,2.217030,1.237151,-15.226693
1790543229.6001,0.015871,0.017035,-0.839201,0.024457,0.018346,-0.839201,0.540827,0.409410,0.523618,0.645583,1.534591,-4.825294
1790543229.6143,0.008408,0.007309,-0.835051,0.019642,0.015035,-0.835051,0.686525,0.427622,0.450769,0.262303,1.348691,-7.386832
1790543229.6286,-0.003400,-0.001318,-0.831182,0.012730,0.010129,-0.831182,0.701094,0.596388,0.596466,1.642111,2.241011,-6.300119
1790543229.6427,-0.019995,-0.011760,-0.822549,0.002912,0.003562,-0.822549,0.764230,0.966701,0.915785,1.297159,1.980751,-8.667602
1790543229.6563,-0.029155,-0.019880,-0.806911,-0.006708,-0.003471,-0.806911,0.612462,0.524753,1.131903,-0.005993,2.352551,-9.948371
1790543229.6700,-0.037627,-0.024399,-0.789331,-0.015984,-0.009749,-0.789331,0.344136,0.472545,1.216893,-0.082648,2.575631,-10.220049
1790543229.6840,-0.045117,-0.028753,-0.772697,-0.024724,-0.015450,-0.772697,0.307712,0.411838,1.122190,-0.082648,2.129471,-9.366203
1790543229.6979,-0.049721,-0.033981,-0.759598,-0.032223,-0.021010,-0.759598,0.378132,0.159297,0.953424,1.220503,2.278191,-9.909560
1790543229.7119,-0.028821,-0.034897,-0.744605,-0.031202,-0.025176,-0.744605,0.158373,-1.649775,0.711810,1.757095,5.884650,-15.381938
1790543229.7260,-0.021739,-0.024887,-0.737788,-0.028363,-0.025089,-0.737788,-0.726737,-0.750096,0.475052,3.711822,1.794851,-11.345574
1790543229.7399,-0.015245,-0.012186,-0.730483,-0.024428,-0.021218,-0.730483,-1.033915,-0.759809,0.519975,3.711822,-0.324409,-9.676693
1790543229.7539,-0.013118,0.000726,-0.724121,-0.021035,-0.014635,-0.724121,-1.070339,-0.577688,0.470195,5.398253,-0.807749,-7.658511
1790543229.7680,-0.002158,0.014751,-0.716985,-0.015372,-0.005819,-0.716985,-1.141973,-1.041490,0.254078,2.408670,-0.361589,-6.765853
1790543229.7824,0.009050,0.031516,-0.716916,-0.008045,0.005381,-0.716916,-1.150472,-1.069415,0.292931,2.715294,1.460231,-6.727042
1790543229.7965,0.017839,0.044219,-0.713062,-0.000280,0.017033,-0.713062,-0.958638,-0.788948,0.096240,2.523654,1.497411,-12.354665
1790543229.8105,0.010952,0.037585,-0.716060,0.003089,0.023198,-0.716060,0.429126,0.579390,-0.318997,-0.235960,2.538451,-17.283686
1790543229.8246,0.022116,0.033075,-0.729487,0.008798,0.026161,-0.729487,0.389060,-0.554619,-0.904214,-1.922392,5.326951,-15.381938
1790543229.8386,0.023226,0.025813,-0.736470,0.013126,0.026057,-0.736470,0.441268,-0.061677,-0.645601,1.757095,0.865351,-10.336483
1790543229.8525,0.029242,0.018226,-0.734740,0.017961,0.023708,-0.734740,0.460694,-0.283865,-0.486549,-1.079176,0.679451,-9.366203
1790543229.8670,0.045150,0.005330,-0.732011,0.026118,0.018195,-0.732011,0.798226,-0.878795,-0.650458,-1.539112,0.382011,-6.843476
1790543229.8811,0.051817,-0.005837,-0.751408,0.033828,0.010985,-0.751408,0.848005,-0.402851,-0.847149,0.415615,1.869211,-5.873196
1790543229.8949,0.060258,-0.012140,-0.767261,0.041757,0.004047,-0.767261,0.511688,-0.490269,-0.838650,-0.389272,2.501271,-8.046623
1790543229.9090,0.070889,-0.018260,-0.779311,0.050496,-0.002645,-0.779311,0.412128,-0.629896,-0.854434,-0.580912,1.906391,-9.831937
1790543229.9231,0.079362,-0.024781,-0.791007,0.059156,-0.009286,-0.791007,0.463122,-0.427134,-0.802226,-1.769080,2.426911,-10.220049
1790543229.9372,0.062736,-0.028090,-0.806635,0.060230,-0.014927,-0.806635,0.213009,1.294520,-0.753660,-0.542584,3.133331,-14.993826
1790543229.9512,0.043637,-0.017797,-0.817959,0.055252,-0.015788,-0.817959,-0.766804,1.432932,-0.550898,0.108991,2.017931,-12.587532
1790543229.9651,0.033597,-0.006141,-0.812985,0.048756,-0.012894,-0.812985,-1.036343,0.891424,-0.515688,-1.424128,-1.216729,-9.793126
1790543229.9792,0.029726,0.004934,-0.803178,0.043047,-0.007545,-0.803178,-0.956210,0.660737,-0.424627,-4.835318,-0.956469,-8.124245
1790543229.9930,0.025061,0.015571,-0.800399,0.037651,-0.000611,-0.800399,-0.855436,0.625527,-0.248577,-3.762135,0.382011,-8.784035
1790543230.0071,0.018101,0.028083,-0.801408,0.031786,0.007997,-0.801408,-0.912501,0.779723,-0.297142,-3.148887,1.460231,-8.163056
1790543230.0216,0.021014,0.032998,-0.798801,0.028554,0.015498,-0.798801,-0.425630,0.029383,-0.009391,-4.260399,0.382011,-9.754315
1790543230.0358,0.023110,0.033295,-0.799390,0.026921,0.020837,-0.799390,-0.095383,-0.385853,0.572183,2.102047,0.828171,-12.781588
1790543230.0498,0.017301,0.029703,-0.803555,0.024035,0.023497,-0.803555,0.182656,0.051238,0.851436,3.481854,0.605091,-11.384385
1790543230.0638,0.007229,0.027823,-0.806892,0.018993,0.024795,-0.806892,0.340494,0.422765,0.799228,1.067191,2.352551,-3.855014
1790543230.0777,-0.005175,0.021205,-0.806097,0.011743,0.023718,-0.806097,0.537185,0.649810,0.682670,1.680439,2.389731,-7.697322
1790543230.0917,-0.017891,0.011422,-0.799285,0.002853,0.020029,-0.799285,0.707165,0.683806,0.884218,1.527127,2.278191,-10.375294
1790543230.1052,-0.033304,0.004907,-0.794357,-0.007994,0.015492,-0.794357,0.554183,0.816148,1.077266,2.523654,3.021791,-8.551168
1790543230.1189,-0.038239,-0.001332,-0.781303,-0.017068,0.010445,-0.781303,0.480120,0.161725,1.159828,0.415615,3.021791,-10.025993
1790543230.1333,-0.045132,-0.004214,-0.771318,-0.025487,0.006047,-0.771318,0.244577,0.183579,1.106406,2.102047,2.798711,-8.124245
1790543230.1473,-0.052332,-0.008157,-0.760739,-0.033541,0.001786,-0.760739,0.268860,0.275854,1.018988,1.910407,2.464091,-10.414105
1790543230.1613,-0.050442,-0.010045,-0.755406,-0.038611,-0.001763,-0.755406,0.257932,-0.291150,0.723951,1.143847,4.360271,-9.249770
1790543230.1753,-0.033194,-0.018657,-0.732814,-0.036986,-0.006831,-0.732814,0.480120,-1.211470,0.671743,-2.343999,0.047391,-11.772497
1790543230.1893,-0.024881,-0.007382,-0.727479,-0.033354,-0.006997,-0.727479,-0.751020,-0.808375,0.490836,3.251886,3.951291,-12.898021
1790543230.2033,-0.017651,0.001700,-0.706864,-0.028643,-0.004388,-0.706864,-0.803228,-0.836300,0.505405,4.976645,-0.733389,-11.733686
1790543230.2173,-0.009998,0.013569,-0.695505,-0.023050,0.000999,-0.695505,-0.939212,-0.881223,0.305072,3.865134,0.233291,-7.464455
1790543230.2313,-0.002625,0.027253,-0.693069,-0.016922,0.008875,-0.693069,-0.996276,-0.864225,0.199442,3.290214,1.014071,-5.989630
1790543230.2456,0.008660,0.036689,-0.690440,-0.009247,0.017220,-0.690440,-0.673315,-0.915219,0.069528,1.143847,1.385871,-7.270399
1790543230.2599,-0.002264,0.026119,-0.680379,-0.007152,0.019889,-0.680379,0.585751,0.736014,-0.169658,2.255358,-0.696209,-15.032637
1790543230.2740,0.004541,0.020208,-0.686462,-0.003644,0.019985,-0.686462,0.426698,-0.123598,-0.939424,-3.647151,2.464091,-11.850119
1790543230.2880,0.012406,0.019672,-0.708548,0.001171,0.019891,-0.708548,0.109807,-0.504839,-0.922426,1.028863,1.757671,-5.640329
1790543230.3024,0.019573,0.013271,-0.717004,0.006692,0.017905,-0.717004,0.437625,-0.480556,-0.558183,0.837223,1.237151,-6.882287
1790543230.3162,0.028235,-0.000751,-0.714899,0.013154,0.012308,-0.714899,0.941494,-0.399209,-0.643173,-2.152360,0.828171,-10.103616
1790543230.3301,0.046241,-0.014530,-0.722218,0.023080,0.004257,-0.722218,0.979133,-1.069415,-0.898143,-1.922392,1.646131,-9.521448
1790543230.3438,0.057883,-0.021691,-0.740487,0.033521,-0.003527,-0.740487,0.555397,-0.741597,-0.967349,-0.044320,2.092291,-8.007811
1790543230.3574,0.060872,-0.026958,-0.757917,0.041726,-0.010557,-0.757917,0.372062,-0.129669,-0.978276,0.300631,1.794851,-8.822846
1790543230.3719,0.067543,-0.031458,-0.771635,0.049471,-0.016827,-0.771635,0.302856,-0.265653,-0.876288,-1.654096,1.794851,-8.589979
1790543230.3864,0.059969,-0.041298,-0.778147,0.052621,-0.024168,-0.778147,0.650100,0.624313,-0.413700,-1.884064,2.055111,-15.071448
1790543230.4004,0.040763,-0.036861,-0.785797,0.049063,-0.027976,-0.785797,-0.344282,1.523992,-0.454981,-3.340527,2.761531,-19.806413
1790543230.4158,0.029518,-0.023975,-0.786013,0.043200,-0.026776,-0.786013,-0.867577,1.055334,-0.395488,-5.985158,1.311511,-10.724595
1790543230.4306,0.021415,-0.010796,-0.775138,0.036664,-0.021982,-0.775138,-1.083695,0.912065,-0.234007,-4.030431,-1.365448,-5.912007
1790543230.4452,0.013337,0.002827,-0.773488,0.029666,-0.014539,-0.773488,-1.080052,0.863499,-0.189084,-3.340527,-0.659029,-6.494175
1790543230.4598,0.002308,0.012495,-0.777811,0.021459,-0.006429,-0.777811,-0.941640,0.973986,-0.132019,-2.343999,-2.480848,-7.076343
1790543230.4750,0.005450,0.016875,-0.770315,0.016656,0.000562,-0.770315,-0.341854,-0.039823,-0.002106,-3.762135,1.088431,-12.354665
1790543230.4892,0.008613,0.015748,-0.756155,0.014243,0.005118,-0.756155,-0.018892,-0.212231,0.668101,-2.727279,0.233291,-11.423196
1790543230.5029,0.007195,0.013972,-0.751703,0.012129,0.007774,-0.751703,0.066098,-0.189162,0.998347,1.642111,0.865351,-10.452916
1790543230.5170,-0.002685,0.007069,-0.742053,0.007685,0.007563,-0.742053,0.477692,0.466475,1.052984,0.645583,1.237151,-7.270399
1790543230.5311,-0.009870,0.002345,-0.726495,0.002418,0.005997,-0.726495,0.294357,0.483473,0.782230,-1.309144,1.051251,-8.628791
1790543230.5450,-0.021151,-0.007891,-0.720935,-0.004652,0.001831,-0.720935,0.761801,0.600030,0.883004,1.412143,2.315371,-9.715504
1790543230.5590,-0.040552,-0.016825,-0.719654,-0.015422,-0.003766,-0.719654,0.659813,1.100257,1.033557,2.753622,2.464091,-9.870749
1790543230.5726,-0.054058,-0.023896,-0.710134,-0.027013,-0.009805,-0.710134,0.561468,0.760297,1.147687,1.603783,3.058971,-9.560259
1790543230.5864,-0.060587,-0.029136,-0.697044,-0.037085,-0.015604,-0.697044,0.421842,0.297709,1.118547,0.990535,3.319231,-9.987182
1790543230.6003,-0.063813,-0.031543,-0.687104,-0.045103,-0.020386,-0.687104,0.166872,0.030598,0.972850,1.718767,2.389731,-9.676693
1790543230.6145,-0.048472,-0.034337,-0.674975,-0.046114,-0.024571,-0.674975,0.137732,-1.235753,0.787086,1.527127,2.055111,-14.644525
1790543230.6287,-0.041668,-0.028287,-0.673208,-0.044780,-0.025686,-0.673208,-0.471767,-0.700316,0.506620,3.175230,1.274331,-10.802217
1790543230.6429,-0.033331,-0.021522,-0.667925,-0.041346,-0.024437,-0.667925,-0.633248,-0.833872,0.578254,3.060246,-0.770569,-9.987182
1790543230.6569,-0.025563,-0.012522,-0.668947,-0.036611,-0.020863,-0.668947,-0.738878,-0.866653,0.424058,3.290214,0.158931,-7.425644
1790543230.6709,-0.018588,-0.004376,-0.667579,-0.031204,-0.015916,-0.667579,-0.696383,-0.793805,0.328141,2.868606,-0.138509,-6.571797
1790543230.6851,-0.007936,0.005979,-0.670852,-0.024224,-0.009348,-0.670852,-0.744949,-1.040276,0.279575,3.290214,1.311511,-8.007811
1790543230.6990,0.005364,0.021867,-0.677039,-0.015348,0.000017,-0.677039,-1.100693,-1.137407,0.018534,2.830278,2.687171,-10.336483
1790543230.7129,-0.001078,0.021653,-0.670234,-0.011067,0.006507,-0.670234,-0.167017,0.357202,-0.433126,6.164813,-1.923148,-16.817952
1790543230.7268,-0.005668,0.019150,-0.675069,-0.009447,0.010300,-0.675069,0.188726,0.685020,-1.045054,-2.535639,2.352551,-11.772497
1790543230.7407,0.011516,0.013150,-0.693169,-0.003158,0.011155,-0.693169,0.583322,-0.951643,-1.181038,-1.040848,3.096151,-6.804665
1790543230.7546,0.005212,0.007310,-0.708092,-0.000647,0.010002,-0.708092,0.430341,0.360844,-0.419771,2.255358,1.460231,-7.542077
1790543230.7686,0.012817,-0.001924,-0.703173,0.003392,0.006424,-0.703173,0.583322,-0.353071,-0.614034,-1.424128,0.530731,-9.793126
1790543230.7826,0.027967,-0.008919,-0.721711,0.010764,0.001821,-0.721711,0.562682,-0.991710,-0.932139,0.683911,3.356411,-11.850119
1790543230.7962,0.029557,-0.016979,-0.739832,0.016402,-0.003819,-0.739832,0.578466,-0.002184,-1.093620,0.683911,1.608951,-9.443825
1790543230.8099,0.037131,-0.017227,-0.750689,0.022621,-0.007841,-0.750689,0.049100,-0.266867,-1.059624,-1.999048,2.166651,-8.357112
1790543230.8241,0.041760,-0.020817,-0.757787,0.028362,-0.011734,-0.757787,0.217866,-0.135740,-0.821652,-1.270816,1.237151,-8.784035
1790543230.8381,0.047637,-0.029007,-0.760830,0.034145,-0.016916,-0.760830,0.549326,-0.230443,-0.663813,-1.922392,1.274331,-9.831937
1790543230.8519,0.049557,-0.033714,-0.762675,0.038768,-0.021955,-0.762675,0.373276,0.000244,-0.287429,-2.573967,2.687171,-12.277042
1790543230.8659,0.031617,-0.023679,-0.768565,0.036623,-0.022473,-0.768565,-0.685456,1.460857,-0.363920,-3.110559,3.579491,-14.722147
1790543230.8801,0.028783,-0.012343,-0.760094,0.034271,-0.019434,-0.760094,-0.814155,0.484687,-0.229150,-6.330110,1.980751,-13.441378
1790543230.8945,0.022103,-0.005359,-0.748736,0.030620,-0.015211,-0.748736,-0.618678,0.783366,-0.166015,-4.682006,-0.659029,-8.589979
1790543230.9085,0.017487,0.003922,-0.741950,0.026680,-0.009471,-0.741950,-0.698812,0.569677,0.014892,-2.420655,0.679451,-5.717951
1790543230.9226,0.013463,0.012659,-0.737515,0.022715,-0.002832,-0.737515,-0.730379,0.522325,0.044031,-2.880591,-0.101329,-6.727042
1790543230.9365,0.002597,0.023812,-0.735208,0.016680,0.005161,-0.735208,-0.902787,0.971558,0.079242,-2.573967,0.158931,-8.124245
1790543230.9505,0.007912,0.022673,-0.731099,0.014049,0.010415,-0.731099,-0.041961,-0.379782,0.315999,-2.037376,-0.138509,-17.400119
1790543230.9644,0.014407,0.015400,-0.726452,0.014157,0.011910,-0.726452,0.430341,-0.762237,0.983777,1.948735,0.419191,-14.722147
1790543230.9783,0.002949,0.012767,-0.713884,0.010794,0.012167,-0.713884,0.234864,0.566034,1.208394,0.683911,2.352551,-8.939280
1790543230.9922,-0.001001,0.010791,-0.691691,0.007256,0.011754,-0.691691,0.240934,0.338990,0.808941,-1.577440,1.720491,-4.592427
1790543231.0060,-0.009774,0.003237,-0.690543,0.002147,0.009199,-0.690543,0.565110,0.365701,0.806513,1.757095,1.720491,-7.542077
1790543231.0200,-0.021755,-0.005365,-0.686882,-0.005024,0.004830,-0.686882,0.646458,0.629170,0.781016,1.833751,2.389731,-9.288581
1790543231.0337,-0.037069,-0.013314,-0.683632,-0.014637,-0.000613,-0.683632,0.634316,0.827075,0.983777,2.753622,2.835891,-9.288581
1790543231.0472,-0.045221,-0.019020,-0.671106,-0.023812,-0.006135,-0.671106,0.489833,0.464046,0.938854,0.492271,3.505131,-10.181238
1790543231.0613,-0.052227,-0.023483,-0.662320,-0.032337,-0.011340,-0.662320,0.313783,0.301351,0.876933,1.718767,2.166651,-9.715504
1790543231.0752,-0.055153,-0.026984,-0.654201,-0.039182,-0.016033,-0.654201,0.290714,0.077949,0.670529,1.028863,2.426911,-8.473546
1790543231.0891,-0.041902,-0.030526,-0.646521,-0.039998,-0.020381,-0.646521,0.324710,-1.088841,0.512690,1.948735,4.657711,-14.062357
1790543231.1031,-0.034332,-0.023989,-0.647322,-0.038298,-0.021463,-0.647322,-0.506977,-0.742811,0.203084,3.290214,1.088431,-10.220049
1790543231.1170,-0.026780,-0.016104,-0.646252,-0.034843,-0.019856,-0.646252,-0.691527,-0.782878,0.286860,3.788478,-0.398769,-10.608161
1790543231.1310,-0.013453,-0.009294,-0.645721,-0.028426,-0.016687,-0.645721,-0.670886,-1.187187,0.040389,3.826806,-1.551348,-9.405014
1790543231.1456,-0.003248,0.001851,-0.650585,-0.020872,-0.011126,-0.650585,-0.848151,-1.031777,0.090169,3.826806,0.084571,-6.377742
1790543231.1596,0.007728,0.014735,-0.652116,-0.012292,-0.003367,-0.652116,-0.957424,-1.001423,0.088955,2.140375,0.828171,-6.765853
1790543231.1736,-0.000133,0.010485,-0.652295,-0.008645,0.000788,-0.652295,0.188726,0.586675,-0.333567,1.642111,-0.064149,-18.719700
1790543231.1876,-0.005799,0.006896,-0.666331,-0.007791,0.002621,-0.666331,0.274930,0.557535,-0.839864,0.453943,3.207691,-16.313406
1790543231.2015,0.013174,0.007301,-0.660730,-0.001502,0.004025,-0.660730,-0.048031,-1.051203,-0.780371,-3.647151,1.757671,-11.345574
1790543231.2154,0.011038,0.003064,-0.673583,0.002260,0.003736,-0.673583,0.264003,0.079163,-0.453767,1.718767,0.716631,-6.688231
1790543231.2294,0.019260,-0.008283,-0.662550,0.007360,0.000130,-0.662550,0.732662,-0.310576,-0.501118,-2.497311,0.344831,-7.386832
1790543231.2434,0.033339,-0.018714,-0.666820,0.015154,-0.005523,-0.666820,0.733876,-0.757381,-0.900571,-1.615768,1.237151,-7.464455
1790543231.2569,0.042446,-0.030200,-0.683532,0.023341,-0.012926,-0.683532,0.814009,-0.566760,-1.117903,0.377287,1.125611,-8.395923
1790543231.2705,0.044971,-0.034863,-0.703669,0.029830,-0.019507,-0.703669,0.321068,-0.189162,-0.892072,1.182175,1.088431,-7.192776
1790543231.2845,0.056705,-0.039439,-0.712020,0.037893,-0.025487,-0.712020,0.328353,-0.669962,-0.822866,-1.309144,1.608951,-8.357112
1790543231.2985,0.067394,-0.047228,-0.721960,0.046743,-0.032009,-0.721960,0.652529,-0.592257,-0.669884,-2.152360,3.319231,-9.405014
1790543231.3123,0.055877,-0.047312,-0.730835,0.049483,-0.036600,-0.730835,-0.015250,0.869570,-0.431912,-0.197632,2.055111,-14.722147
1790543231.3264,0.049357,-0.030020,-0.721906,0.049445,-0.034626,-0.721906,-1.239105,0.712945,-0.039744,-7.096669,2.129471,-14.916203
1790543231.3404,0.049484,-0.018282,-0.706182,0.049457,-0.029723,-0.706182,-1.015703,0.270998,0.190943,-6.176798,-2.071868,-9.676693
1790543231.3542,0.045201,-0.005230,-0.699262,0.048180,-0.022375,-0.699262,-1.035129,0.626741,0.019749,-3.647151,-0.026969,-5.756762
