t,imu_roll,imu_pitch,imu_yaw,lpf_roll,lpf_pitch,lpf_yaw,gyro_x,gyro_y,gyro_z,acc_x,acc_y,acc_z
1790538516.8672,-0.012964,-0.046711,-0.001290,-0.009075,-0.032698,-0.001290,-0.002309,-0.009325,-0.002327,0.300631,1.199971,-10.064805
1790538516.8829,-0.013865,-0.045398,-0.002154,-0.012428,-0.041588,-0.002154,0.017117,0.008888,0.004958,0.300631,1.274331,-10.181238
1790538516.8967,-0.005570,-0.048954,0.002861,-0.007627,-0.046744,0.002861,-0.001095,0.000389,0.001316,0.032335,1.088431,-9.676693
1790538516.9104,-0.007029,-0.050141,0.002231,-0.007209,-0.049122,0.002231,-0.012022,-0.009325,0.001316,0.262303,1.125611,-9.831937
1790538516.9245,-0.003331,-0.048624,0.004114,-0.004495,-0.048773,0.004114,-0.019307,-0.003254,-0.001113,0.032335,1.237151,-9.870749
1790538516.9384,-0.006113,-0.048367,0.002767,-0.005628,-0.048489,0.002767,-0.009594,0.011316,0.004958,0.338959,1.199971,-9.909560
1790538516.9527,-0.006062,-0.046724,0.003103,-0.005932,-0.047254,0.003103,-0.013237,0.031956,0.025598,0.185647,1.385871,-10.569350
1790538516.9671,-0.007494,-0.045077,0.003789,-0.007026,-0.045730,0.003789,-0.021736,0.092663,0.071736,0.223975,1.348691,-10.103616
1790538516.9813,-0.005379,-0.039468,0.005966,-0.005873,-0.041346,0.005966,-0.089728,0.048954,0.132443,-0.044320,1.646131,-9.948371
1790538516.9954,-0.004418,-0.035429,0.009447,-0.004854,-0.037204,0.009447,-0.144364,0.024671,0.239287,0.032335,1.460231,-9.560259
1790538517.0095,-0.003849,-0.032145,0.014816,-0.004151,-0.033663,0.014816,-0.103083,-0.034822,0.354631,0.108991,1.534591,-9.793126
1790538517.0235,-0.015046,-0.033792,0.024722,-0.011778,-0.033753,0.024722,-0.071515,-0.008110,0.483330,1.488799,1.088431,-10.181238
1790538517.0374,-0.015829,-0.039359,0.036912,-0.014614,-0.037677,0.036912,0.015903,0.033170,0.608387,0.185647,0.605091,-8.900469
1790538517.0514,-0.005585,-0.033338,0.044549,-0.008293,-0.034640,0.044549,-0.048447,-0.039678,0.525825,-1.079176,1.869211,-8.861658
1790538517.0653,-0.001617,-0.041974,0.043719,-0.003620,-0.039774,0.043719,0.031687,-0.122240,0.391055,-0.312616,0.158931,-11.888930
1790538517.0792,-0.002985,-0.047146,0.042577,-0.003176,-0.044935,0.042577,0.023188,0.013744,0.320635,0.300631,0.567911,-11.384385
1790538517.0931,-0.003495,-0.050280,0.047400,-0.003399,-0.048677,0.047400,0.165242,0.022243,0.359487,0.108991,0.976891,-9.172147
1790538517.1070,-0.007783,-0.054359,0.047649,-0.006468,-0.052654,0.047649,0.258731,0.098734,0.333990,0.568927,0.976891,-9.055714
1790538517.1205,-0.010633,-0.055024,0.052918,-0.009383,-0.054313,0.052918,0.148244,0.259001,0.232003,0.070663,1.199971,-8.628791
1790538517.1341,-0.009609,-0.054426,0.059870,-0.009541,-0.054392,0.059870,0.089966,0.046526,0.194364,-0.120976,1.460231,-9.715504
1790538517.1481,-0.011134,-0.050843,0.065287,-0.010656,-0.051908,0.065287,0.008618,0.001603,0.173724,0.530599,2.017931,-10.375294
1790538517.1620,-0.009200,-0.046696,0.070785,-0.009637,-0.048260,0.070785,-0.076372,-0.237583,0.190722,0.492271,2.017931,-10.646972
1790538517.1759,-0.007352,-0.041099,0.077522,-0.008038,-0.043247,0.077522,-0.123724,-0.358998,0.210148,0.837223,2.166651,-9.987182
1790538517.1898,-0.005024,-0.030253,0.086115,-0.005928,-0.034151,0.086115,-0.307059,-0.548404,0.211362,1.182175,2.612811,-8.706413
1790538517.2039,-0.002897,-0.017031,0.086183,-0.003807,-0.022167,0.086183,-0.293703,-0.395422,0.215005,0.837223,3.393591,-8.745224
1790538517.2184,-0.015347,-0.025996,0.111583,-0.011885,-0.024847,0.111583,0.727390,0.374344,-0.014468,2.753622,2.501271,-13.363756
1790538517.2325,-0.004682,-0.017699,0.002542,-0.006843,-0.019844,0.002542,0.442067,-0.087030,-0.302220,-1.615768,4.955151,-8.512357
1790538517.2463,0.006850,-0.008175,-0.027778,0.002742,-0.011676,-0.027778,-0.110368,-0.374781,-0.705315,-0.925864,3.021791,-7.736133
1790538517.2602,0.005682,-0.010021,-0.000247,0.004800,-0.010517,-0.000247,0.063254,-0.100385,-1.022206,1.373815,1.497411,-11.462007
1790538517.2741,0.004652,-0.010205,-0.002985,0.004697,-0.010299,-0.002985,0.058398,0.132730,-1.146049,0.492271,1.646131,-9.443825
1790538517.2879,0.000482,-0.010459,0.026407,0.001747,-0.010411,0.026407,0.006190,0.078094,-1.087770,1.297159,1.311511,-8.434735
1790538517.3021,0.008691,-0.019722,-0.013488,0.006608,-0.016929,-0.013488,0.261160,-0.112527,-1.064701,-1.117504,-0.287229,-9.870749
1790538517.3161,0.005654,-0.017584,-0.022343,0.005940,-0.017388,-0.022343,0.071753,0.289354,-1.322099,0.568927,2.352551,-9.366203
1790538517.3300,0.007124,-0.015166,-0.040886,0.006769,-0.015832,-0.040886,-0.095798,0.090235,-1.487223,0.223975,2.092291,-11.306763
1790538517.3449,0.004867,-0.012338,-0.055338,0.005437,-0.013386,-0.055338,-0.260922,0.319708,-1.432586,0.300631,1.014071,-8.745224
1790538517.3593,0.008603,-0.017423,-0.066711,0.007653,-0.016212,-0.066711,0.069325,-0.093100,-1.150905,0.108991,0.084571,-11.267951
1790538517.3738,0.009748,-0.020607,-0.066580,0.009120,-0.019288,-0.066580,0.323081,-0.108884,-0.866796,0.683911,1.720491,-8.512357
1790538517.3882,0.012228,-0.023007,-0.069990,0.011295,-0.021891,-0.069990,0.165242,-0.138024,-0.682246,0.300631,1.311511,-9.016902
1790538517.4026,0.011846,-0.022924,-0.073467,0.011680,-0.022614,-0.073467,0.015903,0.051382,-0.622754,0.377287,1.683311,-10.646972
1790538517.4164,0.002000,-0.019095,-0.075891,0.004904,-0.020151,-0.075891,-0.326485,0.741015,-0.546263,0.645583,1.943571,-15.886483
1790538517.4308,-0.000772,-0.011648,-0.099950,0.000931,-0.014199,-0.099950,-0.671302,0.467833,-0.302220,-1.539112,0.976891,-15.032637
1790538517.4448,0.007758,-0.005754,-0.125146,0.005710,-0.008287,-0.125146,-0.565671,-0.297076,0.001316,-2.037376,1.051251,-12.626343
1790538517.4588,0.002669,-0.016767,-0.098961,0.003581,-0.014223,-0.098961,0.404428,0.029528,0.443263,1.603783,-0.659029,-10.181238
1790538517.4742,-0.007682,-0.027856,-0.079983,-0.004303,-0.023766,-0.079983,0.591406,0.469047,0.951989,0.492271,0.493551,-7.386832
1790538517.4884,-0.008539,-0.034196,-0.079312,-0.007268,-0.031067,-0.079312,0.320652,0.216506,1.045478,-1.040848,0.493551,-6.727042
1790538517.5030,0.004144,-0.038175,-0.095857,0.000720,-0.036042,-0.095857,0.096036,-0.312860,0.919207,-4.068759,0.270471,-8.978091
1790538517.5172,0.003826,-0.042577,-0.096644,0.002894,-0.040617,-0.096644,0.074182,0.124231,0.818433,-1.270816,-0.138509,-10.802217
1790538517.5312,-0.011686,-0.048299,-0.090754,-0.007312,-0.045995,-0.090754,0.256303,0.851502,0.783223,1.450471,0.344831,-10.918651
1790538517.5451,-0.020338,-0.056818,-0.074885,-0.016430,-0.053571,-0.074885,0.607190,0.381629,1.013910,1.105519,1.237151,-9.637881
1790538517.5592,-0.037290,-0.066554,-0.055801,-0.031032,-0.062659,-0.055801,0.757744,0.915852,0.938633,1.565455,1.423051,-8.473546
1790538517.5728,-0.046302,-0.070806,-0.039244,-0.041721,-0.068362,-0.039244,0.501560,0.704591,0.808720,-0.159304,2.241011,-8.939280
1790538517.5864,-0.047663,-0.077614,-0.034755,-0.045880,-0.074839,-0.034755,0.468778,0.317280,0.701876,-1.117504,0.902531,-9.055714
1790538517.6001,-0.049015,-0.082829,-0.025745,-0.048074,-0.080432,-0.025745,0.418998,0.127873,0.550108,0.147319,1.571771,-11.811308
1790538517.6139,-0.042140,-0.087089,-0.020121,-0.043920,-0.085092,-0.020121,0.290299,-0.434274,0.528253,-0.197632,1.088431,-11.617252
1790538517.6279,-0.041057,-0.089070,-0.008156,-0.041916,-0.087876,-0.008156,0.030473,-0.339571,0.455405,2.523654,0.196111,-11.617252
1790538517.6417,-0.040216,-0.090243,0.002745,-0.040726,-0.089533,0.002745,-0.118867,-0.396636,0.369201,2.676966,-0.547489,-9.599070
1790538517.6555,-0.032294,-0.082379,0.017150,-0.034824,-0.084525,0.017150,-0.672516,-0.984281,0.374057,2.561982,0.196111,-7.736133
1790538517.6693,-0.027990,-0.072058,0.028986,-0.030040,-0.075798,0.028986,-0.925057,-0.726883,0.308493,3.673494,-0.287229,-10.879840
1790538517.6832,-0.024241,-0.060993,0.038486,-0.025981,-0.065434,0.038486,-1.044043,-0.697743,0.120301,3.673494,-0.844929,-9.948371
1790538517.6971,-0.015564,-0.049031,0.039377,-0.018689,-0.053952,0.039377,-1.031902,-1.008564,-0.044822,2.523654,-0.101329,-7.580888
1790538517.7109,-0.020181,-0.042151,0.027512,-0.019733,-0.045691,0.027512,-0.531675,-0.002040,-0.141953,2.370342,0.679451,-7.464455
1790538517.7254,-0.022250,-0.050125,0.040729,-0.021495,-0.048795,0.040729,0.476063,0.528540,-0.581473,-2.880591,0.642271,-13.208511
1790538517.7394,-0.009967,-0.055809,0.028090,-0.013425,-0.053705,0.028090,0.489418,-0.486482,-1.150905,-2.305671,1.906391,-12.315854
1790538517.7533,-0.014172,-0.053514,-0.023919,-0.013948,-0.053571,-0.023919,0.097250,0.008888,-0.781806,2.600310,2.203831,-7.153965
1790538517.7673,-0.002390,-0.059052,-0.014027,-0.005858,-0.057408,-0.014027,0.312154,-0.573901,-0.445489,-1.500784,0.344831,-9.016902
1790538517.7811,0.013286,-0.071427,-0.008984,0.007543,-0.067221,-0.008984,0.805095,-0.844654,-0.671319,-2.075704,0.270471,-11.500819
1790538517.7950,0.027233,-0.077196,-0.038410,0.021326,-0.074203,-0.038410,0.698251,-0.851939,-0.831586,-0.619240,2.464091,-7.309210
1790538517.8086,0.035587,-0.081626,-0.060718,0.031309,-0.079399,-0.060718,0.502774,-0.705028,-0.922647,0.952207,1.906391,-7.697322
1790538517.8221,0.036907,-0.088066,-0.071963,0.035227,-0.085466,-0.071963,0.506416,-0.163521,-0.802447,0.722239,0.976891,-8.279490
1790538517.8361,0.048583,-0.099334,-0.078298,0.044576,-0.095173,-0.078298,0.755315,-0.790018,-0.705315,-0.312616,0.493551,-11.306763
1790538517.8499,0.039956,-0.102752,-0.088304,0.041342,-0.100478,-0.088304,0.234448,0.659668,-0.649465,-0.274288,1.199971,-16.701518
1790538517.8637,0.040146,-0.094399,-0.096003,0.040505,-0.096223,-0.096003,-0.610594,0.363417,-0.498911,-4.183743,0.976891,-12.199420
1790538517.8775,0.043497,-0.086611,-0.088262,0.042599,-0.089494,-0.088262,-0.798787,0.091449,-0.452774,-3.263871,-1.328269,-10.646972
1790538517.8913,0.042155,-0.075280,-0.082079,0.042288,-0.079544,-0.082079,-1.152102,0.563750,-0.441846,-2.190688,-1.105189,-4.864105
1790538517.9052,0.031293,-0.056844,-0.086556,0.034592,-0.063654,-0.086556,-1.238306,0.893997,-0.421206,-0.389272,0.976891,-4.864105
1790538517.9191,0.022466,-0.047795,-0.102273,0.026104,-0.052553,-0.102273,-1.041615,1.034838,-0.371426,-2.650623,-1.960328,-7.386832
1790538517.9330,0.019961,-0.039549,-0.101180,0.021804,-0.043451,-0.101180,-0.840067,0.580748,-0.326503,-4.030431,-1.402628,-11.229140
1790538517.9471,0.029252,-0.047492,-0.110523,0.027018,-0.046280,-0.110523,0.342507,-0.588470,0.106946,-2.037376,-1.700068,-18.680889
1790538517.9610,0.025883,-0.045227,-0.114767,0.026223,-0.045543,-0.114767,-0.117653,0.017387,0.539180,1.373815,1.646131,-9.987182
1790538517.9754,0.016315,-0.048075,-0.117510,0.019287,-0.047315,-0.117510,0.133675,0.482403,0.778366,0.798895,0.530731,-9.599070
1790538517.9896,0.020509,-0.055416,-0.089140,0.020142,-0.052986,-0.089140,0.518558,-0.140452,0.386199,-1.424128,0.753811,-7.231588
1790538518.0037,0.003888,-0.062290,-0.111555,0.008764,-0.059499,-0.111555,0.477277,0.864858,0.391055,2.791950,1.014071,-9.831937
1790538518.0176,-0.004587,-0.071046,-0.097970,-0.000582,-0.067581,-0.097970,0.721319,0.585605,0.459047,0.032335,2.017931,-10.375294
1790538518.0312,-0.018068,-0.076719,-0.084584,-0.012822,-0.073978,-0.084584,0.593834,0.864858,0.551322,0.913879,2.315371,-8.124245
1790538518.0449,-0.026492,-0.082037,-0.070327,-0.022391,-0.079619,-0.070327,0.483348,0.572249,0.618100,0.377287,1.980751,-9.948371
1790538518.0585,-0.031775,-0.089796,-0.060057,-0.028960,-0.086743,-0.060057,0.558624,0.371916,0.603530,0.147319,0.865351,-9.482637
1790538518.0724,-0.035742,-0.096823,-0.043401,-0.033707,-0.093799,-0.043401,0.619331,0.273570,0.536752,0.223975,1.980751,-9.210958
1790538518.0862,-0.027175,-0.098821,-0.029880,-0.029135,-0.097315,-0.029880,0.133675,-0.613967,0.683663,-0.197632,1.311511,-14.256413
1790538518.1001,-0.023583,-0.095443,-0.038860,-0.025248,-0.096004,-0.038860,-0.370194,-0.545975,0.595031,3.443526,-0.398769,-11.617252
1790538518.1140,-0.023513,-0.090514,-0.048648,-0.024034,-0.092161,-0.048648,-0.586312,-0.360212,0.553750,3.635166,-1.514168,-9.482637
1790538518.1278,-0.020686,-0.081605,-0.052917,-0.021690,-0.084772,-0.052917,-0.774504,-0.595755,0.350988,3.596838,-0.398769,-8.085434
1790538518.1418,-0.016837,-0.069548,-0.055404,-0.018293,-0.074115,-0.055404,-0.952983,-0.611539,0.257500,3.290214,0.047391,-8.628791
1790538518.1556,-0.009776,-0.057591,-0.055026,-0.012331,-0.062548,-0.055026,-0.945698,-0.882293,0.114231,3.673494,0.196111,-8.473546
1790538518.1695,-0.001592,-0.042555,-0.069422,-0.004814,-0.048553,-0.069422,-0.961482,-0.956355,0.154297,2.983590,1.869211,-7.076343
1790538518.1833,-0.010858,-0.045799,-0.045357,-0.009045,-0.046626,-0.045357,0.041400,0.487260,-0.190519,3.788478,-1.068009,-13.674245
1790538518.1972,-0.021623,-0.055584,-0.044991,-0.017849,-0.052897,-0.044991,0.749245,1.010555,-0.727170,-1.424128,1.720491,-11.927742
1790538518.2112,-0.003535,-0.061205,-0.047436,-0.007829,-0.058713,-0.047436,0.588978,-0.975782,-0.768451,-2.727279,3.244871,-10.297672
1790538518.2258,-0.006419,-0.064480,-0.071023,-0.006842,-0.062750,-0.071023,0.273301,-0.036036,-0.331359,2.906934,1.199971,-8.357112
1790538518.2398,0.004730,-0.075970,-0.061509,0.001258,-0.072004,-0.061509,0.813594,-0.598184,-0.413921,-1.577440,0.828171,-9.405014
1790538518.2538,0.023754,-0.086707,-0.077081,0.017005,-0.082296,-0.077081,0.864588,-1.295101,-0.626396,-0.350944,1.794851,-9.754315
1790538518.2674,0.031806,-0.091940,-0.107621,0.027366,-0.089047,-0.107621,0.551339,-0.686816,-0.753881,1.143847,1.980751,-7.464455
1790538518.2809,0.036543,-0.095342,-0.132507,0.033790,-0.093453,-0.132507,0.449352,-0.502266,-0.719885,1.910407,2.724351,-8.745224
1790538518.2948,0.047144,-0.102124,-0.154388,0.043138,-0.099523,-0.154388,0.582907,-0.759664,-0.738097,0.185647,1.608951,-8.512357
1790538518.3087,0.024574,-0.108185,-0.122260,0.030143,-0.105586,-0.122260,0.234448,1.475571,-0.755095,3.175230,-1.551348,-13.635434
1790538518.3225,0.023811,-0.100091,-0.122930,0.025711,-0.101740,-0.122930,-0.602095,0.283284,-0.616683,-3.187215,0.865351,-13.790679
1790538518.3365,0.029021,-0.090784,-0.079974,0.028028,-0.094071,-0.079974,-0.939627,-0.088244,-0.545048,-3.033903,-2.183408,-9.870749
1790538518.3504,0.026747,-0.079169,-0.058176,0.027131,-0.083639,-0.058176,-1.158173,0.432623,-0.443060,-1.462456,-1.514168,-5.019350
1790538518.3642,0.020513,-0.062733,-0.051987,0.022499,-0.069005,-0.051987,-1.376718,0.720375,-0.478271,-1.769080,-0.733389,-6.727042
1790538518.3781,0.010454,-0.052324,-0.049735,0.014068,-0.057329,-0.049735,-0.938413,0.930421,-0.401780,-1.347472,-0.844929,-7.542077
1790538518.3920,0.006592,-0.040808,-0.069475,0.008835,-0.045765,-0.069475,-0.639734,0.524898,-0.393281,-1.999048,2.835891,-7.736133
1790538518.4059,0.015086,-0.049938,-0.067164,0.013210,-0.048686,-0.067164,0.558624,-0.327430,-0.053321,-5.333582,-0.138509,-14.955014
1790538518.4198,0.017331,-0.046586,-0.063053,0.016095,-0.047216,-0.063053,-0.120081,-0.125882,0.262356,-0.810880,2.538451,-9.210958
1790538518.4337,0.011947,-0.043373,-0.058118,0.013191,-0.044526,-0.058118,-0.120081,0.326993,0.585318,-0.082648,2.464091,-9.249770
1790538518.4475,0.014931,-0.047890,-0.048933,0.014409,-0.046881,-0.048933,0.318224,-0.100385,0.365558,-1.615768,0.902531,-8.124245
1790538518.4617,0.001041,-0.053846,-0.086142,0.005051,-0.051757,-0.086142,0.476063,0.651169,0.388627,2.868606,1.423051,-7.425644
1790538518.4763,-0.011656,-0.060665,-0.086849,-0.006644,-0.057992,-0.086849,0.479705,0.741015,0.456619,1.373815,1.423051,-10.530539
1790538518.4905,-0.022254,-0.068406,-0.082001,-0.017571,-0.065282,-0.082001,0.621760,0.699734,0.564677,0.262303,1.869211,-8.628791
1790538518.5042,-0.033095,-0.071944,-0.079516,-0.028438,-0.069945,-0.079516,0.368004,0.694878,0.647239,0.798895,2.315371,-8.628791
1790538518.5179,-0.038504,-0.076456,-0.071791,-0.035484,-0.074502,-0.071791,0.386216,0.386486,0.638740,-0.082648,2.129471,-10.569350
1790538518.5319,-0.044475,-0.082302,-0.064819,-0.041778,-0.079962,-0.064819,0.439638,0.387700,0.584104,0.415615,1.385871,-9.055714
1790538518.5458,-0.041562,-0.083170,-0.060828,-0.041627,-0.082208,-0.060828,0.156743,-0.278864,0.494257,1.220503,3.244871,-13.053266
1790538518.5598,-0.031473,-0.076760,-0.054597,-0.034519,-0.078394,-0.054597,-0.433330,-0.879864,0.554964,2.332014,2.129471,-12.703965
1790538518.5736,-0.024919,-0.071544,-0.044281,-0.027799,-0.073599,-0.044281,-0.568100,-0.732953,0.493043,3.520182,-1.402628,-11.073895
1790538518.5875,-0.023353,-0.062365,-0.041113,-0.024687,-0.065735,-0.041113,-0.821855,-0.467056,0.394698,3.711822,-0.807749,-7.697322
1790538518.6015,-0.012069,-0.050913,-0.035385,-0.015854,-0.055359,-0.035385,-0.948126,-1.034061,0.190722,2.370342,-0.361589,-7.969000
1790538518.6153,-0.002928,-0.037922,-0.046080,-0.006806,-0.043153,-0.046080,-1.002762,-1.051059,0.103303,3.941790,0.233291,-7.153965
1790538518.6292,0.000593,-0.029578,-0.055251,-0.001626,-0.033650,-0.055251,-0.583883,-0.451272,-0.001113,2.638638,1.497411,-9.676693
1790538518.6431,-0.010924,-0.036138,-0.041145,-0.008134,-0.035392,-0.041145,0.306083,0.709448,-0.387210,3.366870,-0.993649,-12.238231
1790538518.6569,-0.014568,-0.036926,-0.056261,-0.012638,-0.036466,-0.056261,0.130032,0.438694,-0.793948,-0.772552,2.464091,-12.665154
1790538518.6708,-0.004989,-0.039847,-0.062101,-0.007283,-0.038833,-0.062101,0.188311,-0.644321,-0.742954,0.722239,0.753811,-9.210958
1790538518.6846,-0.001263,-0.046280,-0.062571,-0.003069,-0.044046,-0.062571,0.411713,-0.300719,-0.376283,0.913879,0.382011,-7.658511
1790538518.6986,0.003859,-0.057798,-0.055644,0.001781,-0.053672,-0.055644,0.757744,-0.250939,-0.563261,-0.580912,0.270471,-11.073895
1790538518.7125,0.018984,-0.062251,-0.086031,0.013823,-0.059677,-0.086031,0.476063,-0.930858,-0.849798,-1.040848,2.910251,-9.676693
1790538518.7266,0.024355,-0.066767,-0.110678,0.021196,-0.064640,-0.110678,0.376503,-0.343214,-0.971212,0.568927,1.460231,-8.357112
1790538518.7402,0.028980,-0.069694,-0.136386,0.026645,-0.068178,-0.136386,0.319438,-0.265509,-0.780592,-0.120976,1.757671,-7.503266
1790538518.7542,0.043115,-0.078370,-0.146178,0.038174,-0.075312,-0.146178,0.619331,-0.894434,-0.746596,-0.964192,1.125611,-10.297672
1790538518.7681,0.051170,-0.087032,-0.175905,0.047271,-0.083516,-0.175905,0.782026,-0.621252,-0.591186,0.913879,3.207691,-10.530539
1790538518.7820,0.035920,-0.084448,-0.187135,0.039326,-0.084168,-0.187135,-0.103083,0.925565,-0.581473,3.366870,2.612811,-11.384385
1790538518.7960,0.036572,-0.075080,-0.171086,0.037398,-0.077806,-0.171086,-0.774504,0.221362,-0.614255,-5.410238,-0.138509,-16.623896
1790538518.8099,0.037495,-0.065832,-0.125926,0.037466,-0.069424,-0.125926,-0.954197,0.170368,-0.512267,-2.075704,-1.885968,-7.425644
1790538518.8237,0.034261,-0.057318,-0.102139,0.035223,-0.060950,-0.102139,-0.932342,0.504257,-0.362927,-2.343999,-2.220588,-6.765853
1790538518.8377,0.023670,-0.043935,-0.097296,0.027136,-0.049040,-0.097296,-1.052542,0.890355,-0.339858,-0.734224,0.047391,-5.950818
1790538518.8516,0.010176,-0.030460,-0.094440,0.015264,-0.036034,-0.094440,-1.051328,1.174464,-0.316790,-1.577440,0.196111,-7.619700
1790538518.8654,0.016579,-0.035783,-0.090423,0.016185,-0.035859,-0.090423,0.289085,-0.244868,-0.072747,-4.490366,-0.064149,-14.916203
1790538518.8793,0.015834,-0.044835,-0.080578,0.015939,-0.042142,-0.080578,0.534342,0.014958,0.472403,-0.465928,-0.621849,-16.080539
1790538518.8932,0.010251,-0.046903,-0.073744,0.011958,-0.045474,-0.073744,0.149458,0.291783,0.712803,0.415615,1.385871,-11.229140
1790538518.9071,0.016467,-0.050730,-0.062564,0.015114,-0.049153,-0.062564,0.258731,-0.292220,0.769867,-3.072231,0.790991,-8.240679
1790538518.9210,0.007393,-0.054275,-0.057382,0.009709,-0.052738,-0.057382,0.258731,0.606245,0.448120,0.032335,0.716631,-5.912007
1790538518.9349,-0.006083,-0.062843,-0.065205,-0.001345,-0.059812,-0.065205,0.588978,0.818720,0.437193,1.833751,0.753811,-11.035084
1790538518.9487,-0.018848,-0.071100,-0.063887,-0.013597,-0.067714,-0.063887,0.660612,0.873357,0.519754,0.377287,2.055111,-10.220049
1790538518.9626,-0.027311,-0.074894,-0.064061,-0.023197,-0.072740,-0.064061,0.383788,0.574678,0.616886,0.070663,3.058971,-10.724595
1790538518.9769,-0.032256,-0.078985,-0.058220,-0.029538,-0.077112,-0.058220,0.334008,0.299067,0.671522,0.262303,1.943571,-9.637881
1790538518.9910,-0.036867,-0.084113,-0.050934,-0.034669,-0.082013,-0.050934,0.380145,0.290568,0.621742,0.262303,1.348691,-9.016902
1790538519.0050,-0.029975,-0.089035,-0.041574,-0.031383,-0.086928,-0.041574,0.219879,-0.554474,0.598673,0.798895,-0.844929,-13.053266
1790538519.0190,-0.019233,-0.085924,-0.039075,-0.022878,-0.086225,-0.039075,-0.273063,-0.888363,0.514898,1.718767,0.456371,-11.811308
1790538519.0330,-0.018064,-0.079608,-0.053688,-0.019508,-0.081593,-0.053688,-0.575384,-0.338357,0.418980,3.788478,-0.919289,-10.918651
1790538519.0470,-0.015781,-0.073965,-0.059659,-0.016899,-0.076253,-0.059659,-0.619093,-0.392994,0.302423,2.523654,-1.774428,-7.619700
1790538519.0610,-0.010542,-0.063003,-0.077900,-0.012449,-0.066978,-0.077900,-0.807286,-0.626109,0.153083,2.945262,0.419191,-7.930189
1790538519.0749,-0.003370,-0.052080,-0.091871,-0.006093,-0.056550,-0.091871,-0.854637,-0.845869,0.042596,4.018446,-0.026969,-7.813756
1790538519.0887,0.006742,-0.039835,-0.111999,0.002892,-0.044850,-0.111999,-0.804857,-0.955141,0.013457,2.906934,2.017931,-8.939280
1790538519.1026,-0.008480,-0.045643,-0.101596,-0.005068,-0.045405,-0.101596,0.275729,0.969274,-0.284008,4.861661,-1.328269,-16.391028
1790538519.1164,-0.014137,-0.053979,-0.101474,-0.011416,-0.051407,-0.101474,0.626616,0.649955,-0.889865,-2.037376,1.720491,-13.363756
1790538519.1303,-0.002849,-0.056574,-0.127634,-0.005419,-0.055024,-0.127634,0.331580,-0.742666,-0.815802,0.223975,2.278191,-8.007811
1790538519.1443,-0.004592,-0.059442,-0.140378,-0.004840,-0.058117,-0.140378,0.204095,-0.080959,-0.366570,2.791950,0.605091,-6.959909
1790538519.1581,0.004242,-0.070036,-0.131228,0.001517,-0.066461,-0.131228,0.721319,-0.497410,-0.486770,-1.194160,0.456371,-10.414105
1790538519.1719,0.019480,-0.080198,-0.154199,0.014091,-0.076077,-0.154199,0.853661,-1.054701,-0.691960,-0.005993,2.055111,-8.551168
1790538519.1855,0.029571,-0.087339,-0.182274,0.024927,-0.083960,-0.182274,0.644828,-0.711099,-0.869224,0.300631,2.092291,-8.434735
1790538519.1991,0.033143,-0.090996,-0.212256,0.030678,-0.088885,-0.212256,0.432354,-0.297076,-0.746596,0.875551,2.464091,-7.891378
1790538519.2131,0.044065,-0.099177,-0.213188,0.040049,-0.096089,-0.213188,0.541626,-0.623681,-0.807303,-1.730752,0.456371,-9.987182
1790538519.2275,0.045407,-0.108540,-0.235112,0.043800,-0.104805,-0.235112,0.783241,-0.134381,-0.444275,0.683911,2.464091,-9.210958
1790538519.2415,0.025688,-0.107667,-0.239979,0.031121,-0.106808,-0.239979,-0.077586,1.345658,-0.387210,1.795423,0.828171,-14.993826
1790538519.2554,0.027089,-0.096870,-0.201743,0.028299,-0.099851,-0.201743,-0.857065,0.216506,-0.406636,-5.448566,0.084571,-11.539630
1790538519.2694,0.026461,-0.086340,-0.168286,0.027013,-0.090394,-0.168286,-0.927486,0.314851,-0.404208,-2.497311,-0.993649,-6.649420
1790538519.2833,0.015490,-0.075775,-0.149402,0.018947,-0.080160,-0.149402,-0.943269,0.976559,-0.358071,-1.232488,-0.919289,-5.562707
1790538519.2974,0.009597,-0.069294,-0.135440,0.012402,-0.072554,-0.135440,-0.706512,0.830862,-0.371426,-4.490366,-2.369308,-6.571797
1790538519.3116,-0.004652,-0.056655,-0.131832,0.000464,-0.061425,-0.131832,-0.926271,1.157466,-0.259725,-1.232488,0.382011,-7.619700
1790538519.3256,0.005879,-0.060042,-0.122491,0.004255,-0.060457,-0.122491,0.089966,-0.590899,-0.042394,-4.413711,-2.369308,-19.030189
1790538519.3396,0.009381,-0.062243,-0.117525,0.007843,-0.061707,-0.117525,0.137317,-0.356569,0.582890,0.837223,1.051251,-13.014455
1790538519.3534,0.005319,-0.066214,-0.113370,0.006076,-0.064862,-0.113370,0.229592,0.150942,0.734657,1.105519,0.233291,-10.685784
1790538519.3673,0.001453,-0.070175,-0.110435,0.002840,-0.068581,-0.110435,0.317010,0.220148,0.457833,0.185647,0.865351,-5.717951
1790538519.3812,-0.010031,-0.077010,-0.119037,-0.006170,-0.074481,-0.119037,0.507630,0.687593,0.357059,1.603783,1.051251,-8.939280
1790538519.3951,-0.022147,-0.084984,-0.126110,-0.017354,-0.081833,-0.126110,0.609618,0.734944,0.445692,1.872079,1.646131,-10.646972
1790538519.4091,-0.033721,-0.092236,-0.126233,-0.028811,-0.089115,-0.126233,0.616903,0.804151,0.546465,0.185647,1.980751,-7.813756
1790538519.4240,-0.043404,-0.096819,-0.121919,-0.039026,-0.094508,-0.121919,0.376503,0.630528,0.650882,0.070663,2.129471,-8.900469
1790538519.4382,-0.049821,-0.102700,-0.114245,-0.046582,-0.100243,-0.114245,0.450566,0.454478,0.666665,-0.082648,1.646131,-8.978091
1790538519.4527,-0.052858,-0.108429,-0.105789,-0.050975,-0.105973,-0.105789,0.439638,0.251716,0.596245,-0.542584,1.832031,-9.637881
1790538519.4677,-0.041024,-0.112083,-0.086627,-0.044009,-0.110250,-0.086627,0.125176,-0.695315,0.595031,-1.999048,-0.919289,-12.936833
1790538519.4824,-0.031816,-0.106675,-0.081284,-0.035474,-0.107747,-0.081284,-0.441829,-0.729311,0.574391,2.025391,-0.138509,-12.898021
1790538519.4961,-0.025110,-0.099234,-0.080146,-0.028219,-0.101788,-0.080146,-0.688300,-0.662533,0.540395,2.523654,-1.253909,-10.258860
1790538519.5100,-0.024200,-0.090858,-0.098693,-0.025405,-0.094137,-0.098693,-0.751435,-0.430632,0.352203,4.785005,-1.402628,-7.658511
1790538519.5240,-0.016240,-0.077866,-0.108479,-0.018990,-0.082747,-0.108479,-0.929914,-0.796089,0.244144,2.945262,0.716631,-8.279490
1790538519.5379,-0.008799,-0.063333,-0.118452,-0.011856,-0.069157,-0.118452,-1.037972,-0.879864,0.144584,4.555037,0.902531,-7.774944
1790538519.5519,0.000267,-0.051159,-0.120965,-0.003370,-0.056559,-0.120965,-0.893490,-0.828871,0.104518,3.328542,1.014071,-12.393476
1790538519.5658,-0.012390,-0.056990,-0.117299,-0.009684,-0.056861,-0.117299,0.354648,0.926779,-0.196590,0.952207,0.233291,-18.486833
1790538519.5797,-0.017212,-0.061802,-0.131336,-0.014954,-0.060319,-0.131336,0.429925,0.479975,-0.783020,-0.542584,2.649991,-13.519000
1790538519.5936,-0.000769,-0.061974,-0.117879,-0.005024,-0.061478,-0.117879,0.177384,-0.830085,-0.656749,-2.267343,1.869211,-4.631238
1790538519.6075,-0.000831,-0.066635,-0.121477,-0.002089,-0.065088,-0.121477,0.274515,-0.067603,-0.324075,1.182175,0.010211,-6.571797
1790538519.6214,0.008882,-0.076577,-0.114325,0.005591,-0.073130,-0.114325,0.659398,-0.547190,-0.528050,-1.385800,0.047391,-9.366203
1790538519.6354,0.023601,-0.085127,-0.120697,0.018198,-0.081528,-0.120697,0.690966,-0.888363,-0.594828,-1.845736,2.055111,-9.599070
1790538519.6489,0.031005,-0.089833,-0.147765,0.027163,-0.087341,-0.147765,0.503988,-0.573901,-0.735669,0.875551,2.612811,-8.007811
1790538519.6625,0.033833,-0.093324,-0.173353,0.031832,-0.091529,-0.173353,0.399572,-0.278864,-0.740525,1.488799,2.612811,-8.473546
1790538519.6765,0.042447,-0.100730,-0.185344,0.039263,-0.097970,-0.185344,0.545269,-0.560545,-0.721099,-0.389272,1.088431,-9.715504
1790538519.6904,0.044942,-0.110072,-0.200694,0.043238,-0.106442,-0.200694,0.805095,-0.144094,-0.392067,-0.542584,2.947431,-10.608161
1790538519.7042,0.029073,-0.108308,-0.205797,0.033323,-0.107748,-0.205797,-0.144364,1.162323,-0.343501,-0.044320,0.753811,-15.381938
1790538519.7181,0.027888,-0.095320,-0.183520,0.029519,-0.099049,-0.183520,-1.020975,0.391342,-0.453988,-4.950302,-0.435949,-10.414105
1790538519.7323,0.025471,-0.086085,-0.165804,0.026685,-0.089974,-0.165804,-0.863136,0.328207,-0.370212,-1.424128,-1.662888,-6.727042
1790538519.7462,0.016165,-0.074465,-0.158273,0.019321,-0.079118,-0.158273,-0.971195,0.816292,-0.288864,-1.079176,-0.659029,-5.950818
1790538519.7601,0.009476,-0.065325,-0.149142,0.012429,-0.069463,-0.149142,-0.820641,0.724017,-0.297363,-3.072231,-1.551348,-9.133336
1790538519.7739,-0.006900,-0.053416,-0.151558,-0.001101,-0.058230,-0.151558,-0.849780,1.274024,-0.240299,-0.580912,1.199971,-9.405014
1790538519.7879,0.005358,-0.058393,-0.143557,0.003420,-0.058344,-0.143557,0.307297,-0.688030,-0.060606,-4.796990,0.493551,-16.352217
1790538519.8018,0.005461,-0.056896,-0.140160,0.004849,-0.057331,-0.140160,-0.082443,-0.125882,0.571962,1.028863,1.757671,-11.073895
1790538519.8157,0.000700,-0.059704,-0.131305,0.001944,-0.058992,-0.131305,0.172527,0.267500,0.666665,0.223975,0.790991,-10.763406
1790538519.8296,0.003458,-0.068720,-0.118056,0.003004,-0.065802,-0.118056,0.536770,-0.053034,0.476045,-2.458983,-0.584669,-8.124245
1790538519.8435,-0.008082,-0.078513,-0.121778,-0.004756,-0.074699,-0.121778,0.693394,0.682736,0.461475,1.603783,0.753811,-8.822846
1790538519.8574,-0.022402,-0.087697,-0.118512,-0.017108,-0.083798,-0.118512,0.703107,0.937706,0.635098,0.990535,1.646131,-9.560259
1790538519.8709,-0.037499,-0.097170,-0.111657,-0.031382,-0.093158,-0.111657,0.743174,1.046979,0.778366,0.760567,1.906391,-10.336483
1790538519.8845,-0.047209,-0.102243,-0.102311,-0.042460,-0.099518,-0.102311,0.452994,0.703377,0.823290,-0.044320,2.538451,-9.715504
1790538519.8980,-0.050560,-0.109164,-0.089833,-0.048130,-0.106270,-0.089833,0.500346,0.268714,0.768653,-0.350944,1.088431,-9.715504
1790538519.9119,-0.045606,-0.113596,-0.081020,-0.046363,-0.111398,-0.081020,0.386216,-0.385709,0.733443,0.453943,2.649991,-10.996273
1790538519.9257,-0.038867,-0.112893,-0.075080,-0.041116,-0.112444,-0.075080,-0.114010,-0.592113,0.620528,1.795423,0.158931,-11.306763
1790538519.9396,-0.035962,-0.111584,-0.072879,-0.037509,-0.111842,-0.072879,-0.249994,-0.408777,0.779581,3.290214,-1.476988,-10.879840
1790538519.9535,-0.031812,-0.110180,-0.067238,-0.033521,-0.110679,-0.067238,-0.286419,-0.462200,0.739514,2.446998,-1.923148,-10.181238
1790538519.9676,-0.029474,-0.103060,-0.071277,-0.030688,-0.105345,-0.071277,-0.625164,-0.408777,0.522182,2.868606,-0.770569,-7.231588
1790538519.9820,-0.023263,-0.090322,-0.071386,-0.025490,-0.094829,-0.071386,-0.984550,-0.630965,0.434764,2.983590,-0.621849,-9.366203
1790538519.9960,-0.016163,-0.073886,-0.078089,-0.018961,-0.080169,-0.078089,-1.243163,-0.773020,0.230788,4.018446,-0.175689,-9.055714
1790538520.0102,-0.009014,-0.055287,-0.088629,-0.011998,-0.062751,-0.088629,-1.299013,-0.792446,0.185865,3.635166,0.976891,-7.425644
1790538520.0242,-0.019184,-0.054479,-0.083130,-0.017028,-0.056961,-0.083130,-0.174717,0.624458,-0.056963,2.791950,-0.956469,-12.587532
1790538520.0381,-0.022454,-0.060952,-0.092956,-0.020826,-0.059754,-0.092956,0.530699,0.351276,-0.647036,-0.465928,2.575631,-14.877392
1790538520.0521,-0.013905,-0.060564,-0.114206,-0.015981,-0.060321,-0.114206,0.211380,-0.570258,-0.457630,0.185647,3.988471,-8.124245
1790538520.0660,-0.018336,-0.063490,-0.119177,-0.017629,-0.062540,-0.119177,0.198024,0.147300,-0.239085,2.753622,0.530731,-7.542077
1790538520.0799,-0.005359,-0.069321,-0.116471,-0.009040,-0.067287,-0.116471,0.426283,-0.802159,-0.390852,-1.462456,1.162791,-11.190329
1790538520.0936,0.004501,-0.078435,-0.127551,0.000439,-0.075091,-0.127551,0.710392,-0.679531,-0.552333,0.262303,1.460231,-9.715504
1790538520.1072,0.012271,-0.088335,-0.136648,0.008721,-0.084362,-0.136648,0.721319,-0.571472,-0.659178,0.683911,0.493551,-8.163056
1790538520.1208,0.022645,-0.092171,-0.153350,0.018468,-0.089828,-0.153350,0.380145,-0.706242,-0.694388,-0.159304,1.608951,-7.153965
1790538520.1347,0.029195,-0.098093,-0.165304,0.025977,-0.095613,-0.165304,0.438424,-0.508337,-0.633681,1.028863,0.865351,-8.939280
1790538520.1486,0.039111,-0.104951,-0.177261,0.035171,-0.102149,-0.177261,0.531913,-0.681959,-0.563261,-0.197632,1.385871,-10.220049
1790538520.1625,0.029657,-0.101915,-0.193164,0.031311,-0.101985,-0.193164,-0.157719,0.725231,-0.633681,-0.350944,2.947431,-16.507462
1790538520.1762,0.024463,-0.089044,-0.181356,0.026518,-0.092927,-0.181356,-0.927486,0.653597,-0.504982,-5.486894,1.646131,-13.324944
1790538520.1902,0.023842,-0.076690,-0.147416,0.024644,-0.081561,-0.147416,-1.000334,0.421696,-0.501339,-4.911974,-0.659029,-7.969000
1790538520.2041,0.015471,-0.066443,-0.142455,0.018223,-0.070978,-0.142455,-0.814570,0.782296,-0.322860,-1.232488,-0.101329,-5.213406
1790538520.2179,0.005811,-0.060362,-0.136034,0.009534,-0.063547,-0.136034,-0.538960,0.917066,-0.271866,-1.347472,-0.250049,-4.670049
1790538520.2323,-0.001486,-0.053075,-0.141866,0.001820,-0.056217,-0.141866,-0.445471,0.554037,-0.225729,-0.159304,2.055111,-9.715504
1790538520.2465,0.004694,-0.058429,-0.135600,0.003832,-0.057765,-0.135600,0.298798,-0.443987,0.171295,-0.159304,-0.175689,-13.635434
1790538520.2604,0.007309,-0.057527,-0.125350,0.006266,-0.057599,-0.125350,-0.070301,-0.196302,0.550108,-0.810880,1.162791,-10.414105
1790538520.2743,0.004265,-0.059839,-0.115961,0.004866,-0.059167,-0.115961,0.071753,0.121803,0.644811,0.453943,-0.287229,-8.318301
1790538520.2883,-0.000466,-0.068652,-0.110696,0.001134,-0.065807,-0.110696,0.604762,0.306352,0.350988,0.070663,0.493551,-7.270399
1790538520.3021,-0.012833,-0.076455,-0.115614,-0.008643,-0.073260,-0.115614,0.561053,0.721589,0.389841,2.140375,0.828171,-8.667602
1790538520.3160,-0.025905,-0.083008,-0.110542,-0.020727,-0.080084,-0.110542,0.476063,0.879427,0.580461,0.722239,1.162791,-10.181238
1790538520.3300,-0.038102,-0.092105,-0.104360,-0.032890,-0.088499,-0.104360,0.688538,0.812650,0.740728,0.453943,1.794851,-9.210958
1790538520.3436,-0.044814,-0.098310,-0.096178,-0.041237,-0.095366,-0.096178,0.500346,0.487260,0.755298,-0.120976,1.794851,-8.861658
1790538520.3571,-0.052929,-0.103801,-0.091280,-0.049421,-0.101271,-0.091280,0.462707,0.538253,0.734657,0.760567,2.017931,-8.861658
1790538520.3710,-0.048389,-0.108208,-0.077388,-0.048699,-0.106127,-0.077388,0.211380,-0.289791,0.616886,-0.810880,-0.584669,-13.480189
1790538520.3848,-0.044291,-0.108710,-0.073000,-0.045613,-0.107935,-0.073000,0.009832,-0.399064,0.520968,2.370342,0.939711,-13.635434
1790538520.3987,-0.033680,-0.105704,-0.064571,-0.037260,-0.106374,-0.064571,-0.310701,-0.876222,0.615671,1.948735,-0.398769,-11.462007
1790538520.4127,-0.026554,-0.102068,-0.057164,-0.029765,-0.103359,-0.057164,-0.423617,-0.706242,0.604744,3.136902,-1.700068,-10.414105
1790538520.4265,-0.025593,-0.093647,-0.060201,-0.026845,-0.096561,-0.060201,-0.735651,-0.395422,0.483330,4.401726,-1.030829,-7.697322
1790538520.4404,-0.016388,-0.080976,-0.057064,-0.019525,-0.085651,-0.057064,-0.997906,-0.858010,0.389841,2.983590,-0.361589,-9.909560
1790538520.4543,-0.010012,-0.065663,-0.062747,-0.012866,-0.071659,-0.062747,-1.152102,-0.753594,0.202863,4.555037,0.121751,-8.978091
1790538520.4683,-0.002137,-0.051001,-0.064622,-0.005356,-0.057198,-0.064622,-1.087752,-0.825228,0.245358,3.366870,0.419191,-8.124245
1790538520.4824,-0.014469,-0.053690,-0.063820,-0.011735,-0.054742,-0.063820,0.137317,0.841789,-0.120099,1.680439,0.382011,-15.187882
1790538520.4965,-0.014498,-0.058537,-0.073296,-0.013669,-0.057399,-0.073296,0.399572,0.174011,-0.824301,-1.424128,2.352551,-14.295224
1790538520.5104,-0.000687,-0.060821,-0.071865,-0.004582,-0.059794,-0.071865,0.250232,-0.748737,-0.532907,-3.340527,2.649991,-10.685784
1790538520.5243,-0.000862,-0.067432,-0.064714,-0.001978,-0.065141,-0.064714,0.386216,0.063524,-0.236656,-0.159304,-0.324409,-8.667602
1790538520.5382,0.014415,-0.080140,-0.057326,0.009497,-0.075640,-0.057326,0.885229,-0.892006,-0.542620,-2.497311,0.419191,-9.676693
1790538520.5521,0.028728,-0.089809,-0.065577,0.022959,-0.085559,-0.065577,0.733461,-0.941786,-0.627610,-0.849208,1.497411,-10.414105
1790538520.5656,0.036195,-0.095805,-0.092221,0.032224,-0.092731,-0.092221,0.582907,-0.565402,-0.779378,0.683911,2.538451,-8.201867
1790538520.5792,0.043093,-0.100493,-0.110288,0.039833,-0.098165,-0.110288,0.409285,-0.510765,-0.724741,0.415615,1.608951,-8.512357
1790538520.5930,0.051284,-0.109033,-0.120712,0.047849,-0.105773,-0.120712,0.595049,-0.566616,-0.736883,-0.044320,0.419191,-7.231588
1790538520.6069,0.051543,-0.119690,-0.136086,0.050435,-0.115515,-0.136086,0.833020,-0.073674,-0.428491,1.297159,2.575631,-14.916203
1790538520.6207,0.034222,-0.117691,-0.147415,0.039086,-0.117038,-0.147415,-0.101869,1.278880,-0.412707,-0.465928,2.724351,-19.884036
1790538520.6345,0.034373,-0.104395,-0.137294,0.035787,-0.108188,-0.137294,-0.954197,0.277213,-0.396923,-6.330110,1.311511,-12.859210
1790538520.6485,0.032097,-0.095642,-0.104044,0.033204,-0.099406,-0.104044,-0.978480,0.352490,-0.360499,-1.002520,-1.848788,-3.350469
1790538520.6622,0.022075,-0.081528,-0.100136,0.025414,-0.086892,-0.100136,-1.141175,0.805365,-0.251226,-0.580912,-0.584669,-6.416553
1790538520.6761,0.007487,-0.065527,-0.120296,0.012865,-0.071936,-0.120296,-0.976051,1.083403,-0.332574,0.032335,2.649991,-6.571797
1790538520.6900,-0.012634,-0.053261,-0.139726,-0.004984,-0.058863,-0.139726,-0.704083,1.479214,-0.318004,0.377287,3.096151,-7.542077
1790538520.7037,-0.000428,-0.063072,-0.129116,-0.001795,-0.061809,-0.129116,0.597477,-0.673460,-0.217230,-4.605350,-1.328269,-15.187882
1790538520.7176,0.000499,-0.068512,-0.123860,-0.000189,-0.066501,-0.123860,0.364362,-0.124668,0.365558,0.837223,1.162791,-18.021098
1790538520.7322,-0.008139,-0.066289,-0.114560,-0.005754,-0.066353,-0.114560,-0.165004,0.561322,0.615671,-0.235960,1.199971,-11.966553
1790538520.7463,-0.005825,-0.071227,-0.097996,-0.005804,-0.069765,-0.097996,0.225949,-0.116169,0.608387,-1.654096,-0.882109,-10.491728
1790538520.7602,-0.012874,-0.080241,-0.086684,-0.010753,-0.077098,-0.086684,0.501560,0.549181,0.427479,-0.504256,-0.659029,-4.902916
1790538520.7743,-0.026053,-0.086129,-0.091704,-0.021463,-0.083420,-0.091704,0.507630,0.790795,0.569534,1.527127,1.906391,-7.309210
1790538520.7881,-0.034077,-0.092619,-0.087099,-0.030293,-0.089859,-0.087099,0.536770,0.568607,0.537966,-0.005993,2.426911,-10.802217
1790538520.8017,-0.045537,-0.097382,-0.084659,-0.040964,-0.095125,-0.084659,0.428711,0.782296,0.616886,0.798895,2.129471,-8.667602
1790538520.8155,-0.050815,-0.102940,-0.076411,-0.047860,-0.100596,-0.076411,0.422640,0.407126,0.598673,-0.427600,1.720491,-10.957462
1790538520.8296,-0.053074,-0.108061,-0.072010,-0.051510,-0.105821,-0.072010,0.442067,0.155799,0.531896,0.223975,2.761531,-10.996273
1790538520.8435,-0.049167,-0.109785,-0.063806,-0.049869,-0.108596,-0.063806,0.098464,-0.255795,0.488187,-0.274288,0.828171,-11.500819
1790538520.8575,-0.038743,-0.106928,-0.057680,-0.042081,-0.107428,-0.057680,-0.287633,-0.841012,0.460261,1.948735,-0.324409,-12.277042
1790538520.8713,-0.030250,-0.101608,-0.053891,-0.033799,-0.103354,-0.053891,-0.484324,-0.763307,0.422623,2.715294,-0.696209,-11.112707
1790538520.8852,-0.026904,-0.095353,-0.052706,-0.028973,-0.097753,-0.052706,-0.614237,-0.451272,0.325491,2.868606,-1.514168,-7.774944
1790538520.8991,-0.019825,-0.086232,-0.053431,-0.022569,-0.089688,-0.053431,-0.757506,-0.683173,0.159154,2.446998,-0.659029,-8.007811
1790538520.9130,-0.012347,-0.074733,-0.061458,-0.015413,-0.079219,-0.061458,-0.863136,-0.776662,0.085091,3.635166,0.307651,-8.706413
1790538520.9269,-0.011650,-0.066833,-0.065576,-0.012779,-0.070549,-0.065576,-0.617879,-0.176876,-0.124955,3.750150,0.158931,-14.605714
1790538520.9414,-0.017167,-0.073119,-0.074514,-0.015850,-0.072348,-0.074514,0.428711,0.405912,-0.577830,1.373815,0.939711,-15.847672
1790538520.9578,-0.005234,-0.079750,-0.101522,-0.008419,-0.077530,-0.101522,0.593834,-0.578757,-1.086556,-0.657568,2.835891,-6.804665
1790538520.9722,-0.007906,-0.079116,-0.121026,-0.008060,-0.078640,-0.121026,0.120319,-0.040892,-0.409065,2.906934,2.055111,-5.291028
1790538520.9865,-0.001094,-0.089254,-0.121407,-0.003184,-0.086070,-0.121407,0.681253,-0.480412,-0.243941,0.492271,0.270471,-8.784035
1790538521.0008,0.012499,-0.100521,-0.138876,0.007794,-0.096185,-0.138876,0.916796,-0.896862,-0.593614,-0.197632,2.947431,-10.685784
1790538521.0149,0.021742,-0.107217,-0.159222,0.017558,-0.103907,-0.159222,0.597477,-0.622466,-0.808517,0.185647,2.241011,-8.512357
1790538521.0285,0.026864,-0.110824,-0.176103,0.024072,-0.108749,-0.176103,0.403214,-0.411206,-0.631253,0.760567,2.092291,-7.348021
1790538521.0422,0.038113,-0.121406,-0.179493,0.033901,-0.117609,-0.179493,0.727390,-0.745095,-0.574188,-1.155832,-0.064149,-11.733686
1790538521.0562,0.052249,-0.136598,-0.184286,0.046745,-0.130901,-0.184286,1.061279,-0.991566,-0.460058,-0.350944,0.121751,-8.784035
1790538521.0701,0.047021,-0.146119,-0.190601,0.046938,-0.141554,-0.190601,0.683681,0.334278,-0.404208,0.990535,0.828171,-18.642077
1790538521.0840,0.033172,-0.138756,-0.187439,0.037302,-0.139596,-0.187439,-0.552316,1.148967,-0.209945,-4.413711,0.084571,-16.235784
1790538521.0980,0.037778,-0.126519,-0.172340,0.037635,-0.130442,-0.172340,-0.945698,-0.094315,-0.154095,-4.643678,-0.696209,-10.763406
1790538521.1119,0.042508,-0.116802,-0.138076,0.041046,-0.120894,-0.138076,-0.938413,-0.022680,-0.233014,-3.110559,-1.923148,-4.864105
1790538521.1260,0.031159,-0.102046,-0.133332,0.034125,-0.107700,-0.133332,-1.187312,0.778654,0.006172,0.223975,-0.956469,-6.106063
1790538521.1400,0.024358,-0.087720,-0.131258,0.027288,-0.093714,-0.131258,-1.058613,0.573464,-0.097030,-1.117504,0.158931,-7.852567
1790538521.1538,0.012816,-0.074930,-0.125370,0.017158,-0.080565,-0.125370,-1.036758,1.102830,-0.088531,-3.877119,-0.882109,-8.628791
1790538521.1678,0.013163,-0.069876,-0.120475,0.014362,-0.073082,-0.120475,-0.494037,0.163084,-0.050893,-4.490366,-1.848788,-14.566903
1790538521.1816,0.020054,-0.078940,-0.114473,0.018347,-0.077183,-0.114473,0.522200,-0.505909,0.341275,-0.887536,-2.332128,-17.710609
1790538521.1955,0.015546,-0.072373,-0.113422,0.016386,-0.073816,-0.113422,-0.304631,0.198294,0.721302,0.837223,3.207691,-8.318301
1790538521.2094,0.012863,-0.071994,-0.100652,0.013920,-0.072540,-0.100652,-0.021736,0.237146,0.664237,-1.692424,1.051251,-9.793126
1790538521.2232,0.010443,-0.078642,-0.095243,0.011486,-0.076812,-0.095243,0.490632,0.125445,0.440835,0.147319,0.828171,-7.697322
1790538521.2372,0.001667,-0.083864,-0.098683,0.004613,-0.081748,-0.098683,0.474849,0.442336,0.506399,1.795423,1.906391,-7.037532
1790538521.2511,-0.011758,-0.089773,-0.093783,-0.006847,-0.087365,-0.093783,0.477277,0.878213,0.622956,0.837223,1.683311,-9.172147
1790538521.2648,-0.019036,-0.094865,-0.087444,-0.015379,-0.092615,-0.087444,0.462707,0.517613,0.615671,-0.120976,2.055111,-8.201867
1790538521.2783,-0.024683,-0.100420,-0.079617,-0.021892,-0.098078,-0.079617,0.460279,0.411983,0.642383,-0.197632,1.794851,-9.870749
1790538521.2922,-0.029768,-0.106232,-0.071782,-0.027405,-0.103786,-0.071782,0.471206,0.336706,0.659381,0.185647,1.794851,-9.016902
1790538521.3062,-0.028517,-0.108442,-0.066806,-0.028184,-0.107045,-0.066806,0.314582,-0.131953,0.597459,0.568927,3.914111,-10.297672
1790538521.3200,-0.023595,-0.108546,-0.060344,-0.024972,-0.108096,-0.060344,0.052327,-0.547190,0.558607,3.826806,2.203831,-12.471098
1790538521.3338,-0.021922,-0.101198,-0.053067,-0.022837,-0.103268,-0.053067,-0.553530,-0.354141,0.497900,4.210086,0.679451,-10.879840
1790538521.3476,-0.019625,-0.094497,-0.044574,-0.020588,-0.097128,-0.044574,-0.580241,-0.400278,0.384984,3.826806,-0.659029,-9.676693
1790538521.3614,-0.013703,-0.081831,-0.043983,-0.015769,-0.086420,-0.043983,-0.922629,-0.662533,0.144584,2.868606,0.642271,-6.959909
1790538521.3752,-0.004982,-0.069113,-0.043301,-0.008218,-0.074305,-0.043301,-0.923843,-0.859224,0.062023,3.175230,0.716631,-7.736133
1790538521.3892,-0.003986,-0.061820,-0.052346,-0.005256,-0.065566,-0.052346,-0.424831,-0.241226,-0.075175,2.830278,2.278191,-8.434735
1790538521.4031,-0.009420,-0.069154,-0.065187,-0.008171,-0.068077,-0.065187,0.586550,0.554037,-0.570545,-1.845736,2.166651,-12.548721
1790538521.4170,-0.005323,-0.073839,-0.082871,-0.006177,-0.072110,-0.082871,0.417784,-0.099171,-0.927503,-2.114032,2.501271,-13.208511
1790538521.4309,0.000308,-0.076893,-0.094572,-0.001638,-0.075458,-0.094572,0.285442,-0.325002,-0.563261,-0.274288,1.608951,-8.745224
1790538521.4451,0.003814,-0.085991,-0.098241,0.002179,-0.082831,-0.098241,0.622974,-0.192660,-0.358071,-0.274288,0.456371,-9.521448
1790538521.4590,0.016811,-0.093874,-0.108800,0.012421,-0.090561,-0.108800,0.599905,-0.768163,-0.626396,-1.960720,1.125611,-9.405014
1790538521.4733,0.029252,-0.100586,-0.121810,0.024203,-0.097578,-0.121810,0.512487,-0.791232,-0.747810,-0.580912,1.311511,-8.939280
1790538521.4874,0.030876,-0.105826,-0.134987,0.028874,-0.103352,-0.134987,0.472420,-0.169591,-0.841299,1.603783,2.426911,-9.288581
1790538521.5020,0.038770,-0.110270,-0.151114,0.035801,-0.108195,-0.151114,0.369218,-0.482840,-0.806089,-0.350944,1.608951,-8.279490
1790538521.5167,0.047446,-0.120567,-0.159771,0.043953,-0.116856,-0.159771,0.677610,-0.586042,-0.727170,0.262303,0.456371,-9.754315
1790538521.5313,0.047254,-0.130407,-0.171044,0.046264,-0.126341,-0.171044,0.784455,0.021029,-0.387210,-0.159304,2.687171,-10.802217
1790538521.5457,0.029766,-0.125380,-0.170929,0.034715,-0.125668,-0.170929,-0.373837,1.136826,-0.373854,1.757095,0.270471,-13.324944
1790538521.5606,0.026592,-0.112084,-0.177052,0.029029,-0.116159,-0.177052,-0.951768,0.409554,-0.381139,-3.992103,-0.510309,-11.811308
1790538521.5744,0.024140,-0.102551,-0.177211,0.025607,-0.106634,-0.177211,-0.816999,0.408340,-0.330145,-2.957247,-1.142369,-7.852567
1790538521.5883,0.012829,-0.090263,-0.177768,0.016662,-0.095175,-0.177768,-0.979694,0.883070,-0.191733,-0.542584,-0.473129,-6.688231
1790538521.6024,0.006081,-0.076239,-0.179877,0.009256,-0.081919,-0.179877,-1.075611,0.730088,-0.256083,-2.535639,-0.398769,-6.300119
1790538521.6168,-0.004337,-0.064414,-0.179227,-0.000259,-0.069665,-0.179227,-0.979694,0.966846,-0.188091,-3.417183,-1.700068,-9.016902
1790538521.6307,0.005978,-0.064585,-0.175404,0.004107,-0.066109,-0.175404,-0.166218,-0.541119,-0.008398,-6.176798,-3.744968,-17.710609
1790538521.6447,0.006161,-0.069429,-0.166853,0.005545,-0.068433,-0.166853,0.272087,-0.226656,0.605958,4.056774,-0.287229,-15.304315
1790538521.6586,0.005340,-0.074809,-0.155070,0.005402,-0.072896,-0.155070,0.389859,-0.010539,0.845144,-0.082648,0.976891,-8.939280
1790538521.6724,0.007033,-0.079967,-0.139538,0.006543,-0.077846,-0.139538,0.369218,0.125445,0.669094,-2.573967,0.419191,-4.514804
1790538521.6862,0.000901,-0.085101,-0.133587,0.002594,-0.082924,-0.133587,0.445709,0.369488,0.369201,0.607255,1.423051,-6.765853
1790538521.6999,-0.009071,-0.095532,-0.127788,-0.005572,-0.091750,-0.127788,0.751673,0.598961,0.480902,1.910407,0.828171,-11.073895
1790538521.7135,-0.026564,-0.104330,-0.118789,-0.020266,-0.100556,-0.118789,0.794168,1.178106,0.612029,1.373815,2.761531,-8.124245
1790538521.7275,-0.035110,-0.110569,-0.109178,-0.030657,-0.107565,-0.109178,0.524628,0.614744,0.704304,-0.350944,2.649991,-10.646972
1790538521.7414,-0.044006,-0.117626,-0.099426,-0.040001,-0.114608,-0.099426,0.528271,0.657239,0.767439,-0.274288,1.199971,-8.046623
1790538521.7554,-0.048279,-0.124582,-0.089119,-0.045796,-0.121590,-0.089119,0.550125,0.325779,0.743156,-0.274288,1.906391,-9.055714
1790538521.7693,-0.038537,-0.131396,-0.080680,-0.040715,-0.128454,-0.080680,0.363147,-0.654034,0.830575,-1.079176,-1.179549,-13.130889
1790538521.7833,-0.031864,-0.126370,-0.069549,-0.034519,-0.126995,-0.069549,-0.410261,-0.584828,0.665451,2.102047,0.158931,-11.617252
1790538521.7972,-0.032431,-0.118498,-0.058240,-0.033057,-0.121047,-0.058240,-0.704083,-0.204801,0.567106,4.325070,-1.476988,-9.793126
1790538521.8110,-0.028686,-0.108133,-0.051039,-0.029997,-0.112007,-0.051039,-0.904417,-0.519264,0.309708,3.405198,-1.439808,-7.348021
1790538521.8250,-0.021371,-0.094776,-0.046785,-0.023959,-0.099946,-0.046785,-0.980908,-0.775448,0.252643,3.558510,0.419191,-7.813756
1790538521.8389,-0.013045,-0.081101,-0.043466,-0.016319,-0.086754,-0.043466,-0.976051,-0.848297,0.225932,3.635166,0.902531,-8.163056
1790538521.8528,-0.011560,-0.070467,-0.043139,-0.012987,-0.075353,-0.043139,-0.725938,-0.338357,0.131229,3.558510,1.460231,-8.473546
1790538521.8667,-0.021754,-0.074067,-0.047758,-0.019124,-0.074453,-0.047758,0.268444,0.783510,-0.259725,0.070663,1.162791,-12.742777
1790538521.8806,-0.015367,-0.073932,-0.059677,-0.016494,-0.074088,-0.059677,0.051113,-0.248511,-0.639751,-2.612295,1.832031,-11.423196
1790538521.8945,-0.013424,-0.073354,-0.068883,-0.014345,-0.073574,-0.068883,0.064469,-0.082173,-0.325289,-0.120976,1.869211,-7.270399
1790538521.9083,-0.011934,-0.081547,-0.072865,-0.012657,-0.079155,-0.072865,0.593834,-0.022680,-0.241513,-0.734224,0.753811,-9.560259
1790538521.9222,0.003481,-0.089309,-0.081361,-0.001360,-0.086263,-0.081361,0.575622,-0.907790,-0.543834,-2.190688,0.753811,-8.357112
1790538521.9361,0.010648,-0.094721,-0.091763,0.007046,-0.092184,-0.091763,0.474849,-0.505909,-0.691960,0.607255,1.757671,-8.473546
1790538521.9495,0.014975,-0.100011,-0.102263,0.012596,-0.097662,-0.102263,0.465135,-0.327430,-0.766022,0.913879,1.757671,-9.599070
1790538521.9631,0.020004,-0.103237,-0.114821,0.017782,-0.101565,-0.114821,0.307297,-0.314074,-0.774521,-0.120976,1.571771,-8.667602
1790538521.9772,0.030951,-0.109816,-0.127691,0.027000,-0.107340,-0.127691,0.496703,-0.668604,-0.741739,-1.155832,1.162791,-9.560259
1790538521.9917,0.040075,-0.118994,-0.138927,0.036152,-0.115498,-0.138927,0.692180,-0.586042,-0.666463,-0.427600,1.720491,-10.064805
1790538522.0058,0.038622,-0.121029,-0.146818,0.037881,-0.119370,-0.146818,0.334008,0.110875,-0.434561,-0.005993,4.546171,-11.151518
1790538522.0197,0.026366,-0.114284,-0.157855,0.029821,-0.115810,-0.157855,-0.460041,0.961989,-0.500125,-1.462456,1.646131,-14.838581
1790538522.0336,0.022151,-0.102324,-0.168022,0.024452,-0.106370,-0.168022,-0.925057,0.517613,-0.333788,-4.068759,-0.510309,-11.966553
1790538522.0476,0.023522,-0.094532,-0.168391,0.023801,-0.098083,-0.168391,-0.758720,0.198294,-0.243941,-3.877119,-2.220588,-6.959909
1790538522.0615,0.013429,-0.079130,-0.172011,0.016541,-0.084816,-0.172011,-1.163029,0.815078,-0.012040,-1.002520,-0.026969,-7.115154
1790538522.0754,0.003521,-0.061986,-0.179416,0.007427,-0.068835,-0.179416,-1.290514,0.898854,-0.258511,-1.845736,0.047391,-7.309210
1790538522.0894,0.000542,-0.054598,-0.184027,0.002608,-0.058870,-0.184027,-0.632449,0.351276,-0.098244,-1.807408,-0.584669,-9.210958
1790538522.1032,0.007488,-0.059495,-0.177471,0.006024,-0.059307,-0.177471,0.400786,-0.477983,0.319421,-1.232488,2.538451,-12.936833
1790538522.1165,0.004949,-0.063012,-0.168175,0.005271,-0.061900,-0.168175,0.269659,0.131516,0.714017,-0.197632,1.646131,-13.480189
1790538522.1296,0.002412,-0.064917,-0.160204,0.003270,-0.064012,-0.160204,0.127604,0.193437,0.740728,-1.155832,0.976891,-10.996273
1790538522.1426,0.000432,-0.068366,-0.155786,0.001283,-0.067060,-0.155786,0.228378,0.238360,0.506399,-1.270816,0.344831,-6.338930
1790538522.1564,-0.007016,-0.078763,-0.147022,-0.004526,-0.075252,-0.147022,0.697037,0.387700,0.564677,1.718767,0.121751,-9.249770
1790538522.1703,-0.019861,-0.085394,-0.128632,-0.015260,-0.082351,-0.128632,0.579265,0.767726,0.667880,1.910407,2.538451,-8.939280
1790538522.1839,-0.034932,-0.090633,-0.113140,-0.029030,-0.088148,-0.113140,0.491847,1.031195,0.732229,0.683911,2.464091,-8.163056
1790538522.1975,-0.039965,-0.097361,-0.101569,-0.036684,-0.094597,-0.101569,0.519772,0.354918,0.809934,-0.197632,2.129471,-11.927742
1790538522.2115,-0.049899,-0.104021,-0.085024,-0.045935,-0.101194,-0.085024,0.531913,0.618387,0.816005,1.143847,2.092291,-8.861658
1790538522.2255,-0.038682,-0.109833,-0.075338,-0.040858,-0.107241,-0.075338,0.415356,-0.779091,0.750441,-0.849208,1.943571,-13.907112
1790538522.2399,-0.025200,-0.105499,-0.062194,-0.029897,-0.106022,-0.062194,-0.324057,-1.042560,0.570748,1.910407,0.865351,-12.044175
1790538522.2540,-0.022039,-0.097760,-0.044503,-0.024397,-0.100239,-0.044503,-0.655518,-0.459771,0.609601,3.520182,-0.770569,-9.249770
1790538522.2681,-0.021139,-0.090825,-0.029465,-0.022116,-0.093649,-0.029465,-0.644590,-0.317717,0.551322,3.175230,-1.216729,-7.619700
1790538522.2819,-0.009193,-0.081711,-0.019818,-0.013070,-0.085293,-0.019818,-0.702869,-1.017063,0.347346,1.987063,0.307651,-8.822846
1790538522.2957,0.000713,-0.070189,-0.009113,-0.003422,-0.074720,-0.009113,-0.863136,-1.055915,0.299994,4.056774,0.382011,-6.765853
1790538522.3096,0.003631,-0.066188,-0.002685,0.001515,-0.068748,-0.002685,-0.385978,-0.308004,0.142156,1.948735,-0.733389,-13.441378
1790538522.3234,-0.010875,-0.074470,-0.008256,-0.007158,-0.072753,-0.008256,0.626616,1.072476,-0.239085,0.453943,2.203831,-16.507462
1790538522.3373,-0.008799,-0.076208,-0.025282,-0.008307,-0.075171,-0.025282,0.249018,-0.019038,-0.804875,-0.925864,3.505131,-13.130889
1790538522.3513,-0.001898,-0.077171,-0.036842,-0.003821,-0.076571,-0.036842,0.131246,-0.386923,-0.616683,-0.427600,1.088431,-6.183686
1790538522.3651,0.005272,-0.081790,-0.037217,0.002544,-0.080224,-0.037217,0.319438,-0.542333,-0.201446,0.377287,0.307651,-5.174595
1790538522.3788,0.015449,-0.094688,-0.045791,0.011577,-0.090349,-0.045791,0.930152,-0.612753,-0.415135,-1.309144,0.493551,-8.357112
1790538522.3928,0.031550,-0.108230,-0.059498,0.025558,-0.102866,-0.059498,1.114701,-1.040131,-0.575402,-1.155832,2.315371,-7.386832
1790538522.4063,0.041423,-0.114538,-0.069954,0.036664,-0.111036,-0.069954,0.593834,-0.741452,-0.846156,0.645583,2.687171,-8.939280
1790538522.4200,0.046879,-0.120253,-0.072875,0.043815,-0.117488,-0.072875,0.421426,-0.494981,-0.693174,1.795423,0.902531,-9.870749
1790538522.4339,0.051731,-0.128206,-0.079534,0.049356,-0.124991,-0.079534,0.629045,-0.403921,-0.647036,0.990535,1.720491,-9.987182
1790538522.4478,0.048633,-0.138132,-0.082083,0.048850,-0.134189,-0.082083,0.630259,0.155799,-0.651893,1.642111,-1.030829,-14.566903
1790538522.4615,0.041048,-0.133779,-0.090591,0.043388,-0.133902,-0.090591,-0.365338,0.608674,-0.502553,-1.385800,-0.324409,-14.644525
1790538522.4756,0.042839,-0.126584,-0.104013,0.043004,-0.128779,-0.104013,-0.662803,0.055025,-0.407850,-2.957247,-1.923148,-9.210958
1790538522.4896,0.038482,-0.117559,-0.113219,0.039839,-0.120925,-0.113219,-0.859494,0.469047,-0.303434,-1.462456,-1.700068,-5.174595
1790538522.5042,0.034770,-0.102307,-0.123406,0.036291,-0.107893,-0.123406,-1.175171,0.458120,-0.303434,-2.765607,-1.216729,-7.658511
1790538522.5183,0.029586,-0.092713,-0.131727,0.031598,-0.097267,-0.131727,-0.893490,0.562536,-0.260939,-3.110559,-2.852648,-9.249770
1790538522.5322,0.019376,-0.080480,-0.138443,0.023042,-0.085516,-0.138443,-0.897132,0.961989,-0.368998,-2.957247,0.567911,-8.628791
1790538522.5461,0.017250,-0.069597,-0.143449,0.018987,-0.074373,-0.143449,-0.882562,0.354918,-0.137097,-4.796990,-1.068009,-14.566903
1790538522.5599,0.027813,-0.072790,-0.145686,0.025165,-0.073265,-0.145686,0.076610,-0.763307,0.157940,-0.619240,-2.294948,-14.178791
1790538522.5738,0.023231,-0.073441,-0.138650,0.023811,-0.073388,-0.138650,0.055970,0.226219,0.559821,1.067191,1.348691,-13.480189
1790538522.5877,0.018858,-0.071863,-0.127768,0.020344,-0.072320,-0.127768,-0.041162,0.223791,0.625385,0.300631,1.274331,-6.028441
1790538522.6016,0.013128,-0.076649,-0.124939,0.015293,-0.075350,-0.124939,0.349792,0.314851,0.241716,0.990535,0.753811,-7.619700
1790538522.6155,0.006425,-0.084503,-0.121138,0.009085,-0.081757,-0.121138,0.581693,0.331849,0.261142,2.140375,1.125611,-9.521448
1790538522.6295,-0.011185,-0.091967,-0.115836,-0.005104,-0.088904,-0.115836,0.592620,1.122256,0.361916,1.948735,1.608951,-8.745224
1790538522.6430,-0.020034,-0.099229,-0.109218,-0.015555,-0.096131,-0.109218,0.596263,0.642670,0.450548,-0.005993,1.720491,-9.055714
1790538522.6566,-0.027463,-0.104125,-0.100597,-0.023891,-0.101727,-0.100597,0.451780,0.506686,0.527039,0.530599,2.464091,-9.948371
1790538522.6706,-0.035997,-0.111696,-0.091742,-0.032365,-0.108705,-0.091742,0.591406,0.585605,0.597459,0.338959,1.608951,-8.900469
1790538522.6844,-0.031332,-0.113460,-0.083147,-0.031642,-0.112034,-0.083147,0.179812,-0.331072,0.558607,-0.197632,2.278191,-12.044175
1790538522.6983,-0.022425,-0.110179,-0.072720,-0.025190,-0.110735,-0.072720,-0.228140,-0.737810,0.564677,2.217030,1.757671,-15.498371
1790538522.7120,-0.021431,-0.102179,-0.061899,-0.022559,-0.104746,-0.061899,-0.611809,-0.263080,0.484544,3.136902,0.456371,-10.142427
1790538522.7258,-0.021115,-0.095314,-0.052869,-0.021548,-0.098144,-0.052869,-0.651875,-0.218157,0.387413,2.791950,-1.476988,-8.512357
1790538522.7397,-0.016535,-0.084251,-0.048039,-0.018039,-0.088419,-0.048039,-0.867993,-0.531406,0.133657,2.983590,-0.212869,-8.279490
1790538522.7540,-0.010069,-0.072038,-0.045464,-0.012460,-0.076952,-0.045464,-0.857065,-0.715955,0.102089,3.941790,0.790991,-7.813756
1790538522.7680,-0.002101,-0.060209,-0.044705,-0.005209,-0.065232,-0.044705,-0.787859,-0.766949,0.110588,2.561982,1.571771,-7.348021
1790538522.7819,-0.015883,-0.062676,-0.042372,-0.012681,-0.063443,-0.042372,0.100893,0.845431,-0.143167,3.941790,-0.398769,-12.277042
1790538522.7957,-0.025738,-0.067736,-0.054404,-0.021821,-0.066448,-0.054404,0.404428,0.875785,-0.654321,-1.730752,1.869211,-15.731238
1790538522.8096,-0.012684,-0.067594,-0.067213,-0.015425,-0.067251,-0.067213,0.089966,-0.816729,-0.605756,-0.887536,2.687171,-11.267951
1790538522.8235,-0.013233,-0.072861,-0.068980,-0.013891,-0.071178,-0.068980,0.385002,-0.070032,-0.262153,2.561982,0.939711,-9.909560
1790538522.8373,-0.002482,-0.081131,-0.075343,-0.005905,-0.078145,-0.075343,0.587764,-0.620038,-0.452774,-1.692424,0.493551,-9.288581
1790538522.8513,0.008827,-0.085495,-0.088733,0.004408,-0.083290,-0.088733,0.420212,-0.730525,-0.613040,-0.389272,2.055111,-8.163056
1790538522.8649,0.016874,-0.091539,-0.099687,0.013134,-0.089064,-0.099687,0.462707,-0.532620,-0.793948,0.032335,1.014071,-9.637881
1790538522.8784,0.020437,-0.095548,-0.110248,0.018246,-0.093603,-0.110248,0.351006,-0.250939,-0.670105,0.415615,1.274331,-7.736133
1790538522.8924,0.033706,-0.102201,-0.119976,0.029068,-0.099621,-0.119976,0.463921,-0.844654,-0.662820,-1.309144,0.605091,-10.724595
1790538522.9061,0.041739,-0.111671,-0.126891,0.037938,-0.108056,-0.126891,0.692180,-0.604254,-0.593614,0.683911,0.902531,-10.375294
1790538522.9200,0.032162,-0.115585,-0.129968,0.033895,-0.113326,-0.129968,0.219879,0.649955,-0.504982,1.258831,-0.361589,-12.820399
1790538522.9339,0.023756,-0.105062,-0.141965,0.026797,-0.107542,-0.141965,-0.755077,0.782296,-0.530479,-3.417183,1.014071,-13.286133
1790538522.9477,0.026152,-0.093106,-0.150549,0.026346,-0.097437,-0.150549,-0.923843,0.072023,-0.447917,-4.107087,-0.250049,-10.569350
1790538522.9615,0.019625,-0.083243,-0.153586,0.021641,-0.087501,-0.153586,-0.926271,0.719161,-0.399351,-2.152360,-1.625708,-5.523895
1790538522.9754,0.012950,-0.071971,-0.158068,0.015558,-0.076630,-0.158068,-0.878920,0.677880,-0.257297,-2.267343,-0.138509,-7.774944
1790538522.9893,0.007987,-0.061996,-0.160729,0.010258,-0.066386,-0.160729,-0.858279,0.619601,-0.157737,-3.148887,-1.142369,-7.115154
1790538523.0034,0.002723,-0.049001,-0.161893,0.004983,-0.054217,-0.161893,-1.005191,0.608674,-0.073961,-3.953775,-0.287229,-10.258860
1790538523.0180,0.012905,-0.050959,-0.157234,0.010529,-0.051936,-0.157234,0.036543,-0.652820,0.359487,-3.033903,-0.919289,-19.030189
1790538523.0322,0.004456,-0.060129,-0.153679,0.006277,-0.057671,-0.153679,0.508845,0.313637,0.830575,2.945262,-1.105189,-8.473546
1790538523.0462,0.004435,-0.059971,-0.130548,0.004988,-0.059281,-0.130548,0.191953,0.109661,0.709160,-1.845736,2.761531,-5.329839
1790538523.0603,0.002880,-0.062112,-0.125162,0.003513,-0.061263,-0.125162,0.183454,0.159441,0.255071,-0.772552,1.088431,-6.649420
1790538523.0743,-0.006242,-0.069421,-0.123806,-0.003316,-0.066974,-0.123806,0.517344,0.481189,0.275712,3.060246,1.125611,-11.345574
1790538523.0883,-0.018912,-0.078123,-0.117510,-0.014233,-0.074778,-0.117510,0.669111,0.765298,0.479688,1.910407,1.757671,-9.288581
1790538523.1018,-0.026107,-0.083965,-0.107790,-0.022545,-0.081209,-0.107790,0.535556,0.481189,0.570748,0.415615,2.724351,-9.288581
1790538523.1154,-0.033612,-0.088859,-0.097461,-0.030292,-0.086564,-0.097461,0.426283,0.482403,0.660595,0.607255,1.832031,-7.774944
1790538523.1292,-0.038734,-0.094290,-0.088364,-0.036201,-0.091972,-0.088364,0.399572,0.312423,0.622956,0.683911,1.274331,-9.405014
1790538523.1431,-0.039284,-0.103875,-0.077906,-0.038359,-0.100304,-0.077906,0.738317,-0.034822,0.626599,1.105519,2.092291,-10.297672
1790538523.1570,-0.026195,-0.101921,-0.069362,-0.029844,-0.101436,-0.069362,-0.134651,-0.902933,0.642383,-1.385800,1.832031,-13.713056
1790538523.1709,-0.022923,-0.094606,-0.060510,-0.024999,-0.096655,-0.060510,-0.583883,-0.429418,0.514898,3.520182,0.084571,-11.345574
1790538523.1849,-0.018344,-0.087382,-0.055201,-0.020341,-0.090164,-0.055201,-0.649447,-0.505909,0.375271,2.906934,-1.253909,-10.064805
1790538523.1989,-0.011148,-0.077224,-0.052356,-0.013906,-0.081106,-0.052356,-0.740508,-0.703814,0.121516,2.102047,0.456371,-6.222497
1790538523.2127,-0.002879,-0.067825,-0.049726,-0.006187,-0.071809,-0.049726,-0.677372,-0.809444,0.117873,2.791950,0.865351,-7.697322
1790538523.2266,-0.002852,-0.062871,-0.050523,-0.003852,-0.065553,-0.050523,-0.350768,-0.206016,-0.065462,3.405198,1.014071,-8.706413
1790538523.2405,-0.011160,-0.065003,-0.059290,-0.008968,-0.065168,-0.059290,0.184669,0.670595,-0.503768,-0.005993,1.869211,-13.907112
1790538523.2542,-0.016174,-0.066958,-0.073068,-0.014013,-0.066421,-0.073068,0.187097,0.453264,-0.916576,0.568927,1.794851,-13.635434
1790538523.2687,-0.004692,-0.070266,-0.085069,-0.007488,-0.069113,-0.085069,0.232020,-0.587256,-0.761166,-2.229015,0.716631,-10.181238
1790538523.2828,-0.003079,-0.078894,-0.087124,-0.004402,-0.075959,-0.087124,0.564695,-0.129525,-0.277937,0.645583,0.010211,-7.542077
1790538523.2967,0.008057,-0.088526,-0.096010,0.004320,-0.084756,-0.096010,0.733461,-0.668604,-0.555976,-1.424128,1.423051,-10.220049
1790538523.3107,0.021519,-0.094191,-0.107439,0.016359,-0.091361,-0.107439,0.473634,-0.868937,-0.740525,-0.734224,1.943571,-10.181238
1790538523.3243,0.025721,-0.099849,-0.119580,0.022912,-0.097303,-0.119580,0.497917,-0.339571,-0.882580,1.143847,1.757671,-8.007811
1790538523.3378,0.031094,-0.104359,-0.130377,0.028640,-0.102242,-0.130377,0.425069,-0.396636,-0.713814,0.338959,1.385871,-6.067252
1790538523.3517,0.047419,-0.114459,-0.142505,0.041785,-0.110794,-0.142505,0.705536,-1.010992,-0.685889,-2.267343,0.419191,-9.405014
1790538523.3656,0.050872,-0.127396,-0.147751,0.048146,-0.122416,-0.147751,1.084348,-0.294648,-0.318004,0.875551,4.100011,-12.393476
1790538523.3794,0.037340,-0.125484,-0.150659,0.040582,-0.124563,-0.150659,-0.123724,0.932850,-0.303434,1.258831,1.385871,-16.352217
1790538523.3933,0.035299,-0.113232,-0.165279,0.036884,-0.116631,-0.165279,-0.899560,0.371916,-0.480699,-4.260399,0.530731,-11.539630
1790538523.4073,0.036200,-0.102399,-0.171859,0.036405,-0.106669,-0.171859,-0.989407,0.090235,-0.405422,-1.769080,-2.146228,-6.998721
1790538523.4211,0.032043,-0.091841,-0.178966,0.033352,-0.096289,-0.178966,-1.000334,0.527326,-0.401780,-2.458983,-2.257768,-6.455364
1790538523.4353,0.019745,-0.079302,-0.186923,0.023827,-0.084398,-0.186923,-1.041615,0.944991,-0.407850,-0.504256,-1.179549,-6.882287
1790538523.4493,0.010926,-0.067425,-0.191275,0.014797,-0.072517,-0.191275,-0.966338,0.924351,-0.395709,-3.800463,-1.030829,-8.085434
1790538523.4632,0.011869,-0.056927,-0.193973,0.012747,-0.061604,-0.193973,-0.812142,0.186152,-0.328931,-3.417183,0.084571,-8.939280
1790538523.4772,0.023233,-0.063252,-0.191979,0.020087,-0.062758,-0.191979,0.371646,-0.658891,0.106946,-4.643678,-0.547489,-15.343126
1790538523.4911,0.019919,-0.062560,-0.180648,0.019969,-0.062619,-0.180648,0.031687,0.107233,0.590174,1.258831,2.612811,-11.035084
1790538523.5053,0.018129,-0.062929,-0.169234,0.018681,-0.062836,-0.169234,0.074182,0.123017,0.601102,-0.772552,1.348691,-7.386832
1790538523.5197,0.008393,-0.067054,-0.166698,0.011479,-0.065789,-0.166698,0.319438,0.473904,0.205291,2.715294,1.311511,-8.007811
1790538523.5339,-0.001031,-0.076117,-0.166028,0.002722,-0.073018,-0.166028,0.610832,0.509114,0.233217,2.332014,0.456371,-9.366203
1790538523.5478,-0.016558,-0.084853,-0.158559,-0.010774,-0.081303,-0.158559,0.762600,1.006912,0.348560,1.297159,2.278191,-6.998721
1790538523.5614,-0.022246,-0.091912,-0.151176,-0.018805,-0.088729,-0.151176,0.548911,0.460548,0.505184,-1.002520,1.571771,-10.103616
1790538523.5757,-0.030674,-0.095580,-0.140644,-0.027113,-0.093525,-0.140644,0.342507,0.512756,0.545251,1.105519,2.426911,-9.443825
1790538523.5911,-0.038112,-0.104924,-0.132301,-0.034812,-0.101505,-0.132301,0.616903,0.487260,0.545251,-0.197632,1.125611,-8.589979
1790538523.6056,-0.040138,-0.109907,-0.123309,-0.038540,-0.107386,-0.123309,0.428711,0.114518,0.420195,0.722239,3.282051,-13.208511
1790538523.6198,-0.029729,-0.108337,-0.114215,-0.032372,-0.108052,-0.114215,-0.118867,-0.787590,0.520968,1.258831,1.460231,-15.653616
1790538523.6347,-0.028410,-0.102129,-0.107923,-0.029599,-0.103906,-0.107923,-0.540174,-0.295862,0.451762,4.133430,-1.439808,-10.802217
1790538523.6489,-0.028198,-0.094767,-0.103402,-0.028618,-0.097509,-0.103402,-0.667659,-0.236369,0.381342,3.366870,-1.402628,-8.512357
1790538523.6627,-0.021461,-0.082953,-0.100152,-0.023608,-0.087320,-0.100152,-0.876492,-0.720812,0.188293,3.366870,0.530731,-8.046623
1790538523.6767,-0.013053,-0.071001,-0.097137,-0.016219,-0.075897,-0.097137,-0.897132,-0.873794,0.161582,3.826806,0.196111,-7.580888
1790538523.6906,-0.000895,-0.059347,-0.095775,-0.005492,-0.064312,-0.095775,-0.803643,-1.081412,0.110588,2.561982,1.274331,-7.231588
1790538523.7045,-0.005039,-0.060508,-0.094653,-0.005175,-0.061649,-0.094653,0.003761,0.269928,-0.141953,1.642111,-0.473129,-17.322497
1790538523.7184,-0.014981,-0.066786,-0.106879,-0.012039,-0.065245,-0.106879,0.493061,0.856359,-0.701673,-0.964192,1.720491,-12.393476
1790538523.7323,-0.004753,-0.068866,-0.123576,-0.006939,-0.067780,-0.123576,0.319438,-0.622466,-0.757523,-0.389272,2.873071,-7.852567
1790538523.7463,-0.004189,-0.073432,-0.125654,-0.005014,-0.071736,-0.125654,0.269659,-0.077317,-0.399351,1.105519,-0.101329,-7.697322
1790538523.7603,0.005165,-0.082384,-0.131901,0.002111,-0.079190,-0.131901,0.614475,-0.533834,-0.515909,-1.270816,0.307651,-9.094525
1790538523.7745,0.023849,-0.090649,-0.142184,0.017328,-0.087212,-0.142184,0.613261,-1.150618,-0.654321,-1.654096,1.125611,-8.318301
1790538523.7884,0.031264,-0.097286,-0.154643,0.027083,-0.094264,-0.154643,0.551339,-0.547190,-0.826729,0.875551,1.794851,-8.628791
1790538523.8021,0.038954,-0.102480,-0.167909,0.035393,-0.100015,-0.167909,0.468778,-0.556903,-0.820659,0.568927,2.241011,-9.172147
1790538523.8160,0.047540,-0.108178,-0.180589,0.043896,-0.105729,-0.180589,0.444495,-0.583614,-0.838871,-0.005993,1.460231,-9.249770
1790538523.8301,0.049801,-0.121256,-0.188492,0.048030,-0.116598,-0.188492,0.995715,-0.167163,-0.432133,0.185647,2.278191,-12.315854
1790538523.8441,0.034213,-0.120219,-0.193306,0.038358,-0.119132,-0.193306,-0.082443,1.094331,-0.388424,0.798895,0.828171,-14.877392
1790538523.8579,0.031663,-0.106818,-0.206354,0.033671,-0.110513,-0.206354,-0.985764,0.432623,-0.477056,-4.298727,0.456371,-10.569350
1790538523.8719,0.032525,-0.094378,-0.211670,0.032869,-0.099218,-0.211670,-1.076825,0.133944,-0.457630,-2.458983,-1.923148,-7.969000
1790538523.8858,0.026875,-0.083185,-0.214717,0.028673,-0.087995,-0.214717,-1.046471,0.603817,-0.354428,-1.807408,-1.997508,-5.640329
1790538523.8996,0.020193,-0.067552,-0.220091,0.022737,-0.073685,-0.220091,-1.279587,0.653597,-0.365355,-1.884064,-1.142369,-8.318301
1790538523.9135,0.010528,-0.054521,-0.224517,0.014191,-0.060270,-0.224517,-1.056185,0.942563,-0.325289,-3.148887,-0.882109,-8.667602
1790538523.9275,0.009790,-0.045989,-0.225350,0.011110,-0.050274,-0.225350,-0.610594,0.307566,-0.290079,-3.110559,0.976891,-8.124245
1790538523.9413,0.024166,-0.051179,-0.219490,0.020249,-0.050907,-0.219490,0.335222,-0.902933,0.256285,-5.026958,0.753811,-16.235784
1790538523.9552,0.019861,-0.048295,-0.208415,0.019977,-0.049078,-0.208415,-0.196572,0.239575,0.788080,-0.389272,1.199971,-9.327392
1790538523.9692,0.023139,-0.045866,-0.191852,0.022191,-0.046830,-0.191852,-0.053303,-0.153808,0.626599,-1.922392,2.166651,-6.571797
1790538523.9830,0.022928,-0.048395,-0.190900,0.022707,-0.047926,-0.190900,0.145816,0.119374,0.233217,-1.845736,0.456371,-8.007811
1790538523.9971,0.015311,-0.057000,-0.192038,0.017530,-0.054278,-0.192038,0.563481,0.379201,0.316992,2.638638,0.344831,-12.082986
1790538524.0112,0.002134,-0.063691,-0.185346,0.006752,-0.060867,-0.185346,0.519772,0.811435,0.433550,1.450471,1.869211,-9.909560
1790538524.0255,-0.002854,-0.069239,-0.174679,0.000028,-0.066728,-0.174679,0.445709,0.341562,0.539180,-0.580912,2.092291,-10.142427
1790538524.0393,-0.011559,-0.073022,-0.163187,-0.008083,-0.071134,-0.163187,0.329151,0.513971,0.644811,1.105519,1.980751,-9.405014
1790538524.0534,-0.018862,-0.078639,-0.152302,-0.015629,-0.076387,-0.152302,0.411713,0.409554,0.705518,1.067191,1.348691,-9.443825
1790538524.0673,-0.019046,-0.086723,-0.140341,-0.018021,-0.083622,-0.140341,0.605976,-0.043321,0.700661,0.377287,2.203831,-13.363756
1790538524.0812,-0.012635,-0.087838,-0.128140,-0.014251,-0.086574,-0.128140,0.114248,-0.570258,0.648453,1.872079,2.724351,-15.925294
1790538524.0952,-0.011726,-0.077981,-0.120415,-0.012484,-0.080559,-0.120415,-0.696799,-0.309218,0.493043,3.635166,1.199971,-9.405014
1790538524.1092,-0.009905,-0.069773,-0.119731,-0.010679,-0.073009,-0.119731,-0.722296,-0.395422,0.394698,3.366870,-0.993649,-7.736133
1790538524.1230,-0.001185,-0.057784,-0.117413,-0.004033,-0.062352,-0.117413,-0.916558,-0.822800,0.171295,2.217030,0.233291,-7.192776
1790538524.1370,0.009076,-0.044860,-0.115451,0.005143,-0.050108,-0.115451,-0.897132,-0.961212,0.133657,2.523654,1.199971,-6.765853
1790538524.1509,0.003459,-0.044291,-0.117014,0.003964,-0.046036,-0.117014,-0.114010,0.220148,-0.083674,4.516709,-0.064149,-12.742777
1790538524.1648,-0.004511,-0.049359,-0.129051,-0.001968,-0.048362,-0.129051,0.455422,0.750728,-0.596042,-1.769080,2.984611,-11.578441
1790538524.1786,0.003935,-0.051669,-0.142346,0.002164,-0.050677,-0.142346,0.217450,-0.390565,-0.894721,-1.692424,1.608951,-8.939280
1790538524.1925,0.003824,-0.053539,-0.148643,0.003326,-0.052681,-0.148643,0.149458,-0.057890,-0.498911,1.872079,1.125611,-8.512357
1790538524.2064,0.010342,-0.060610,-0.152893,0.008237,-0.058231,-0.152893,0.460279,-0.382066,-0.381139,-0.580912,0.196111,-8.046623
1790538524.2202,0.021326,-0.070764,-0.161817,0.017399,-0.067004,-0.161817,0.751673,-0.690458,-0.687103,-0.734224,1.311511,-10.452916
1790538524.2342,0.029969,-0.076841,-0.174922,0.026198,-0.073890,-0.174922,0.545269,-0.571472,-0.881366,0.338959,2.352551,-7.813756
1790538524.2480,0.038462,-0.079099,-0.188978,0.034783,-0.077536,-0.188978,0.246590,-0.541119,-0.973641,-0.082648,2.203831,-8.512357
1790538524.2615,0.039124,-0.084037,-0.197199,0.037822,-0.082086,-0.197199,0.355863,-0.118597,-0.800018,1.833751,0.939711,-9.016902
1790538524.2761,0.048237,-0.090829,-0.209355,0.045112,-0.088206,-0.209355,0.449352,-0.502266,-0.769665,-1.462456,0.828171,-10.064805
1790538524.2901,0.051779,-0.098440,-0.216035,0.049779,-0.095370,-0.216035,0.547697,-0.280078,-0.570545,0.837223,1.199971,-10.957462
1790538524.3040,0.039658,-0.094643,-0.224744,0.042695,-0.094861,-0.224744,-0.230568,0.892783,-0.486770,-0.044320,2.241011,-13.014455
1790538524.3179,0.033131,-0.086847,-0.233621,0.036000,-0.089251,-0.233621,-0.619093,0.620815,-0.428491,-3.148887,-0.026969,-14.683336
1790538524.3319,0.029559,-0.076507,-0.242133,0.031491,-0.080331,-0.242133,-0.826712,0.454478,-0.361713,-3.340527,-0.547489,-11.073895
1790538524.3458,0.023250,-0.068707,-0.248046,0.025722,-0.072194,-0.248046,-0.793930,0.685165,-0.199018,-2.420655,-1.997508,-6.222497
1790538524.3596,0.013941,-0.058412,-0.251032,0.017475,-0.062547,-0.251032,-0.775718,0.796866,-0.103101,-1.385800,0.456371,-7.697322
1790538524.3735,0.010869,-0.049649,-0.254090,0.012851,-0.053519,-0.254090,-0.761148,0.493330,-0.100672,-3.570495,-0.956469,-7.580888
1790538524.3874,0.017388,-0.054673,-0.253589,0.016027,-0.054326,-0.253589,0.210166,-0.479198,0.302423,-0.695896,-1.811608,-13.130889
1790538524.4012,0.013485,-0.059151,-0.248064,0.014247,-0.057703,-0.248064,0.230806,0.166726,0.686092,0.760567,-0.510309,-11.578441
1790538524.4151,0.011870,-0.063287,-0.238645,0.012583,-0.061612,-0.238645,0.258731,-0.026323,0.839074,1.067191,0.530731,-12.005364
1790538524.4290,0.008355,-0.071361,-0.231745,0.009623,-0.068437,-0.231745,0.554982,0.257787,0.474831,-0.542584,0.382011,-7.037532
1790538524.4429,-0.001439,-0.076326,-0.227678,0.001880,-0.073959,-0.227678,0.389859,0.602603,0.371629,1.067191,1.237151,-8.046623
1790538524.4568,-0.011211,-0.085900,-0.223040,-0.007284,-0.082317,-0.223040,0.661826,0.622029,0.479688,0.913879,0.567911,-10.064805
1790538524.4707,-0.022956,-0.092329,-0.208921,-0.018254,-0.089326,-0.208921,0.619331,0.739801,0.703090,1.105519,3.058971,-7.930189
1790538524.4842,-0.033217,-0.096855,-0.195087,-0.028728,-0.094597,-0.195087,0.406857,0.696092,0.876712,0.453943,2.241011,-9.016902
1790538524.4978,-0.041625,-0.104758,-0.182046,-0.037756,-0.101710,-0.182046,0.597477,0.584391,0.888853,0.147319,1.385871,-8.551168
1790538524.5119,-0.034173,-0.114200,-0.171402,-0.035248,-0.110453,-0.171402,0.512487,-0.475555,0.852429,-1.807408,-1.848788,-13.868301
1790538524.5266,-0.027402,-0.111756,-0.160501,-0.029755,-0.111365,-0.160501,-0.188073,-0.526549,0.701876,1.335487,1.125611,-14.838581
1790538524.5406,-0.017239,-0.105963,-0.153152,-0.020994,-0.107584,-0.153152,-0.538960,-0.851939,0.671522,1.833751,-1.105189,-10.569350
1790538524.5545,-0.018157,-0.096793,-0.144521,-0.019008,-0.100030,-0.144521,-0.775718,-0.309218,0.649667,4.785005,-0.844929,-6.804665
1790538524.5684,-0.006841,-0.084285,-0.138602,-0.010491,-0.089009,-0.138602,-0.976051,-0.978210,0.457833,1.795423,-0.175689,-7.658511
1790538524.5825,0.002164,-0.071998,-0.133338,-0.001632,-0.077101,-0.133338,-0.904417,-0.956355,0.421409,4.286742,0.382011,-8.007811
1790538524.5964,0.014504,-0.059891,-0.129813,0.009663,-0.065054,-0.129813,-0.867993,-1.094768,0.327920,2.485326,1.014071,-8.628791
1790538524.6103,0.009249,-0.053460,-0.130636,0.009374,-0.056938,-0.130636,-0.395691,0.133944,0.238073,4.018446,2.352551,-9.987182
1790538524.6244,0.000208,-0.055120,-0.138506,0.002957,-0.055666,-0.138506,0.200452,0.773797,-0.383568,-1.424128,2.761531,-11.151518
1790538524.6382,-0.000154,-0.054142,-0.149826,0.000780,-0.054599,-0.149826,-0.009594,0.178867,-0.750238,-1.117504,2.278191,-11.500819
1790538524.6521,0.006531,-0.053905,-0.157630,0.004805,-0.054113,-0.157630,0.079038,-0.584828,-0.479485,1.718767,1.683311,-6.067252
1790538524.6661,0.010987,-0.063557,-0.156367,0.009133,-0.060724,-0.156367,0.633901,-0.278864,-0.180806,-0.274288,0.084571,-8.395923
1790538524.6799,0.020424,-0.073744,-0.163919,0.017037,-0.069838,-0.163919,0.773527,-0.559331,-0.562046,-1.424128,1.720491,-11.267951
1790538524.6936,0.033630,-0.076487,-0.178436,0.028652,-0.074493,-0.178436,0.381360,-0.851939,-0.804875,-0.657568,3.393591,-7.852567
1790538524.7072,0.037387,-0.083303,-0.188456,0.034766,-0.080660,-0.188456,0.513701,-0.327430,-0.898364,2.025391,1.460231,-10.685784
1790538524.7208,0.044973,-0.090138,-0.198934,0.041911,-0.087295,-0.198934,0.502774,-0.420919,-0.732026,-1.309144,0.865351,-8.124245
1790538524.7347,0.060459,-0.098342,-0.206220,0.054895,-0.095028,-0.206220,0.530699,-0.961212,-0.698030,-1.730752,0.084571,-7.891378
1790538524.7487,0.066467,-0.107540,-0.215732,0.062996,-0.103786,-0.215732,0.760172,-0.465842,-0.608184,0.798895,2.984611,-10.414105
1790538524.7626,0.052932,-0.107290,-0.226538,0.055951,-0.106239,-0.226538,-0.007166,0.958347,-0.711386,0.722239,1.720491,-12.509909
1790538524.7771,0.043241,-0.094917,-0.238988,0.047054,-0.098314,-0.238988,-0.844924,0.764084,-0.656749,-1.462456,1.794851,-13.324944
1790538524.7910,0.040354,-0.081307,-0.242509,0.042364,-0.086409,-0.242509,-1.107179,0.375558,-0.562046,-1.999048,-0.956469,-8.473546
1790538524.8051,0.035891,-0.069583,-0.235197,0.037833,-0.074630,-0.235197,-1.068326,0.568607,-0.350786,-2.688951,-2.034688,-6.300119
1790538524.8191,0.028358,-0.056824,-0.235697,0.031201,-0.062166,-0.235697,-1.084110,0.748300,-0.313147,-1.769080,-1.030829,-5.523895
1790538524.8331,0.021221,-0.043899,-0.237774,0.024215,-0.049379,-0.237774,-1.001548,0.789581,-0.342287,-3.647151,-0.138509,-8.434735
1790538524.8470,0.030592,-0.047405,-0.236958,0.028679,-0.047997,-0.236958,0.123961,-0.487697,-0.105529,-5.678534,-1.811608,-17.477742
1790538524.8610,0.027247,-0.049315,-0.231125,0.027677,-0.048919,-0.231125,0.161600,0.133944,0.482116,0.798895,1.757671,-11.656063
1790538524.8748,0.028973,-0.049893,-0.220114,0.028584,-0.049601,-0.220114,0.017117,-0.139238,0.723730,-1.155832,0.530731,-8.628791
1790538524.8886,0.031394,-0.052177,-0.209950,0.030551,-0.051404,-0.209950,0.202881,-0.036036,0.384984,-1.807408,0.902531,-5.329839
1790538524.9024,0.019063,-0.057455,-0.210022,0.022509,-0.055640,-0.210022,0.354648,0.753157,0.332776,1.872079,0.642271,-10.646972
1790538524.9163,0.009862,-0.068702,-0.205077,0.013656,-0.064784,-0.205077,0.813594,0.581963,0.455405,0.683911,1.274331,-11.384385
1790538524.9302,-0.004855,-0.079533,-0.196143,0.000699,-0.075108,-0.196143,0.868231,0.993557,0.601102,0.377287,1.757671,-7.231588
1790538524.9436,-0.013223,-0.083258,-0.184254,-0.009047,-0.080813,-0.184254,0.372861,0.606245,0.704304,-0.389272,2.426911,-8.978091
1790538524.9573,-0.019401,-0.089347,-0.173419,-0.016295,-0.086787,-0.173419,0.456636,0.401055,0.763797,0.185647,1.237151,-9.366203
1790538524.9713,-0.024140,-0.095445,-0.163064,-0.021786,-0.092848,-0.163064,0.442067,0.259001,0.709160,0.913879,1.385871,-10.957462
1790538524.9852,-0.014786,-0.099428,-0.152360,-0.016886,-0.097454,-0.152360,0.275729,-0.763307,0.699447,1.412143,1.385871,-14.799770
1790538524.9995,-0.010044,-0.093647,-0.144668,-0.012097,-0.094789,-0.144668,-0.446685,-0.518050,0.599888,3.021918,0.344831,-11.073895
1790538525.0136,-0.007374,-0.086644,-0.139630,-0.008791,-0.089087,-0.139630,-0.619093,-0.402707,0.541609,3.290214,-1.216729,-10.103616
1790538525.0277,-0.001039,-0.077999,-0.136393,-0.003365,-0.081326,-0.136393,-0.664017,-0.647963,0.329134,2.408670,0.121751,-7.852567
1790538525.0417,0.005754,-0.067259,-0.134273,0.003018,-0.071479,-0.134273,-0.756292,-0.703814,0.278140,2.906934,1.051251,-8.434735
1790538525.0560,0.015082,-0.055559,-0.132746,0.011463,-0.060335,-0.132746,-0.848566,-0.910218,0.137299,4.248414,0.567911,-9.676693
1790538525.0702,0.010009,-0.050131,-0.134079,0.010445,-0.053192,-0.134079,-0.424831,0.189795,-0.046036,4.478381,0.642271,-14.295224
1790538525.0843,0.006080,-0.054266,-0.142991,0.007389,-0.053944,-0.142991,0.286657,0.295425,-0.577830,1.565455,1.608951,-16.391028
1790538525.0984,0.012837,-0.054709,-0.161719,0.011203,-0.054480,-0.161719,0.189525,-0.340785,-0.895935,-0.389272,2.055111,-5.329839
1790538525.1123,0.017056,-0.057521,-0.169695,0.015300,-0.056609,-0.169695,0.257517,-0.335929,-0.417563,0.837223,1.311511,-6.338930
1790538525.1264,0.021501,-0.069377,-0.166974,0.019641,-0.065546,-0.166974,0.760172,-0.371139,-0.203874,0.952207,-0.324409,-8.163056
1790538525.1404,0.034539,-0.076627,-0.180286,0.030069,-0.073303,-0.180286,0.630259,-0.865295,-0.594828,-0.427600,2.910251,-9.870749
1790538525.1543,0.044803,-0.084582,-0.193187,0.040383,-0.081198,-0.193187,0.593834,-0.680745,-0.825515,-0.044320,1.720491,-11.035084
1790538525.1679,0.049065,-0.091165,-0.205235,0.046460,-0.088175,-0.205235,0.530699,-0.329858,-0.721099,0.760567,1.683311,-8.939280
1790538525.1815,0.060719,-0.100484,-0.210508,0.056441,-0.096791,-0.210508,0.605976,-0.777877,-0.674962,-1.079176,-0.212869,-10.802217
1790538525.1955,0.070788,-0.111773,-0.217655,0.066484,-0.107279,-0.217655,0.803881,-0.756022,-0.535335,0.453943,0.753811,-8.395923
1790538525.2095,0.063705,-0.119788,-0.229881,0.064539,-0.116035,-0.229881,0.731033,0.436266,-0.331359,1.028863,3.467951,-9.676693
1790538525.2234,0.050176,-0.118191,-0.235337,0.054485,-0.117544,-0.235337,-0.162576,1.107686,-0.395709,-3.263871,0.010211,-13.907112
1790538525.2374,0.047288,-0.105594,-0.239366,0.049447,-0.109179,-0.239366,-0.944484,0.432623,-0.379925,-4.260399,0.158931,-10.802217
1790538525.2513,0.047021,-0.095741,-0.236515,0.047749,-0.099772,-0.236515,-0.861922,0.259001,-0.376283,-3.800463,-1.662888,-9.016902
1790538525.2653,0.034402,-0.084450,-0.236465,0.038406,-0.089047,-0.236465,-0.966338,0.943777,-0.310719,-0.274288,-1.142369,-7.076343
1790538525.2792,0.028008,-0.073276,-0.235519,0.031127,-0.078007,-0.235519,-0.931128,0.676666,-0.270652,-2.803935,-0.993649,-8.046623
1790538525.2931,0.016330,-0.059754,-0.236623,0.020769,-0.065230,-0.236623,-1.079253,1.004484,-0.219658,-2.152360,-0.659029,-9.133336
1790538525.3074,0.021993,-0.057156,-0.234779,0.021626,-0.059578,-0.234779,-0.314344,-0.213300,-0.149238,-4.988630,-2.071868,-16.352217
1790538525.3214,0.022171,-0.060539,-0.230070,0.022008,-0.060251,-0.230070,0.153101,-0.105242,0.445692,0.952207,-0.696209,-15.032637
1790538525.3355,0.013473,-0.062759,-0.225513,0.016033,-0.062007,-0.225513,0.147030,0.414411,0.687306,1.910407,0.679451,-8.318301
1790538525.3493,0.010872,-0.067382,-0.215783,0.012421,-0.065769,-0.215783,0.363147,0.261429,0.468760,-1.117504,0.865351,-5.601518
1790538525.3633,0.003098,-0.072299,-0.213488,0.005895,-0.070340,-0.213488,0.387430,0.421696,0.414124,1.373815,1.274331,-7.891378
1790538525.3772,-0.008759,-0.081033,-0.210796,-0.004363,-0.077826,-0.210796,0.683681,0.720375,0.461475,1.987063,2.129471,-10.957462
1790538525.3908,-0.020532,-0.088333,-0.205750,-0.015681,-0.085181,-0.205750,0.644828,0.792009,0.575605,0.645583,2.129471,-7.464455
1790538525.4044,-0.030549,-0.093885,-0.198158,-0.026089,-0.091274,-0.198158,0.465135,0.680308,0.684878,0.530599,2.203831,-10.336483
1790538525.4180,-0.038444,-0.101593,-0.188601,-0.034738,-0.098497,-0.188601,0.554982,0.534611,0.758940,0.377287,0.939711,-8.861658
1790538525.4320,-0.044842,-0.109193,-0.179239,-0.041810,-0.105984,-0.179239,0.531913,0.425338,0.714017,0.377287,0.976891,-9.366203
1790538525.4460,-0.034930,-0.113688,-0.168854,-0.036994,-0.111377,-0.168854,0.308511,-0.743881,0.721302,0.415615,1.199971,-11.888930
1790538525.4599,-0.023763,-0.108179,-0.159136,-0.027732,-0.109138,-0.159136,-0.453970,-0.898077,0.633884,1.718767,0.158931,-12.665154
1790538525.4738,-0.024772,-0.099114,-0.148345,-0.025660,-0.102121,-0.148345,-0.795144,-0.219371,0.602316,4.899989,-1.439808,-9.599070
1790538525.4878,-0.022245,-0.088175,-0.139776,-0.023270,-0.092359,-0.139776,-0.937199,-0.434274,0.398340,3.750150,-1.514168,-8.318301
1790538525.5018,-0.014966,-0.074178,-0.141478,-0.017457,-0.079633,-0.141478,-1.019760,-0.803374,0.171295,3.673494,0.493551,-6.998721
1790538525.5158,-0.003407,-0.061357,-0.140645,-0.007622,-0.066840,-0.140645,-0.928700,-1.063200,0.188293,2.983590,0.679451,-7.425644
1790538525.5301,0.004526,-0.049781,-0.146566,0.000881,-0.054899,-0.146566,-0.725938,-0.770592,0.119087,2.523654,1.720491,-6.532986
1790538525.5443,-0.011453,-0.057126,-0.153641,-0.007752,-0.056458,-0.153641,0.552554,1.185391,-0.235442,-0.197632,2.464091,-15.770049
1790538525.5583,-0.009405,-0.065019,-0.168970,-0.008909,-0.062450,-0.168970,0.663041,-0.004468,-0.758737,-1.232488,3.542311,-15.226693
1790538525.5723,-0.005010,-0.066007,-0.183600,-0.006180,-0.064940,-0.183600,0.166456,-0.288577,-0.649465,0.952207,2.575631,-10.802217
1790538525.5864,-0.001606,-0.071342,-0.181238,-0.002978,-0.069421,-0.181238,0.310939,-0.225442,-0.307077,0.377287,-0.175689,-9.637881
1790538525.6002,0.011752,-0.080367,-0.176784,0.007333,-0.077084,-0.176784,0.580479,-0.764521,-0.455202,-1.922392,-0.212869,-7.192776
1790538525.6141,0.021730,-0.087612,-0.189749,0.017411,-0.084453,-0.189749,0.593834,-0.626109,-0.699244,-0.619240,1.646131,-8.395923
1790538525.6276,0.030732,-0.094104,-0.205903,0.026736,-0.091209,-0.205903,0.571980,-0.622466,-0.809731,0.108991,2.203831,-9.366203
1790538525.6413,0.037200,-0.097316,-0.222521,0.034061,-0.095484,-0.222521,0.309725,-0.423347,-0.861940,-0.005993,1.980751,-9.016902
1790538525.6560,0.040428,-0.105150,-0.234425,0.038518,-0.102250,-0.234425,0.524628,-0.214515,-0.815802,0.568927,0.790991,-9.327392
1790538525.6712,0.047604,-0.110385,-0.246292,0.044878,-0.107945,-0.246292,0.427497,-0.477983,-0.453988,0.223975,2.129471,-9.405014
1790538525.6858,0.040622,-0.108781,-0.249519,0.041899,-0.108530,-0.249519,-0.146792,0.464191,-0.378711,0.607255,0.307651,-16.080539
1790538525.7000,0.037163,-0.095329,-0.251816,0.038584,-0.099289,-0.251816,-0.952983,0.490902,-0.347143,-5.525222,1.051251,-12.781588
1790538525.7150,0.033086,-0.082804,-0.246222,0.034735,-0.087749,-0.246222,-0.955411,0.500615,-0.339858,-3.532167,-1.142369,-8.667602
1790538525.7289,0.027688,-0.071979,-0.240202,0.029802,-0.076710,-0.240202,-0.932342,0.569821,-0.179592,-1.385800,-0.770569,-4.670049
1790538525.7426,0.019619,-0.055424,-0.242770,0.022674,-0.061810,-0.242770,-1.205524,0.753157,-0.175949,-1.654096,0.865351,-6.882287
1790538525.7566,0.013512,-0.043729,-0.238543,0.016260,-0.049153,-0.238543,-0.963910,0.670595,-0.056963,-3.148887,-0.844929,-7.930189
1790538525.7708,0.026543,-0.047933,-0.231474,0.023459,-0.048299,-0.231474,0.170099,-0.884721,0.228360,-1.769080,-1.365448,-14.023546
1790538525.7850,0.021324,-0.052120,-0.221987,0.021964,-0.050974,-0.221987,0.244162,0.192223,0.790508,1.642111,0.196111,-12.160609
1790538525.7989,0.017405,-0.056881,-0.211124,0.018773,-0.055109,-0.211124,0.349792,0.194651,0.807506,-0.082648,1.311511,-11.190329
1790538525.8129,0.011217,-0.062931,-0.206093,0.013484,-0.060585,-0.206093,0.434782,0.362203,0.454191,0.377287,0.753811,-6.727042
1790538525.8269,0.000008,-0.070743,-0.202889,0.004051,-0.067696,-0.202889,0.550125,0.640241,0.469974,1.872079,0.790991,-8.861658
1790538525.8409,-0.011715,-0.079615,-0.198482,-0.006985,-0.076039,-0.198482,0.677610,0.714304,0.569534,1.335487,1.534591,-8.667602
1790538525.8545,-0.025860,-0.087389,-0.193812,-0.020197,-0.083984,-0.193812,0.682467,0.946205,0.672736,0.913879,2.575631,-8.512357
1790538525.8681,-0.035966,-0.094531,-0.185841,-0.031236,-0.091367,-0.185841,0.592620,0.674237,0.812362,0.607255,2.278191,-9.366203
1790538525.8819,-0.042885,-0.102748,-0.177207,-0.039390,-0.099333,-0.177207,0.625402,0.461763,0.772296,0.300631,1.608951,-8.706413
1790538525.8959,-0.039708,-0.108635,-0.166054,-0.039613,-0.105844,-0.166054,0.370432,-0.196302,0.743156,-0.964192,0.567911,-12.742777
1790538525.9097,-0.033314,-0.108680,-0.155213,-0.035204,-0.107830,-0.155213,-0.016879,-0.548404,0.778366,1.757095,1.460231,-15.459560
1790538525.9236,-0.027499,-0.104317,-0.143371,-0.029811,-0.105370,-0.143371,-0.405404,-0.544761,0.686092,1.910407,-0.361589,-10.646972
1790538525.9376,-0.029365,-0.097933,-0.129042,-0.029499,-0.100164,-0.129042,-0.604524,-0.134381,0.619314,3.980118,-1.291089,-8.667602
1790538525.9520,-0.025470,-0.084341,-0.122286,-0.026679,-0.089088,-0.122286,-1.019760,-0.491339,0.342489,3.290214,-0.212869,-8.357112
1790538525.9663,-0.019816,-0.069735,-0.117853,-0.021875,-0.075541,-0.117853,-1.075611,-0.618824,0.251429,3.366870,0.158931,-8.512357
1790538525.9806,-0.007410,-0.055426,-0.118163,-0.011750,-0.061461,-0.118163,-0.983336,-1.106909,0.193150,3.405198,1.274331,-8.201867
1790538525.9948,-0.003398,-0.042795,-0.123864,-0.005903,-0.048394,-0.123864,-0.795144,-0.590899,0.144584,2.983590,1.571771,-4.980539
1790538526.0090,-0.016254,-0.052994,-0.126114,-0.013149,-0.051614,-0.126114,0.701893,0.997199,-0.251226,-1.002520,1.237151,-15.731238
1790538526.0236,-0.006042,-0.058988,-0.141292,-0.008174,-0.056776,-0.141292,0.484562,-0.531406,-0.865582,-1.845736,3.244871,-16.352217
1790538526.0379,0.004256,-0.059431,-0.145974,0.000527,-0.058634,-0.145974,0.031687,-0.605468,-0.477056,-1.002520,1.014071,-10.064805
1790538526.0519,0.006682,-0.065640,-0.141225,0.004836,-0.063539,-0.141225,0.361933,-0.150165,-0.168664,-0.005993,-0.250049,-9.366203
1790538526.0659,0.019145,-0.073765,-0.143395,0.014852,-0.070697,-0.143395,0.570766,-0.688030,-0.481913,-2.229015,0.642271,-8.085434
1790538526.0799,0.032793,-0.084147,-0.154124,0.027411,-0.080112,-0.154124,0.792954,-0.962426,-0.569331,0.300631,1.460231,-8.395923
1790538526.0936,0.040106,-0.090393,-0.171228,0.036298,-0.087308,-0.171228,0.591406,-0.588470,-0.616683,1.220503,2.649991,-8.240679
1790538526.1073,0.047299,-0.094911,-0.187731,0.043998,-0.092630,-0.187731,0.420212,-0.513194,-0.741739,0.338959,2.203831,-8.745224
1790538526.1212,0.054257,-0.102527,-0.198471,0.051179,-0.099558,-0.198471,0.539198,-0.514408,-0.784234,0.760567,1.014071,-10.103616
1790538526.1351,0.043018,-0.107322,-0.205774,0.045466,-0.104992,-0.205774,0.338865,0.766512,-0.524408,1.527127,1.237151,-14.955014
1790538526.1491,0.033871,-0.098789,-0.217092,0.037349,-0.100650,-0.217092,-0.576599,0.727660,-0.477056,-1.615768,2.724351,-18.952567
1790538526.1629,0.037117,-0.088719,-0.208650,0.037187,-0.092298,-0.208650,-0.883776,0.001603,-0.472200,-3.647151,-1.588528,-9.637881
1790538526.1768,0.032757,-0.081314,-0.193690,0.034086,-0.084610,-0.193690,-0.790288,0.472690,-0.354428,-1.539112,-2.183408,-6.338930
1790538526.1907,0.028918,-0.071894,-0.184996,0.030468,-0.075709,-0.184996,-0.863136,0.501829,-0.134668,-2.497311,-1.439808,-6.416553
1790538526.2046,0.025736,-0.062198,-0.180503,0.027156,-0.066251,-0.180503,-0.865564,0.458120,-0.168664,-3.148887,-1.551348,-8.240679
1790538526.2186,0.015918,-0.049441,-0.179068,0.019289,-0.054484,-0.179068,-0.999120,0.930421,-0.114028,-3.033903,-0.250049,-8.279490
1790538526.2325,0.024192,-0.048198,-0.174845,0.022721,-0.050084,-0.174845,-0.101869,-0.411206,0.041382,-3.800463,1.088431,-11.035084
1790538526.2464,0.022662,-0.054105,-0.173056,0.022680,-0.052898,-0.173056,0.371646,-0.112527,0.649667,3.328542,0.158931,-14.217602
1790538526.2603,0.013476,-0.059311,-0.171142,0.016237,-0.057387,-0.171142,0.417784,0.405912,0.841502,3.021918,1.943571,-10.918651
1790538526.2743,0.015712,-0.058559,-0.165856,0.015870,-0.058208,-0.165856,0.093608,0.103591,0.353417,-3.953775,2.649991,-6.338930
1790538526.2887,0.007031,-0.064970,-0.165381,0.009683,-0.062941,-0.165381,0.374075,0.450835,0.342489,2.217030,-0.212869,-10.491728
1790538526.3027,-0.002572,-0.075059,-0.162542,0.001105,-0.071423,-0.162542,0.718891,0.613530,0.355845,0.913879,1.125611,-11.267951
1790538526.3163,-0.020596,-0.084356,-0.160418,-0.014086,-0.080476,-0.160418,0.733461,1.226672,0.489401,1.182175,1.534591,-8.551168
1790538526.3299,-0.029732,-0.093881,-0.152646,-0.025038,-0.089860,-0.152646,0.739532,0.686379,0.614457,-0.504256,1.571771,-8.822846
1790538526.3439,-0.035422,-0.101525,-0.143759,-0.032307,-0.098025,-0.143759,0.587764,0.469047,0.612029,-1.194160,1.757671,-9.715504
1790538526.3578,-0.037493,-0.111485,-0.136204,-0.035937,-0.107447,-0.136204,0.769885,0.135158,0.597459,0.185647,2.575631,-12.936833
1790538526.3716,-0.027383,-0.112494,-0.125856,-0.029949,-0.110980,-0.125856,0.045042,-0.774234,0.711589,0.645583,1.014071,-14.877392
1790538526.3856,-0.021700,-0.104976,-0.119285,-0.024175,-0.106777,-0.119285,-0.565671,-0.513194,0.512469,1.948735,0.605091,-11.927742
1790538526.3995,-0.020175,-0.096348,-0.116077,-0.021375,-0.099477,-0.116077,-0.711368,-0.351713,0.414124,3.520182,-0.510309,-8.551168
1790538526.4134,-0.012349,-0.087192,-0.114348,-0.015056,-0.090877,-0.114348,-0.742936,-0.770592,0.190722,3.481854,-0.547489,-9.599070
1790538526.4272,-0.008545,-0.075265,-0.117810,-0.010498,-0.079949,-0.117810,-0.871635,-0.539905,0.100875,4.555037,0.753811,-9.405014
1790538526.4411,-0.001084,-0.062469,-0.120809,-0.003908,-0.067713,-0.120809,-0.899560,-0.717169,0.018314,2.868606,1.199971,-8.822846
1790538526.4551,-0.013733,-0.063568,-0.121144,-0.010786,-0.064811,-0.121144,-0.015665,0.745872,-0.231800,4.976645,-0.956469,-13.790679
1790538526.4691,-0.018931,-0.065161,-0.132915,-0.016487,-0.065056,-0.132915,0.176170,0.537039,-0.761166,-1.270816,1.980751,-12.044175
1790538526.4830,-0.007688,-0.065694,-0.145951,-0.010328,-0.065503,-0.145951,0.119105,-0.705028,-0.767236,-0.197632,1.646131,-8.085434
1790538526.4969,-0.009437,-0.068797,-0.154999,-0.009704,-0.067808,-0.154999,0.251446,0.052597,-0.446703,2.102047,1.199971,-9.327392
1790538526.5108,-0.004409,-0.075742,-0.158396,-0.005998,-0.073362,-0.158396,0.493061,-0.287363,-0.396923,-0.465928,0.753811,-10.841028
1790538526.5251,0.001853,-0.076646,-0.176859,-0.000502,-0.075661,-0.176859,0.208951,-0.390565,-0.691960,0.338959,2.835891,-8.706413
1790538526.5398,0.005092,-0.079485,-0.191457,0.003413,-0.078338,-0.191457,0.232020,-0.179305,-0.869224,0.645583,1.237151,-8.978091
1790538526.5536,0.009265,-0.081318,-0.208284,0.007510,-0.080424,-0.208284,0.246590,-0.255795,-0.758737,0.262303,1.906391,-7.231588
1790538526.5673,0.018063,-0.088213,-0.215554,0.014897,-0.085876,-0.215554,0.484562,-0.595755,-0.683461,0.108991,0.493551,-9.754315
1790538526.5813,0.024745,-0.094874,-0.225915,0.021791,-0.092174,-0.225915,0.510059,-0.479198,-0.616683,0.683911,1.311511,-9.521448
1790538526.5953,0.031973,-0.097924,-0.244640,0.028919,-0.096199,-0.244640,0.421426,-0.504695,-0.627610,0.415615,4.471811,-10.103616
1790538526.6094,0.023964,-0.094287,-0.258818,0.025450,-0.094861,-0.258818,-0.217212,0.648740,-0.688317,-0.887536,2.241011,-14.489280
1790538526.6234,0.017558,-0.084464,-0.266986,0.019926,-0.087583,-0.266986,-0.702869,0.624458,-0.479485,-3.033903,1.274331,-14.101168
1790538526.6373,0.012515,-0.073429,-0.261784,0.014738,-0.077675,-0.261784,-0.909273,0.606245,-0.392067,-2.957247,-0.844929,-8.124245
1790538526.6512,0.006882,-0.065966,-0.251811,0.009239,-0.069479,-0.251811,-0.700441,0.574678,-0.053321,-1.615768,-1.030829,-6.028441
1790538526.6651,-0.000185,-0.049707,-0.258276,0.002642,-0.055639,-0.258276,-0.972409,0.704591,-0.132240,-1.615768,2.389731,-4.941727
1790538526.6790,0.000723,-0.044836,-0.257625,0.001298,-0.048077,-0.257625,-0.412689,0.127873,-0.080032,-4.222071,0.196111,-14.062357
1790538526.6930,0.007789,-0.050652,-0.249803,0.005842,-0.049879,-0.249803,0.336436,-0.514408,0.401982,-0.849208,-0.101329,-12.509909
1790538526.7067,0.003293,-0.054256,-0.238644,0.004058,-0.052943,-0.238644,0.179812,0.254144,0.737086,-0.082648,-0.101329,-11.073895
1790538526.7205,0.002462,-0.058938,-0.226057,0.002941,-0.057139,-0.226057,0.307297,0.141229,0.806292,-2.420655,0.642271,-8.706413
1790538526.7344,-0.004420,-0.065343,-0.221552,-0.002212,-0.062882,-0.221552,0.476063,0.499401,0.383770,-0.350944,0.976891,-7.192776
1790538526.7482,-0.014575,-0.072627,-0.215831,-0.010866,-0.069704,-0.215831,0.529485,0.585605,0.383770,1.795423,0.865351,-7.930189
1790538526.7620,-0.024620,-0.079327,-0.209542,-0.020494,-0.076440,-0.209542,0.576836,0.645098,0.522182,0.875551,2.315371,-8.473546
1790538526.7755,-0.037534,-0.087154,-0.200965,-0.032422,-0.083940,-0.200965,0.675182,0.858787,0.711589,0.913879,2.166651,-7.464455
1790538526.7895,-0.044552,-0.095378,-0.192072,-0.040913,-0.091946,-0.192072,0.593834,0.503043,0.773510,-0.389272,1.534591,-10.181238
1790538526.8036,-0.051340,-0.105086,-0.183419,-0.048212,-0.101144,-0.183419,0.636329,0.503043,0.720088,-0.504256,0.493551,-9.405014
1790538526.8176,-0.043367,-0.111522,-0.173625,-0.044821,-0.108409,-0.173625,0.389859,-0.533834,0.734657,-0.925864,0.270471,-12.393476
1790538526.8315,-0.032048,-0.108790,-0.164617,-0.035880,-0.108676,-0.164617,-0.200214,-0.875008,0.561035,1.373815,1.646131,-15.381938
1790538526.8455,-0.028578,-0.103623,-0.146417,-0.030769,-0.105139,-0.146417,-0.517106,-0.515622,0.585318,4.785005,-1.588528,-10.336483
1790538526.8594,-0.031158,-0.095433,-0.131412,-0.031042,-0.098344,-0.131412,-0.724724,-0.095529,0.542823,4.325070,-1.179549,-8.706413
1790538526.8732,-0.022932,-0.083774,-0.122752,-0.025365,-0.088145,-0.122752,-0.935985,-0.776662,0.326706,3.136902,-0.473129,-10.452916
1790538526.8871,-0.014655,-0.070480,-0.117959,-0.017868,-0.075779,-0.117959,-0.989407,-0.875008,0.236859,3.750150,0.456371,-7.580888
1790538526.9010,-0.001219,-0.057866,-0.113882,-0.006214,-0.063240,-0.113882,-0.928700,-1.165188,0.157940,1.910407,0.530731,-6.028441
1790538526.9148,0.003061,-0.053604,-0.112153,0.000279,-0.056495,-0.112153,-0.314344,-0.430632,0.085091,2.676966,1.497411,-13.829490
1790538526.9287,-0.008544,-0.066183,-0.119339,-0.005897,-0.063276,-0.119339,0.908297,0.948633,-0.440632,-1.232488,1.460231,-15.071448
1790538526.9427,-0.001294,-0.068166,-0.136180,-0.002675,-0.066699,-0.136180,0.234448,-0.337143,-0.902006,-2.152360,3.319231,-14.799770
1790538526.9566,0.005174,-0.067891,-0.145195,0.002819,-0.067534,-0.145195,0.028044,-0.437917,-0.521980,0.377287,1.237151,-7.309210
1790538526.9705,0.011709,-0.076095,-0.145609,0.009042,-0.073526,-0.145609,0.546483,-0.400278,-0.251226,-0.657568,0.158931,-8.589979
1790538526.9845,0.023430,-0.087868,-0.152399,0.019113,-0.083566,-0.152399,0.828164,-0.672246,-0.565689,-1.769080,0.530731,-8.473546
1790538526.9985,0.038803,-0.097209,-0.164543,0.032896,-0.093116,-0.164543,0.750459,-0.998850,-0.616683,-1.040848,1.906391,-8.512357
1790538527.0121,0.047238,-0.104159,-0.178720,0.042936,-0.100846,-0.178720,0.618117,-0.649177,-0.764808,0.913879,2.538451,-9.210958
1790538527.0259,0.055039,-0.111563,-0.191882,0.051408,-0.108348,-0.191882,0.573194,-0.566616,-0.840085,0.415615,1.571771,-9.521448
1790538527.0405,0.061830,-0.118244,-0.208243,0.058704,-0.115275,-0.208243,0.579265,-0.462200,-0.729598,0.185647,3.282051,-10.142427
1790538527.0546,0.042927,-0.119229,-0.209571,0.047660,-0.118043,-0.209571,-0.056946,1.276452,-0.711386,2.025391,-1.551348,-14.411658
1790538527.0685,0.042288,-0.109211,-0.220375,0.043900,-0.111860,-0.220375,-0.763576,0.257787,-0.627610,-4.988630,0.158931,-14.838581
1790538527.0826,0.044402,-0.097038,-0.218231,0.044251,-0.101485,-0.218231,-1.092609,0.101162,-0.483127,-2.918919,-2.183408,-6.494175
1790538527.0966,0.046105,-0.084314,-0.218618,0.045549,-0.089465,-0.218618,-1.142389,0.200722,-0.409065,-3.263871,-1.960328,-5.213406
1790538527.1105,0.039894,-0.068399,-0.224713,0.041591,-0.074719,-0.224713,-1.268659,0.589247,-0.507410,-1.615768,-0.733389,-8.939280
1790538527.1246,0.032447,-0.059561,-0.229620,0.035190,-0.064108,-0.229620,-0.773290,0.793223,-0.412707,-3.723807,-1.253909,-9.094525
1790538527.1388,0.023502,-0.047549,-0.235000,0.027009,-0.052517,-0.235000,-0.827926,0.870928,-0.443060,-2.880591,1.385871,-8.434735
1790538527.1526,0.033525,-0.051949,-0.236292,0.031570,-0.052119,-0.236292,0.162814,-0.535048,-0.050893,-4.835318,-2.183408,-13.790679
1790538527.1665,0.030909,-0.053839,-0.229609,0.031108,-0.053323,-0.229609,0.156743,0.099948,0.523397,0.338959,1.497411,-11.073895
1790538527.1805,0.026767,-0.054276,-0.219926,0.028069,-0.053990,-0.219926,0.032901,0.191009,0.765011,0.185647,0.976891,-9.793126
1790538527.1944,0.027316,-0.058056,-0.212830,0.027542,-0.056836,-0.212830,0.268444,0.090235,0.314564,-2.343999,0.753811,-7.969000
1790538527.2082,0.017009,-0.064863,-0.215614,0.020169,-0.062455,-0.215614,0.476063,0.503043,0.350988,3.443526,0.716631,-9.676693
1790538527.2222,0.006867,-0.074411,-0.211253,0.010858,-0.070824,-0.211253,0.698251,0.637813,0.433550,0.952207,1.385871,-11.151518
1790538527.2357,-0.005717,-0.082683,-0.203414,-0.000745,-0.079126,-0.203414,0.658184,0.884284,0.593817,0.147319,1.608951,-9.288581
1790538527.2494,-0.014610,-0.087872,-0.192822,-0.010450,-0.085248,-0.192822,0.479705,0.590462,0.707946,0.377287,2.612811,-9.521448
1790538527.2632,-0.021998,-0.095165,-0.182631,-0.018534,-0.092190,-0.182631,0.554982,0.532183,0.689734,-0.389272,1.423051,-9.366203
1790538527.2772,-0.021149,-0.104819,-0.171112,-0.020364,-0.101030,-0.171112,0.756530,-0.063961,0.680021,-0.504256,3.058971,-13.790679
1790538527.2917,-0.019686,-0.108404,-0.160692,-0.019890,-0.106192,-0.160692,0.235663,-0.216943,0.714017,2.446998,1.274331,-15.343126
1790538527.3058,-0.012914,-0.099853,-0.151700,-0.015007,-0.101755,-0.151700,-0.628807,-0.600612,0.627813,1.910407,0.753811,-11.772497
1790538527.3198,-0.014981,-0.091759,-0.148000,-0.014989,-0.094758,-0.148000,-0.716225,-0.196302,0.619314,4.823333,-1.253909,-7.852567
1790538527.3338,-0.009183,-0.079023,-0.143765,-0.010925,-0.083743,-0.143765,-0.968766,-0.603040,0.354631,2.408670,0.010211,-8.085434
1790538527.3477,0.000186,-0.065871,-0.140908,-0.003147,-0.071232,-0.140908,-0.985764,-0.951499,0.310922,3.711822,0.344831,-8.163056
1790538527.3617,0.013762,-0.055411,-0.139190,0.008689,-0.060157,-0.139190,-0.727152,-1.204040,0.232003,2.523654,1.088431,-7.076343
1790538527.3756,0.016621,-0.049603,-0.142373,0.014242,-0.052770,-0.142373,-0.291275,-0.414848,0.194364,2.638638,2.687171,-7.813756
1790538527.3894,-0.000245,-0.060617,-0.147525,0.004101,-0.058263,-0.147525,0.760172,1.230314,-0.382353,1.258831,0.642271,-14.993826
1790538527.4034,0.008488,-0.067424,-0.160003,0.007172,-0.064676,-0.160003,0.522200,-0.433060,-0.923861,-1.922392,1.683311,-11.850119
1790538527.4173,0.013973,-0.069247,-0.166591,0.011932,-0.067875,-0.166591,0.094822,-0.440345,-0.644608,1.527127,0.307651,-8.163056
1790538527.4312,0.019298,-0.071961,-0.172779,0.017088,-0.070735,-0.172779,0.250232,-0.539905,-0.281580,2.140375,1.311511,-6.882287
1790538527.4452,0.029317,-0.084018,-0.177514,0.025648,-0.080033,-0.177514,0.846376,-0.559331,-0.501339,-1.999048,0.642271,-9.637881
1790538527.4591,0.046408,-0.097549,-0.186180,0.040180,-0.092294,-0.186180,0.984788,-1.074127,-0.665248,-1.884064,0.976891,-8.784035
1790538527.4727,0.057083,-0.102860,-0.204078,0.052012,-0.099690,-0.204078,0.528271,-0.742666,-0.842513,-0.159304,3.058971,-8.784035
1790538527.4865,0.060420,-0.108285,-0.215402,0.057898,-0.105707,-0.215402,0.406857,-0.303147,-0.813374,1.335487,1.348691,-9.637881
1790538527.5005,0.065089,-0.115600,-0.226798,0.062931,-0.112632,-0.226798,0.530699,-0.312860,-0.701673,-0.197632,1.088431,-9.249770
1790538527.5145,0.057783,-0.119404,-0.235529,0.059328,-0.117373,-0.235529,0.230806,0.507900,-0.688317,0.645583,0.679451,-17.438931
1790538527.5286,0.056552,-0.112383,-0.241197,0.057385,-0.113880,-0.241197,-0.553530,0.254144,-0.481913,-3.417183,-0.064149,-11.850119
1790538527.5431,0.056326,-0.102007,-0.237928,0.056643,-0.105569,-0.237928,-0.888633,0.266286,-0.449131,-4.375383,-2.146228,-9.210958
1790538527.5572,0.055551,-0.089625,-0.235564,0.055879,-0.094408,-0.235564,-1.070754,0.330635,-0.362927,-2.688951,-1.328269,-5.213406
1790538527.5711,0.049865,-0.075705,-0.238311,0.051669,-0.081316,-0.238311,-1.135104,0.639027,-0.399351,-3.033903,-0.956469,-8.007811
1790538527.5850,0.039858,-0.065964,-0.241759,0.043402,-0.070570,-0.241759,-0.864350,0.927993,-0.356856,-2.688951,-1.365448,-8.473546
1790538527.5991,0.028615,-0.051198,-0.245748,0.033051,-0.057010,-0.245748,-0.956625,1.063977,-0.416349,-2.957247,2.278191,-7.231588
1790538527.6129,0.041496,-0.054096,-0.246054,0.038962,-0.054970,-0.246054,0.055970,-0.796089,0.008600,-5.141942,-2.964188,-19.379490
1790538527.6267,0.036859,-0.056689,-0.243545,0.037490,-0.056173,-0.243545,0.137317,0.169154,0.535538,2.523654,0.121751,-16.429840
1790538527.6407,0.034634,-0.056806,-0.229245,0.035491,-0.056616,-0.229245,0.179812,0.069595,0.873070,-0.235960,2.947431,-7.658511
1790538527.6547,0.033268,-0.059674,-0.220080,0.033935,-0.058757,-0.220080,0.306083,0.260215,0.384984,-1.922392,1.385871,-4.864105
1790538527.6688,0.023720,-0.065873,-0.216802,0.026785,-0.063738,-0.216802,0.434782,0.533397,0.433550,1.833751,0.976891,-11.345574
1790538527.6827,0.011919,-0.076925,-0.211165,0.016379,-0.072969,-0.211165,0.842734,0.784724,0.440835,0.492271,1.794851,-10.646972
1790538527.6964,-0.005536,-0.085923,-0.203344,0.001038,-0.082037,-0.203344,0.789311,1.141682,0.609601,1.335487,2.352551,-7.503266
1790538527.7099,-0.019207,-0.093292,-0.193322,-0.013134,-0.089916,-0.193322,0.653327,1.004484,0.726158,-0.389272,2.203831,-7.580888
1790538527.7238,-0.030250,-0.103348,-0.184757,-0.025115,-0.099318,-0.184757,0.728604,0.778654,0.652096,-0.005993,1.014071,-9.016902
1790538527.7389,-0.021061,-0.113913,-0.175730,-0.022278,-0.109535,-0.175730,0.624188,-0.564188,0.716445,-1.654096,-0.398769,-12.936833
1790538527.7534,-0.011301,-0.111348,-0.167828,-0.014594,-0.110804,-0.167828,-0.222069,-0.765735,0.542823,1.757095,0.121751,-13.169700
1790538527.7679,-0.012456,-0.105595,-0.164776,-0.013098,-0.107158,-0.164776,-0.541388,-0.165949,0.514898,4.593365,-1.997508,-10.608161
1790538527.7824,-0.013059,-0.094512,-0.164754,-0.013071,-0.098305,-0.164754,-0.916558,-0.219371,0.257500,4.056774,-1.700068,-8.124245
1790538527.7984,-0.010313,-0.075051,-0.166529,-0.011141,-0.082027,-0.166529,-1.292942,-0.445202,0.094804,4.095102,-0.435949,-6.765853
1790538527.8123,-0.000819,-0.060778,-0.166541,-0.003915,-0.067153,-0.166541,-1.113249,-0.850725,-0.056963,3.060246,-0.510309,-9.715504
1790538527.8265,0.012385,-0.046585,-0.172340,0.007495,-0.052755,-0.172340,-0.925057,-1.229537,0.052309,3.175230,1.571771,-5.756762
1790538527.8405,0.005257,-0.053357,-0.167898,0.005928,-0.053177,-0.167898,0.363147,0.331849,0.004958,3.558510,-0.993649,-11.073895
1790538527.8545,0.004002,-0.062949,-0.171231,0.004580,-0.060017,-0.171231,0.744388,0.208007,-0.169879,-1.884064,2.426911,-12.005364
1790538527.8684,0.009375,-0.061319,-0.181123,0.007937,-0.060929,-0.181123,-0.054517,-0.301933,-0.563261,-0.542584,2.761531,-13.557812
1790538527.8824,0.013540,-0.066439,-0.184944,0.011859,-0.064786,-0.184944,0.284228,-0.291006,-0.593614,1.105519,-0.435949,-12.354665
1790538527.8963,0.021082,-0.076390,-0.188504,0.018315,-0.072909,-0.188504,0.622974,-0.575115,-0.570545,1.067191,-0.435949,-7.774944
1790538527.9101,0.034256,-0.081791,-0.206981,0.029474,-0.079127,-0.206981,0.562267,-0.849511,-0.739311,-0.427600,1.757671,-4.437182
1790538527.9236,0.044416,-0.088770,-0.220507,0.039933,-0.085877,-0.220507,0.545269,-0.722026,-0.834014,0.223975,1.199971,-7.736133
1790538527.9371,0.053201,-0.097945,-0.231056,0.049221,-0.094325,-0.231056,0.647257,-0.672246,-0.812160,0.952207,0.642271,-10.336483
1790538527.9510,0.061877,-0.104730,-0.244392,0.058080,-0.101608,-0.244392,0.505202,-0.605468,-0.770879,0.032335,1.274331,-9.055714
1790538527.9650,0.065484,-0.109551,-0.256712,0.063262,-0.107168,-0.256712,0.397143,-0.220585,-0.558404,-0.619240,2.017931,-10.724595
1790538527.9789,0.051039,-0.103388,-0.264433,0.054706,-0.104522,-0.264433,-0.415118,1.032409,-0.303434,0.070663,1.943571,-14.450469
