t,imu_roll,imu_pitch,imu_yaw,lpf_roll,lpf_pitch,lpf_yaw,gyro_x,gyro_y,gyro_z,acc_x,acc_y,acc_z
1790538964.8352,0.014713,-0.032848,0.004393,0.010299,-0.022994,0.004393,-0.016719,-0.001791,0.001065,0.070663,1.162791,-9.870749
1790538964.8501,0.009369,-0.033013,0.000716,0.009648,-0.030007,0.000716,-0.004578,-0.007862,-0.002577,0.185647,1.199971,-9.870749
1790538964.8638,0.006511,-0.033178,-0.001282,0.007452,-0.032227,-0.001282,0.007563,-0.004220,-0.003791,0.223975,1.237151,-10.181238
1790538964.8775,0.006887,-0.031434,-0.001202,0.007056,-0.031672,-0.001202,0.011206,-0.000577,0.001065,0.147319,1.311511,-10.142427
1790538964.8915,0.004015,-0.029905,-0.002891,0.004927,-0.030435,-0.002891,-0.025218,0.007922,0.005922,0.300631,1.311511,-10.103616
1790538964.9051,0.002537,-0.026962,-0.003830,0.003254,-0.028004,-0.003830,-0.084711,0.022491,0.008350,0.262303,1.385871,-10.103616
1790538964.9194,-0.000335,-0.021826,-0.005200,0.000742,-0.023680,-0.005200,-0.169701,0.027348,0.036276,0.377287,1.497411,-9.987182
1790538964.9338,0.001341,-0.017821,-0.003527,0.001161,-0.019578,-0.003527,-0.198841,0.084413,0.100625,-0.005993,1.460231,-10.025993
1790538964.9479,0.000083,-0.014146,-0.001557,0.000406,-0.015776,-0.001557,-0.135705,0.054059,0.177116,0.223975,1.460231,-9.366203
1790538964.9620,0.001668,-0.013518,0.002646,0.001289,-0.014195,0.002646,-0.072570,-0.047929,0.283961,0.070663,1.311511,-9.443825
1790538964.9759,0.003255,-0.013753,0.008486,0.002665,-0.013886,0.008486,-0.053144,-0.175414,0.394447,0.185647,1.237151,-9.327392
1790538964.9898,0.002605,-0.018777,0.016552,0.002623,-0.017310,0.016552,-0.082283,0.028562,0.534074,0.108991,0.679451,-9.831937
1790538965.0038,-0.001209,-0.024870,0.022753,-0.000060,-0.022602,0.022753,-0.037360,0.026134,0.581425,0.530599,0.530731,-10.258860
1790538965.0178,0.010899,-0.023020,0.049334,0.007612,-0.022895,0.049334,-0.151489,-0.081925,0.537716,-1.385800,1.237151,-9.560259
1790538965.0319,0.016712,-0.028613,0.052871,0.013982,-0.026897,0.052871,-0.085925,-0.115921,0.371379,-0.695896,0.344831,-11.035084
1790538965.0461,0.013751,-0.033319,0.041310,0.013820,-0.031393,0.041310,0.046416,-0.101351,0.347096,0.760567,0.753811,-12.160609
1790538965.0601,0.004720,-0.032811,0.031133,0.007450,-0.032385,0.031133,0.014848,0.202184,0.371379,1.028863,1.311511,-9.715504
1790538965.0741,0.004249,-0.032233,0.038114,0.005209,-0.032279,0.038114,0.088911,0.024920,0.338597,0.108991,1.534591,-9.870749
1790538965.0877,0.003108,-0.026747,0.046022,0.003738,-0.028407,0.046022,-0.115065,0.124479,0.229324,0.032335,1.869211,-9.288581
1790538965.1013,0.003745,-0.022145,0.051985,0.003743,-0.024024,0.051985,-0.076212,-0.073426,0.211112,0.185647,1.980751,-9.754315
1790538965.1154,0.003893,-0.018623,0.052854,0.003848,-0.020243,0.052854,-0.056786,-0.277402,0.158904,0.837223,1.832031,-9.482637
1790538965.1294,0.002381,-0.013664,0.053015,0.002821,-0.015638,0.053015,-0.136919,-0.219123,0.140692,1.067191,1.980751,-9.521448
1790538965.1432,0.003183,-0.005911,0.053581,0.003074,-0.008829,0.053581,-0.240121,-0.380604,0.186829,0.990535,2.241011,-8.900469
1790538965.1571,0.004438,-0.001846,0.059978,0.004029,-0.003941,0.059978,-0.213410,-0.465594,0.209898,1.373815,1.943571,-10.724595
1790538965.1712,-0.010136,-0.006314,0.069117,-0.005887,-0.005602,0.069117,0.212754,0.614993,0.009564,2.485326,1.608951,-14.023546
1790538965.1856,-0.004262,-0.004762,0.021696,-0.004749,-0.005014,0.021696,0.575782,0.296887,-0.308541,-1.730752,3.207691,-7.774944
1790538965.1996,0.011766,-0.005091,-0.006238,0.006812,-0.005068,-0.006238,0.529645,-0.363606,-0.592650,-2.152360,2.910251,-8.395923
1790538965.2138,0.022336,-0.006448,-0.024643,0.017679,-0.006034,-0.024643,0.278317,-0.414600,-0.826979,-0.849208,2.315371,-10.569350
1790538965.2277,0.022676,-0.002594,-0.014521,0.021177,-0.003626,-0.014521,-0.016719,-0.103779,-1.220362,0.837223,2.315371,-9.016902
1790538965.2416,0.023647,-0.000723,-0.008699,0.022906,-0.001594,-0.008699,-0.020362,-0.153559,-1.351489,0.875551,1.683311,-8.279490
1790538965.2558,0.004617,0.000002,0.036729,0.010104,-0.000477,0.036729,0.002707,0.774045,-1.412196,2.791950,1.534591,-8.046623
1790538965.2699,0.006336,-0.003207,0.016791,0.007466,-0.002388,0.016791,0.098624,0.154833,-1.486259,-0.044320,0.828171,-9.715504
1790538965.2839,-0.001239,-0.006815,0.014465,0.001373,-0.005487,0.014465,0.099838,0.538502,-1.534824,1.412143,0.790991,-11.423196
1790538965.2979,-0.002572,-0.005006,-0.012008,-0.001389,-0.005150,-0.012008,-0.054358,0.363665,-1.644097,0.185647,1.906391,-11.539630
1790538965.3114,-0.004779,0.001030,-0.023284,-0.003762,-0.000824,-0.023284,-0.408887,0.217968,-1.482616,0.952207,1.460231,-9.210958
1790538965.3250,-0.006046,0.003120,-0.035523,-0.005361,0.001937,-0.035523,-0.295972,0.306601,-1.291996,0.223975,0.716631,-9.443825
1790538965.3386,-0.002328,0.000788,-0.044669,-0.003238,0.001133,-0.044669,-0.005792,-0.078282,-0.972677,0.032335,0.605091,-10.181238
1790538965.3526,-0.001843,-0.001068,-0.046821,-0.002262,-0.000408,-0.046821,0.075555,-0.069783,-0.689781,0.952207,1.199971,-10.103616
1790538965.3666,-0.001677,-0.000661,-0.049370,-0.001852,-0.000585,-0.049370,-0.033717,-0.057642,-0.491876,0.875551,1.497411,-10.142427
1790538965.3805,-0.004453,0.009635,-0.096430,-0.003673,0.006569,-0.096430,-0.226766,0.109910,-0.450595,1.105519,3.616671,-8.124245
1790538965.3945,0.001196,0.003970,-0.103797,-0.000265,0.004749,-0.103797,0.200612,-0.159630,-0.298828,-1.347472,0.679451,-15.847672
1790538965.4085,0.002196,-0.008932,-0.092309,0.001458,-0.004828,-0.092309,0.916956,-0.305327,0.163760,1.718767,1.906391,-12.859210
1790538965.4225,-0.013354,-0.008590,-0.107777,-0.008911,-0.007461,-0.107777,0.392447,0.548215,0.536502,3.520182,3.988471,-9.637881
1790538965.4372,-0.014539,-0.016192,-0.077951,-0.012851,-0.013573,-0.077951,0.291673,-0.074640,0.933527,0.453943,0.307651,-10.258860
1790538965.4518,-0.013081,-0.022813,-0.066704,-0.013012,-0.020041,-0.066704,0.335382,-0.073426,1.224921,-0.619240,0.642271,-7.619700
1790538965.4662,-0.014158,-0.028665,-0.056371,-0.013814,-0.026078,-0.056371,0.175115,0.225253,1.354834,-1.500784,0.084571,-9.133336
1790538965.4804,-0.009775,-0.034569,-0.042510,-0.010986,-0.032021,-0.042510,0.147190,-0.168129,1.149644,-1.347472,-0.212869,-9.210958
1790538965.4946,-0.007387,-0.039798,-0.023525,-0.008467,-0.037465,-0.023525,0.029418,-0.128062,0.971165,-0.734224,-0.844929,-10.375294
1790538965.5087,-0.013175,-0.045440,-0.004166,-0.011763,-0.043047,-0.004166,0.201826,0.261677,1.082866,0.645583,0.047391,-11.966553
1790538965.5227,-0.017990,-0.053821,0.013021,-0.016122,-0.050589,0.013021,0.424014,0.347881,1.024587,-0.389272,0.158931,-12.354665
1790538965.5365,-0.025435,-0.056854,0.023619,-0.022641,-0.054975,0.023619,0.201826,0.595566,0.831539,-0.389272,1.014071,-9.288581
1790538965.5502,-0.026143,-0.057114,0.029738,-0.025092,-0.056472,0.029738,0.012420,0.277461,0.602066,-1.309144,1.051251,-9.366203
1790538965.5638,-0.023914,-0.058714,0.035259,-0.024268,-0.058041,0.035259,0.065842,-0.003006,0.438157,-0.849208,0.716631,-9.482637
1790538965.5777,-0.024544,-0.059069,0.039493,-0.024461,-0.058761,0.039493,0.054915,0.043132,0.270605,0.300631,1.199971,-9.637881
1790538965.5916,-0.019830,-0.056347,0.042247,-0.021219,-0.057071,0.042247,-0.102923,-0.341751,0.105482,0.415615,1.943571,-11.500819
1790538965.6055,-0.013945,-0.051451,0.045936,-0.016127,-0.053137,0.045936,-0.261976,-0.611291,0.224468,1.948735,2.203831,-12.432287
1790538965.6196,-0.008788,-0.043861,0.046424,-0.010990,-0.046644,0.046424,-0.594651,-0.709636,0.162546,3.136902,0.865351,-11.423196
1790538965.6337,-0.007186,-0.034551,0.040523,-0.008327,-0.038179,0.040523,-0.886045,-0.588222,-0.025646,3.558510,-0.584669,-8.589979
1790538965.6478,-0.001567,-0.024081,0.035816,-0.003595,-0.028310,0.035816,-0.872690,-0.727848,-0.279401,1.987063,0.158931,-6.494175
1790538965.6617,0.005899,-0.013802,0.019949,0.003050,-0.018154,0.019949,-0.643217,-0.759416,-0.297614,1.872079,1.757671,-8.512357
1790538965.6759,-0.006476,-0.019758,0.013510,-0.003618,-0.019277,0.013510,0.377877,0.727908,-0.494305,2.753622,1.237151,-13.402567
1790538965.6903,-0.000825,-0.023247,-0.013468,-0.001663,-0.022056,-0.013468,0.425228,-0.032145,-0.989675,-2.075704,3.096151,-12.082986
1790538965.7044,0.003193,-0.026763,-0.038529,0.001736,-0.025351,-0.038529,0.330525,-0.097709,-1.487473,0.262303,1.906391,-11.345574
1790538965.7184,-0.001940,-0.028149,-0.060359,-0.000837,-0.027310,-0.060359,0.220038,0.292031,-1.105018,1.795423,1.794851,-8.706413
1790538965.7323,0.001276,-0.029463,-0.070425,0.000642,-0.028817,-0.070425,0.176329,-0.418242,-0.786913,1.603783,1.125611,-6.183686
1790538965.7463,0.015111,-0.041879,-0.068011,0.010770,-0.037960,-0.068011,0.783400,-0.828622,-0.805125,-0.619240,0.307651,-11.966553
1790538965.7603,0.023843,-0.049848,-0.103377,0.019921,-0.046281,-0.103377,0.784614,-0.472879,-0.933824,-0.389272,2.538451,-9.133336
1790538965.7740,0.035016,-0.053178,-0.139558,0.030488,-0.051109,-0.139558,0.485935,-0.639216,-1.005458,-0.734224,2.984611,-9.831937
1790538965.7876,0.037466,-0.060353,-0.143420,0.035372,-0.057580,-0.143420,0.529645,-0.247048,-0.857333,0.913879,0.939711,-8.395923
1790538965.8016,0.043518,-0.067236,-0.166315,0.041074,-0.064339,-0.166315,0.648631,-0.369677,-0.593864,-0.235960,2.055111,-9.094525
1790538965.8155,0.028392,-0.069372,-0.170013,0.032197,-0.067862,-0.170013,0.193327,1.021730,-0.431169,1.067191,1.534591,-11.927742
1790538965.8295,0.018862,-0.062969,-0.173418,0.022862,-0.064437,-0.173418,-0.529087,1.088508,-0.331610,-4.605350,0.344831,-13.286133
1790538965.8434,0.018746,-0.059226,-0.145915,0.019981,-0.060789,-0.145915,-0.569154,0.395233,-0.251476,-3.838791,-2.034688,-10.879840
1790538965.8573,0.015051,-0.051526,-0.128230,0.016530,-0.054305,-0.128230,-0.896972,0.910029,-0.377747,-3.378855,-1.439808,-5.096972
1790538965.8713,0.003850,-0.040365,-0.129366,0.007654,-0.044547,-0.129366,-1.043884,0.817754,-0.177413,0.108991,-0.435949,-3.855014
1790538965.8852,-0.002452,-0.028101,-0.127955,0.000580,-0.033035,-0.127955,-1.023243,0.662344,-0.025646,-1.002520,-0.064149,-6.106063
1790538965.8990,-0.010211,-0.016126,-0.127597,-0.006974,-0.021199,-0.127597,-0.997746,0.704839,-0.003791,-1.079176,0.158931,-11.500819
1790538965.9130,0.005768,-0.019536,-0.124277,0.001946,-0.020035,-0.124277,-0.072570,-0.885687,0.164975,-4.988630,-3.187268,-18.331588
1790538965.9271,0.003392,-0.026779,-0.138107,0.002958,-0.024756,-0.138107,0.476222,-0.313826,0.789044,4.899989,1.274331,-12.160609
1790538965.9416,-0.001692,-0.035471,-0.132710,-0.000297,-0.032257,-0.132710,0.597637,0.080770,0.937169,1.680439,1.237151,-9.249770
1790538965.9557,0.000979,-0.044074,-0.115834,0.000596,-0.040529,-0.115834,0.675342,-0.115921,0.575355,-0.887536,1.460231,-7.658511
1790538965.9696,-0.011411,-0.052005,-0.113649,-0.007809,-0.048562,-0.113649,0.653487,0.741263,0.500078,1.067191,1.571771,-7.930189
1790538965.9836,-0.027282,-0.062127,-0.107758,-0.021440,-0.058058,-0.107758,0.805255,0.995019,0.695555,1.373815,2.241011,-10.996273
1790538965.9987,-0.042322,-0.068035,-0.095650,-0.036057,-0.065042,-0.095650,0.581853,0.934312,0.796328,0.530599,3.021791,-8.589979
1790538966.0128,-0.056600,-0.070462,-0.084877,-0.050437,-0.068836,-0.084877,0.385162,0.860249,0.774474,1.527127,3.170511,-8.473546
1790538966.0266,-0.060992,-0.076296,-0.076249,-0.057826,-0.074058,-0.076249,0.507790,0.261677,0.746549,0.837223,2.241011,-9.987182
1790538966.0406,-0.058145,-0.079725,-0.067873,-0.058049,-0.078025,-0.067873,0.441012,-0.285901,0.557142,1.373815,3.691031,-10.802217
1790538966.0546,-0.045294,-0.079572,-0.062476,-0.049121,-0.079108,-0.062476,-0.061643,-0.906327,0.447870,0.223975,0.865351,-13.984735
1790538966.0687,-0.038881,-0.081114,-0.035194,-0.041953,-0.080512,-0.035194,-0.121136,-0.753345,0.434514,4.095102,-1.700068,-11.617252
1790538966.0827,-0.029443,-0.077829,-0.014672,-0.033196,-0.078634,-0.014672,-0.457453,-0.968249,0.498864,2.868606,-1.142369,-8.551168
1790538966.0966,-0.025178,-0.071776,-0.005905,-0.027583,-0.073834,-0.005905,-0.628647,-0.770343,0.429658,3.290214,-0.733389,-5.756762
1790538966.1107,-0.024685,-0.064018,0.008112,-0.025555,-0.066963,0.008112,-0.799841,-0.391531,0.296102,3.098574,-1.253909,-7.076343
1790538966.1245,-0.021020,-0.051449,0.016602,-0.022381,-0.056103,0.016602,-1.097306,-0.525087,0.121265,2.332014,-0.696209,-7.270399
1790538966.1385,-0.011314,-0.033282,0.020024,-0.014634,-0.040128,0.020024,-1.431195,-0.885687,-0.089995,2.638638,-0.250049,-10.375294
1790538966.1523,-0.007757,-0.013594,0.003437,-0.009820,-0.021554,0.003437,-1.411769,-0.434026,-0.222337,2.791950,1.423051,-11.035084
1790538966.1664,-0.030798,-0.019734,0.010250,-0.024504,-0.020280,0.010250,0.226109,1.531670,-0.727420,5.973173,-2.406488,-18.176343
1790538966.1804,-0.013740,-0.024023,-0.061835,-0.016969,-0.022900,-0.061835,0.606136,-0.476521,-1.480188,-4.528694,2.352551,-5.601518
1790538966.1951,-0.012206,-0.011328,-0.134393,-0.013635,-0.014799,-0.134393,0.057343,-0.003006,-0.755345,0.070663,4.917971,0.258972
1790538966.2093,-0.017841,-0.022120,-0.122353,-0.016579,-0.019924,-0.122353,0.699624,0.341811,-0.444525,2.217030,0.753811,-12.703965
1790538966.2232,-0.000394,-0.030948,-0.141829,-0.005249,-0.027641,-0.141829,0.784614,-0.866261,-0.857333,-3.570495,3.021791,-11.151518
1790538966.2367,0.010373,-0.040217,-0.164875,0.005686,-0.036444,-0.164875,0.822253,-0.682925,-1.033384,0.223975,2.612811,-10.724595
1790538966.2504,0.015337,-0.044021,-0.177385,0.012442,-0.041748,-0.177385,0.580639,-0.387889,-1.044311,0.913879,2.464091,-5.096972
1790538966.2644,0.025075,-0.051353,-0.192780,0.021285,-0.048472,-0.192780,0.549071,-0.584580,-0.877973,-0.159304,0.902531,-6.998721
1790538966.2784,0.032162,-0.062894,-0.202216,0.028899,-0.058567,-0.202216,0.794328,-0.412171,-0.886472,-0.235960,0.567911,-9.405014
1790538966.2929,0.021334,-0.063583,-0.223794,0.023603,-0.062078,-0.223794,0.110766,0.863892,-0.771129,-0.849208,2.910251,-17.555364
1790538966.3081,0.010303,-0.043758,-0.233596,0.014293,-0.049254,-0.233596,-1.308567,1.058155,-0.584151,-5.640206,1.497411,-15.925294
1790538966.3227,0.011809,-0.027515,-0.117514,0.012554,-0.034036,-0.117514,-1.314637,0.544572,-0.466379,-6.866701,-1.328269,-5.485084
1790538966.3369,-0.004668,-0.007960,-0.142242,0.000499,-0.015783,-0.142242,-1.506472,1.416326,-0.449381,-0.734224,-0.138509,-3.777392
1790538966.3521,-0.021580,0.012857,-0.157569,-0.014956,0.004265,-0.157569,-1.110661,1.061797,-0.385032,0.990535,2.203831,-4.087881
1790538966.3659,-0.007164,0.009050,-0.174686,-0.009502,0.007614,-0.174686,0.171473,-0.795840,-0.446953,-3.800463,0.493551,-20.893126
1790538966.3798,-0.010143,0.000306,-0.155867,-0.009951,0.002499,-0.155867,0.893887,-0.298042,0.299744,7.851244,6.107730,-9.637881
1790538966.3938,-0.024044,0.000200,-0.140364,-0.019816,0.000890,-0.140364,0.131406,0.614993,0.840038,5.743205,5.364131,-14.489280
1790538966.4077,-0.019289,-0.007227,-0.122371,-0.019447,-0.004792,-0.122371,0.445869,-0.505660,1.082866,0.415615,1.237151,-12.005364
1790538966.4217,-0.021728,-0.009885,-0.113289,-0.021043,-0.008357,-0.113289,0.070699,0.136621,0.785401,-0.427600,0.344831,-9.133336
1790538966.4356,-0.035904,-0.019139,-0.103127,-0.031446,-0.015904,-0.103127,0.563641,0.957381,0.798757,0.070663,0.307651,-6.028441
1790538966.4498,-0.043364,-0.034502,-0.088288,-0.039789,-0.028923,-0.088288,0.995875,0.397661,0.968737,0.683911,0.865351,-9.560259
1790538966.4636,-0.055764,-0.045166,-0.082617,-0.050971,-0.040293,-0.082617,0.817396,0.772831,1.042799,0.837223,2.055111,-8.279490
1790538966.4774,-0.060611,-0.047061,-0.087887,-0.057719,-0.045030,-0.087887,0.230966,0.318742,1.047656,-0.005993,3.616671,-11.112707
1790538966.4915,-0.054846,-0.049163,-0.079144,-0.055708,-0.047923,-0.079144,0.096196,-0.469236,1.165428,-0.005993,1.832031,-11.539630
1790538966.5054,-0.048688,-0.045791,-0.057442,-0.050794,-0.046430,-0.057442,-0.289901,-0.650143,1.088937,2.102047,1.869211,-11.656063
1790538966.5194,-0.040733,-0.043623,-0.034015,-0.043752,-0.044465,-0.034015,-0.276546,-0.739990,1.037943,1.450471,0.605091,-11.267951
1790538966.5333,-0.033851,-0.040016,-0.000263,-0.036821,-0.041351,-0.000263,-0.455025,-0.749703,0.909244,2.140375,-0.473129,-9.094525
1790538966.5473,-0.029476,-0.031040,0.028472,-0.031679,-0.034133,0.028472,-0.786485,-0.623432,0.762332,2.791950,0.010211,-8.395923
1790538966.5613,-0.023937,-0.020563,0.052493,-0.026260,-0.024634,0.052493,-0.909114,-0.614933,0.578997,1.910407,-0.212869,-8.512357
1790538966.5754,-0.018849,-0.010074,0.070586,-0.021072,-0.014442,0.070586,-0.912756,-0.481378,0.247536,1.297159,-0.398769,-9.172147
1790538966.5892,-0.013780,-0.003243,0.082268,-0.015968,-0.006603,0.082268,-0.642003,-0.466808,-0.034145,1.373815,-0.250049,-8.357112
1790538966.6032,-0.021586,-0.009515,0.081133,-0.019901,-0.008641,0.081133,0.383948,0.514219,-0.427527,2.561982,0.530731,-13.324944
1790538966.6170,-0.016370,-0.023994,0.046094,-0.017429,-0.019388,0.046094,1.051726,0.013992,-0.909541,-3.800463,0.753811,-11.888930
1790538966.6310,-0.013234,-0.029306,0.019938,-0.014492,-0.026331,0.019938,0.529645,-0.115921,-0.874331,0.415615,2.798711,-10.258860
1790538966.6448,-0.008782,-0.033402,0.017735,-0.010495,-0.031281,0.017735,0.247964,-0.215480,-0.443311,-0.427600,0.493551,-11.267951
1790538966.6588,0.008115,-0.045756,0.001282,0.002532,-0.041413,0.001282,0.869604,-0.947608,-0.673998,-3.417183,0.902531,-14.023546
1790538966.6728,0.021729,-0.059332,-0.021646,0.015970,-0.053956,-0.021646,1.071152,-0.792198,-0.843977,-1.424128,2.389731,-10.879840
1790538966.6868,0.037969,-0.064063,-0.080528,0.031369,-0.061031,-0.080528,0.697196,-0.931824,-0.922897,-1.079176,3.021791,-4.631238
1790538966.7007,0.044580,-0.072799,-0.085690,0.040617,-0.069269,-0.085690,0.751833,-0.577295,-0.744418,1.067191,1.460231,-5.291028
1790538966.7145,0.042706,-0.084399,-0.097901,0.042079,-0.079860,-0.097901,0.861105,0.204613,-0.589008,-0.619240,1.423051,-12.277042
1790538966.7286,0.028784,-0.086507,-0.105718,0.032772,-0.084513,-0.105718,0.109551,1.066654,-0.436026,-1.117504,0.382011,-17.788231
1790538966.7425,0.019921,-0.078806,-0.115320,0.023776,-0.080518,-0.115320,-0.657786,0.845680,-0.372890,-3.570495,-1.068009,-14.295224
1790538966.7564,0.023796,-0.073891,-0.119563,0.023790,-0.075879,-0.119563,-0.554584,0.045560,-0.364391,-4.911974,-2.443668,-11.035084
1790538966.7704,0.007458,-0.058878,-0.121690,0.012357,-0.063978,-0.121690,-1.142229,1.139502,-0.433597,0.530599,-0.026969,-4.941727
1790538966.7845,0.006649,-0.049784,-0.105214,0.008362,-0.054042,-0.105214,-1.113090,0.477795,-0.319468,-1.960720,-2.220588,-2.341378
1790538966.7985,0.002538,-0.034406,-0.112155,0.004285,-0.040297,-0.112155,-1.212649,0.510576,-0.273331,-2.305671,-0.473129,-9.715504
1790538966.8125,-0.005913,-0.023198,-0.122324,-0.002853,-0.028328,-0.122324,-1.056025,0.701197,-0.157987,-1.079176,-3.373168,-14.062357
1790538966.8265,-0.011350,-0.003111,-0.123050,-0.008801,-0.010676,-0.123050,-1.471262,0.610136,-0.290329,-2.190688,0.902531,-10.452916
1790538966.8404,0.007865,-0.002986,-0.126824,0.002865,-0.005293,-0.126824,-0.269261,-1.246287,0.005922,-2.267343,-2.369308,-11.073895
1790538966.8543,0.007004,-0.006580,-0.132117,0.005762,-0.006194,-0.132117,0.230966,-0.298042,0.646989,4.133430,1.311511,-10.452916
1790538966.8683,0.000512,-0.010309,-0.122614,0.002087,-0.009074,-0.122614,0.369378,0.233752,0.802399,1.565455,2.575631,-8.046623
1790538966.8822,0.005928,-0.013728,-0.105837,0.004776,-0.012332,-0.105837,0.281960,-0.284687,0.401732,-1.999048,1.869211,-9.210958
1790538966.8962,-0.003366,-0.022843,-0.107146,-0.000923,-0.019689,-0.107146,0.651059,0.404946,0.472153,3.213558,1.460231,-10.103616
1790538966.9101,-0.016207,-0.033042,-0.104622,-0.011622,-0.029036,-0.104622,0.753047,0.755833,0.502506,2.140375,1.906391,-11.073895
1790538966.9236,-0.028669,-0.037389,-0.096312,-0.023555,-0.034883,-0.096312,0.535715,0.730336,0.548643,1.833751,3.356411,-6.998721
1790538966.9376,-0.037157,-0.039351,-0.087888,-0.033077,-0.038010,-0.087888,0.295315,0.555500,0.528003,0.415615,3.244871,-8.279490
1790538966.9524,-0.037830,-0.045364,-0.079326,-0.036404,-0.043158,-0.079326,0.430085,0.038275,0.554714,-0.235960,2.203831,-11.500819
1790538966.9666,-0.039136,-0.046906,-0.071226,-0.038316,-0.045782,-0.071226,0.224895,0.047988,0.457583,0.645583,3.802571,-11.617252
1790538966.9807,-0.024150,-0.045741,-0.061072,-0.028400,-0.045753,-0.061072,-0.164845,-1.106661,0.640918,-0.005993,0.679451,-13.557812
1790538966.9948,-0.017006,-0.036711,-0.050201,-0.020424,-0.039424,-0.050201,-0.635932,-0.697495,0.529217,2.446998,1.720491,-10.646972
1790538967.0087,-0.011473,-0.028841,-0.039825,-0.014158,-0.032016,-0.039825,-0.663857,-0.616147,0.428443,2.063719,0.084571,-7.697322
1790538967.0225,-0.002307,-0.021086,-0.034373,-0.005862,-0.024365,-0.034373,-0.598293,-0.763059,0.225682,0.683911,0.530731,-5.756762
1790538967.0366,0.001098,-0.013944,-0.031071,-0.000990,-0.017071,-0.031071,-0.520588,-0.400030,0.113981,1.987063,1.125611,-8.745224
1790538967.0505,-0.006180,-0.016065,-0.031384,-0.004623,-0.016367,-0.031384,0.090125,0.453512,-0.159201,2.676966,0.642271,-15.770049
1790538967.0643,-0.001476,-0.019154,-0.044575,-0.002420,-0.018318,-0.044575,0.320812,-0.092852,-0.757773,-2.343999,3.096151,-12.238231
1790538967.0783,0.005383,-0.028654,-0.059631,0.003042,-0.025553,-0.059631,0.644988,-0.141418,-1.202149,-2.688951,0.382011,-9.909560
1790538967.0922,0.004555,-0.034905,-0.076629,0.004101,-0.032099,-0.076629,0.573354,0.119623,-1.129301,0.722239,1.460231,-5.329839
1790538967.1060,0.010543,-0.039437,-0.084564,0.008610,-0.037236,-0.084564,0.360879,-0.469236,-0.678854,1.182175,1.014071,-6.727042
1790538967.1200,0.025325,-0.051526,-0.093181,0.020310,-0.047239,-0.093181,0.836823,-0.935467,-0.745632,-0.810880,0.790991,-12.587532
1790538967.1338,0.035853,-0.061650,-0.110430,0.031190,-0.057326,-0.110430,0.879318,-0.619790,-1.027313,-0.772552,2.984611,-9.172147
1790538967.1476,0.050067,-0.067259,-0.129964,0.044404,-0.064279,-0.129964,0.613420,-0.840764,-1.135372,-1.232488,3.207691,-7.076343
1790538967.1613,0.051335,-0.073942,-0.139472,0.049256,-0.071043,-0.139472,0.563641,-0.107422,-0.976319,0.875551,1.869211,-7.930189
1790538967.1750,0.050085,-0.082687,-0.149474,0.049836,-0.079194,-0.149474,0.614635,0.139049,-0.774771,-0.159304,0.939711,-14.489280
1790538967.1891,0.042129,-0.084962,-0.159964,0.044441,-0.083232,-0.159964,0.115622,0.630777,-0.666713,-0.772552,0.419191,-15.537182
1790538967.2038,0.033740,-0.080842,-0.174380,0.036951,-0.081559,-0.174380,-0.433170,0.803185,-0.598721,-3.532167,-1.811608,-11.306763
1790538967.2178,0.037308,-0.075539,-0.184632,0.037201,-0.077345,-0.184632,-0.593437,0.074699,-0.535585,-4.298727,-2.369308,-8.512357
1790538967.2318,0.030993,-0.059657,-0.193688,0.032856,-0.064963,-0.193688,-1.167726,0.733979,-0.553798,-1.807408,0.233291,-4.786483
1790538967.2457,0.026133,-0.045877,-0.206449,0.028150,-0.051603,-0.206449,-1.256358,0.576140,-0.355892,-2.190688,-2.220588,-7.270399
1790538967.2597,0.017174,-0.029417,-0.215519,0.020467,-0.036073,-0.215519,-1.269714,0.825039,-0.429955,-1.500784,-0.175689,-7.774944
1790538967.2738,0.008848,-0.018642,-0.227752,0.012334,-0.023871,-0.227752,-1.037813,0.775259,-0.315826,-2.114032,-3.112908,-10.530539
1790538967.2877,0.004795,0.000872,-0.211892,0.007056,-0.006551,-0.211892,-1.352276,0.534859,-0.160415,-2.229015,1.497411,-7.076343
1790538967.3016,0.021696,-0.001155,-0.222087,0.017304,-0.002774,-0.222087,-0.031289,-1.260857,0.189257,-0.082648,-1.402628,-14.993826
1790538967.3155,0.016337,-0.009994,-0.221066,0.016627,-0.007828,-0.221066,0.569711,-0.055214,0.829110,6.624748,0.530731,-12.432287
1790538967.3293,0.011505,-0.017232,-0.185027,0.013042,-0.014411,-0.185027,0.742119,0.238609,0.914100,-0.005993,3.579491,-7.231588
1790538967.3432,0.006798,-0.023226,-0.165394,0.008671,-0.020582,-0.165394,0.567283,0.302958,0.537716,-0.197632,1.980751,-5.601518
1790538967.3572,-0.006086,-0.037280,-0.160166,-0.001659,-0.032270,-0.160166,1.017730,0.723051,0.591138,2.638638,1.683311,-11.190329
1790538967.3711,-0.026626,-0.047498,-0.146753,-0.019136,-0.042930,-0.146753,0.852606,1.240276,0.708910,2.945262,3.096151,-9.172147
1790538967.3849,-0.039153,-0.053370,-0.127669,-0.033148,-0.050238,-0.127669,0.615849,0.848108,0.761118,0.300631,3.542311,-7.503266
1790538967.3986,-0.044293,-0.062428,-0.117219,-0.040949,-0.058771,-0.117219,0.647416,0.391591,0.812112,-0.619240,1.274331,-8.784035
1790538967.4126,-0.047569,-0.070007,-0.104182,-0.045583,-0.066636,-0.104182,0.547857,0.183972,0.755048,0.453943,1.646131,-9.676693
1790538967.4272,-0.035455,-0.074518,-0.094514,-0.038493,-0.072154,-0.094514,0.205469,-0.855333,0.861892,-0.197632,0.196111,-13.907112
1790538967.4422,-0.026461,-0.069211,-0.084238,-0.030071,-0.070094,-0.084238,-0.450168,-0.811624,0.775688,3.596838,0.010211,-12.471098
1790538967.4567,-0.015456,-0.060444,-0.076436,-0.019840,-0.063339,-0.076436,-0.746419,-1.016814,0.813326,3.098574,-0.733389,-9.055714
1790538967.4709,-0.013479,-0.049872,-0.071214,-0.015387,-0.053912,-0.071214,-0.899401,-0.520230,0.755048,3.750150,-0.807749,-6.494175
1790538967.4850,-0.008141,-0.037287,-0.064422,-0.010315,-0.042274,-0.064422,-0.996532,-0.601578,0.517076,2.715294,-0.175689,-9.443825
1790538967.4990,0.000668,-0.022247,-0.061397,-0.002627,-0.028255,-0.061397,-1.153156,-0.794626,0.190472,2.408670,0.233291,-10.414105
1790538967.5130,0.009098,-0.002637,-0.065566,0.005581,-0.010323,-0.065566,-1.370488,-0.781271,-0.109422,2.753622,1.757671,-8.706413
1790538967.5270,-0.001181,-0.001559,-0.068737,0.000847,-0.004188,-0.068737,-0.172130,0.679342,-0.336466,3.098574,-0.101329,-15.343126
1790538967.5409,-0.007885,-0.009942,-0.079754,-0.005266,-0.008216,-0.079754,0.625562,0.837181,-1.111089,-2.765607,1.385871,-10.996273
1790538967.5548,-0.001577,-0.025009,-0.101907,-0.002684,-0.019971,-0.101907,1.361332,-0.203339,-1.123230,-1.270816,4.917971,-8.434735
1790538967.5688,-0.008370,-0.027983,-0.110177,-0.006664,-0.025579,-0.110177,0.307457,0.279889,-0.489448,4.555037,2.426911,-8.939280
1790538967.5828,-0.000654,-0.041340,-0.116178,-0.002457,-0.036612,-0.116178,0.892673,-0.375747,-0.773557,-1.500784,-0.175689,-13.713056
1790538967.5966,0.010552,-0.049227,-0.135276,0.006650,-0.045442,-0.135276,0.740905,-0.678069,-1.026099,-0.312616,3.579491,-10.220049
1790538967.6102,0.016899,-0.055325,-0.156302,0.013824,-0.052360,-0.156302,0.583067,-0.334466,-1.284711,-0.005993,2.575631,-8.861658
1790538967.6238,0.020887,-0.056374,-0.171835,0.018768,-0.055170,-0.171835,0.250392,-0.308969,-1.114731,1.335487,2.501271,-6.649420
1790538967.6374,0.031970,-0.064638,-0.179702,0.028009,-0.061798,-0.179702,0.498077,-0.698709,-0.981176,-0.350944,-0.473129,-6.882287
1790538967.6514,0.039585,-0.076244,-0.188105,0.036113,-0.071910,-0.188105,0.818610,-0.571224,-0.886472,1.220503,0.716631,-8.978091
1790538967.6653,0.032731,-0.082175,-0.201080,0.033745,-0.079095,-0.201080,0.541786,0.489936,-0.547727,0.607255,2.761531,-10.181238
1790538967.6793,0.015784,-0.067866,-0.215735,0.021173,-0.071235,-0.215735,-1.012316,1.379902,-0.599935,-3.570495,2.092291,-20.349770
1790538967.6933,0.014989,-0.049514,-0.224141,0.016844,-0.056030,-0.224141,-1.377773,0.349096,-0.389888,-6.023486,-0.175689,-14.450469
1790538967.7075,0.012194,-0.037689,-0.222764,0.013589,-0.043192,-0.222764,-1.034170,0.604065,-0.427527,-5.141942,-2.183408,-7.425644
1790538967.7216,-0.008657,-0.011822,-0.196722,-0.001983,-0.021233,-0.196722,-1.301282,1.265773,-0.207767,1.412143,3.207691,-1.021797
1790538967.7354,-0.010078,0.000876,-0.275674,-0.007650,-0.005757,-0.275674,-1.074237,0.676914,-0.199268,-2.497311,-0.435949,-1.992077
1790538967.7493,0.009334,-0.005621,-0.279047,0.004239,-0.005662,-0.279047,0.485935,-1.285140,-0.336466,-1.960720,3.207691,-18.409210
1790538967.7633,0.006572,-0.013170,-0.260975,0.005872,-0.010917,-0.260975,0.583067,0.018849,0.759904,1.565455,2.835891,-12.587532
1790538967.7772,0.005764,-0.016573,-0.247978,0.005796,-0.014876,-0.247978,0.160545,0.027348,1.260131,-1.960720,0.382011,-9.249770
1790538967.7911,0.013455,-0.019188,-0.225026,0.011157,-0.017894,-0.225026,0.271032,-0.687782,1.126575,-0.197632,1.869211,-6.338930
1790538967.8051,0.005980,-0.025918,-0.206220,0.007533,-0.023511,-0.206220,0.471366,0.328455,0.960238,1.373815,1.199971,-9.405014
1790538967.8190,-0.016320,-0.035531,-0.165734,-0.009164,-0.031925,-0.165734,0.657130,1.212351,1.058583,3.788478,0.716631,-7.619700
1790538967.8329,-0.030434,-0.048314,-0.147107,-0.024053,-0.043397,-0.147107,0.976449,0.844466,1.068296,1.182175,2.166651,-8.085434
1790538967.8465,-0.043920,-0.053011,-0.134947,-0.037960,-0.050127,-0.134947,0.455582,0.920957,0.995448,0.223975,3.356411,-9.094525
1790538967.8601,-0.049357,-0.057933,-0.126913,-0.045938,-0.055591,-0.126913,0.397303,0.390376,1.045228,-0.657568,2.649991,-10.064805
1790538967.8740,-0.046660,-0.061458,-0.117636,-0.046443,-0.059698,-0.117636,0.194541,-0.219123,1.078009,-0.389272,1.014071,-8.163056
1790538967.8879,-0.042622,-0.061804,-0.109000,-0.043768,-0.061172,-0.109000,-0.005792,-0.313826,0.884961,-0.235960,1.385871,-9.715504
1790538967.9018,-0.037386,-0.062197,-0.089113,-0.039301,-0.061889,-0.089113,0.047630,-0.514159,0.827896,1.527127,2.129471,-10.142427
1790538967.9157,-0.031582,-0.061857,-0.075593,-0.033897,-0.061867,-0.075593,-0.013077,-0.514159,0.588710,1.373815,2.017931,-12.044175
1790538967.9296,-0.021621,-0.059204,-0.058567,-0.025304,-0.060003,-0.058567,-0.268047,-0.867475,0.413874,3.021918,0.121751,-14.334035
1790538967.9437,-0.015411,-0.048982,-0.037545,-0.018379,-0.052288,-0.037545,-0.805912,-0.674426,0.084841,4.861661,-0.175689,-12.238231
1790538967.9582,-0.005737,-0.033384,-0.025788,-0.009530,-0.039055,-0.025788,-1.173797,-0.834693,-0.127634,2.293686,-0.324409,-7.115154
1790538967.9723,0.003509,-0.016115,-0.020160,-0.000403,-0.022997,-0.020160,-1.251502,-0.759416,-0.253904,1.067191,0.419191,-4.670049
1790538967.9863,-0.003995,-0.012438,-0.022811,-0.002917,-0.015606,-0.022811,-0.264404,0.526360,-0.480949,1.527127,1.199971,-9.715504
1790538968.0002,-0.006230,-0.019796,-0.050570,-0.005236,-0.018539,-0.050570,0.559998,0.435300,-1.007887,-2.650623,2.017931,-15.110259
1790538968.0143,0.004498,-0.024285,-0.083873,0.001578,-0.022561,-0.083873,0.375449,-0.434026,-1.506899,-1.807408,1.571771,-9.521448
1790538968.0281,-0.004227,-0.023718,-0.088589,-0.002485,-0.023371,-0.088589,0.020919,0.451084,-1.073450,3.635166,1.237151,-5.834385
1790538968.0420,0.015118,-0.026075,-0.137267,0.009837,-0.025264,-0.137267,0.173901,-0.970677,-0.898614,-4.145415,0.790991,-7.813756
1790538968.0561,0.028751,-0.039754,-0.154875,0.023077,-0.035407,-0.154875,0.907243,-0.770343,-1.073450,-1.232488,0.158931,-10.646972
1790538968.0697,0.042699,-0.056301,-0.176194,0.036813,-0.050033,-0.176194,1.247203,-0.831051,-1.355131,-1.040848,1.460231,-9.094525
1790538968.0834,0.053111,-0.067159,-0.183574,0.048222,-0.062021,-0.183574,0.873247,-0.767915,-1.471689,1.450471,2.166651,-7.580888
1790538968.0971,0.058651,-0.072882,-0.182113,0.055522,-0.069624,-0.182113,0.471366,-0.536014,-1.234931,2.561982,1.869211,-7.542077
1790538968.1110,0.041573,-0.076725,-0.197007,0.045758,-0.074594,-0.197007,0.272246,1.263345,-1.262857,1.373815,2.315371,-17.050819
1790538968.1249,0.034187,-0.069675,-0.232003,0.037658,-0.071151,-0.232003,-0.578867,0.816540,-1.074664,-5.256926,-0.212869,-16.352217
1790538968.1389,0.036816,-0.062165,-0.260253,0.037069,-0.064860,-0.260253,-0.688140,0.095340,-0.993317,-4.413711,-1.885968,-13.247322
1790538968.1528,0.035397,-0.053906,-0.284057,0.035898,-0.057193,-0.284057,-0.865405,0.504506,-0.933824,-3.378855,-2.257768,-5.485084
1790538968.1667,0.023468,-0.035646,-0.303125,0.027197,-0.042110,-0.303125,-1.319494,1.129789,-0.899828,-1.309144,0.605091,-4.825294
1790538968.1806,0.024585,-0.020594,-0.298557,0.025368,-0.027049,-0.298557,-1.408126,0.414659,-0.825765,-1.385800,-1.030829,-1.409909
1790538968.1946,0.012424,-0.004070,-0.306174,0.016307,-0.010964,-0.306174,-1.122803,1.020516,-0.650929,-0.734224,2.426911,-10.142427
1790538968.2092,0.017873,-0.006516,-0.323242,0.017403,-0.007850,-0.323242,0.018491,-0.284687,-0.387460,-1.155832,-2.109048,-21.281238
1790538968.2232,0.017439,-0.011608,-0.310793,0.017428,-0.010481,-0.310793,0.366950,-0.220337,0.430872,5.168285,2.389731,-16.080539
1790538968.2373,0.013560,-0.014746,-0.296920,0.014720,-0.013467,-0.296920,0.244321,0.211898,0.920171,-0.772552,1.497411,-8.046623
1790538968.2512,0.028839,-0.024146,-0.281679,0.024603,-0.020942,-0.281679,0.663200,-0.767915,0.545001,-3.302199,0.382011,-3.738581
1790538968.2652,0.017035,-0.031984,-0.279503,0.019306,-0.028672,-0.279503,0.572140,0.861464,0.207470,-0.504256,1.274331,-8.939280
1790538968.2791,0.000684,-0.047159,-0.279472,0.006271,-0.041613,-0.279472,1.038370,1.071510,0.390805,1.488799,0.419191,-11.927742
1790538968.2931,-0.015367,-0.058784,-0.253009,-0.008875,-0.053632,-0.253009,0.960665,1.003518,0.807256,1.412143,3.244871,-9.521448
1790538968.3068,-0.032292,-0.062986,-0.228769,-0.025267,-0.060180,-0.228769,0.461653,1.164999,0.768403,0.607255,3.282051,-8.512357
1790538968.3202,-0.037897,-0.068085,-0.219373,-0.034108,-0.065714,-0.219373,0.375449,0.438942,0.837609,-0.810880,1.423051,-9.094525
1790538968.3342,-0.032445,-0.074039,-0.212318,-0.032944,-0.071541,-0.212318,0.394875,-0.369677,0.704054,-0.772552,1.088431,-10.608161
1790538968.3481,-0.026720,-0.075201,-0.199729,-0.028587,-0.074103,-0.199729,0.056129,-0.502018,0.693126,1.258831,1.162791,-12.432287
1790538968.3620,-0.018348,-0.074234,-0.195782,-0.021420,-0.074194,-0.195782,-0.193984,-0.737562,0.666415,2.255358,-0.844929,-12.936833
1790538968.3777,-0.011237,-0.068545,-0.187359,-0.014292,-0.070240,-0.187359,-0.476879,-0.690210,0.711339,3.596838,-0.770569,-9.637881
1790538968.3926,-0.004473,-0.061343,-0.180333,-0.007419,-0.064012,-0.180333,-0.578867,-0.599149,0.637276,1.450471,-0.287229,-8.279490
1790538968.4071,-0.001321,-0.050813,-0.177796,-0.003150,-0.054772,-0.177796,-0.860548,-0.438883,0.450298,2.446998,-0.807749,-7.386832
1790538968.4221,0.000761,-0.037531,-0.171695,-0.000413,-0.042703,-0.171695,-0.979534,-0.407315,0.418730,3.405198,-0.287229,-7.891378
1790538968.4364,0.007367,-0.022189,-0.169489,0.005033,-0.028343,-0.169489,-1.160441,-0.605220,0.168617,1.833751,-0.064149,-8.667602
1790538968.4507,0.008994,-0.007899,-0.171944,0.007806,-0.014033,-0.171944,-1.053597,-0.210624,-0.153131,2.025391,0.493551,-9.715504
1790538968.4649,0.001812,-0.014112,-0.179629,0.003610,-0.014088,-0.179629,0.394875,0.809255,-0.485806,-5.793518,0.716631,-15.614805
1790538968.4789,0.002824,-0.018149,-0.192183,0.003060,-0.016930,-0.192183,0.380305,0.270176,-1.107446,-3.302199,2.761531,-10.802217
1790538968.4929,0.010271,-0.011041,-0.185732,0.008107,-0.012808,-0.185732,-0.220695,-0.525087,-0.341323,0.492271,4.285911,-6.106063
1790538968.5068,0.015226,-0.021316,-0.196599,0.013091,-0.018764,-0.196599,0.685055,-0.177842,-0.327967,-2.688951,0.493551,-12.587532
1790538968.5207,0.035118,-0.036781,-0.210077,0.028509,-0.031376,-0.210077,1.118504,-1.126087,-0.767487,-3.838791,1.311511,-9.870749
1790538968.5342,0.048426,-0.045324,-0.207558,0.042451,-0.041140,-0.207558,0.795542,-0.941537,-0.795412,0.262303,3.207691,-8.085434
1790538968.5477,0.051576,-0.049683,-0.207069,0.048839,-0.047120,-0.207069,0.449511,-0.344180,-0.828194,1.833751,2.166651,-5.989630
1790538968.5616,0.058490,-0.058467,-0.220300,0.055595,-0.055063,-0.220300,0.573354,-0.415814,-0.905899,-0.197632,0.382011,-8.085434
1790538968.5757,0.062521,-0.070468,-0.227737,0.060443,-0.065846,-0.227737,0.859891,-0.231264,-0.657000,-0.312616,1.162791,-8.589979
1790538968.5897,0.040383,-0.066539,-0.238576,0.046401,-0.066331,-0.238576,-0.265618,1.695579,-0.525872,-2.497311,3.096151,-21.281238
1790538968.6036,0.040480,-0.050174,-0.268792,0.042257,-0.055021,-0.268792,-1.198080,0.329669,-0.535585,-6.636734,1.162791,-12.587532
1790538968.6176,0.039715,-0.037695,-0.311352,0.040477,-0.042893,-0.311352,-1.167726,0.496007,-0.472450,-3.455511,-1.700068,-3.932637
1790538968.6317,0.027256,-0.018441,-0.315918,0.031223,-0.025777,-0.315918,-1.352276,0.984092,-0.336466,-0.350944,0.679451,-4.049070
1790538968.6456,0.012386,0.000120,-0.313910,0.018037,-0.007649,-0.313910,-1.251502,1.089722,-0.378961,0.338959,1.237151,-4.553616
1790538968.6596,0.012679,0.005294,-0.330021,0.014287,0.001411,-0.330021,-0.457453,0.148762,-0.460309,-1.922392,0.270471,-13.247322
1790538968.6737,0.019838,-0.006474,-0.324603,0.018173,-0.004108,-0.324603,0.827109,-0.619790,0.191686,2.753622,2.984611,-21.281238
1790538968.6877,0.015556,-0.007112,-0.302033,0.016341,-0.006211,-0.302033,0.131406,0.105053,0.736836,1.948735,3.393591,-11.772497
1790538968.7018,0.019640,-0.013618,-0.285227,0.018650,-0.011396,-0.285227,0.431299,-0.499590,1.223706,0.415615,0.828171,-7.891378
1790538968.7163,0.028665,-0.026784,-0.287889,0.025661,-0.022168,-0.287889,0.734835,-0.576081,0.746549,-1.807408,-1.105189,-6.532986
1790538968.7303,0.011093,-0.032787,-0.248785,0.015463,-0.029601,-0.248785,0.553927,0.890603,0.724694,2.485326,1.497411,-4.475993
1790538968.7441,-0.001391,-0.042778,-0.237826,0.003666,-0.038825,-0.237826,0.736049,0.872391,0.816969,-0.772552,1.608951,-10.220049
1790538968.7581,-0.014783,-0.050288,-0.214133,-0.009248,-0.046849,-0.214133,0.636489,0.815326,0.965094,1.067191,3.058971,-9.831937
1790538968.7718,-0.025500,-0.051931,-0.186775,-0.020624,-0.050406,-0.186775,0.278317,0.644132,1.016088,0.913879,3.467951,-7.969000
1790538968.7854,-0.022726,-0.053855,-0.174769,-0.022096,-0.052821,-0.174769,0.167830,-0.199697,1.001518,-1.117504,2.017931,-8.939280
1790538968.7994,-0.018302,-0.053747,-0.154451,-0.019440,-0.053469,-0.154451,0.019705,-0.449810,0.909244,1.105519,2.203831,-10.530539
1790538968.8134,-0.011500,-0.051955,-0.146665,-0.013882,-0.052409,-0.146665,-0.225552,-0.590650,0.796328,0.990535,-0.026969,-14.295224
1790538968.8273,-0.004510,-0.046214,-0.138704,-0.007321,-0.048073,-0.138704,-0.560655,-0.766701,0.787829,3.788478,-1.142369,-11.500819
1790538968.8411,0.000886,-0.040155,-0.135314,-0.001576,-0.042530,-0.135314,-0.621362,-0.633145,0.668844,2.868606,-1.551348,-9.676693
1790538968.8552,0.005592,-0.033321,-0.134065,0.003442,-0.036084,-0.134065,-0.668714,-0.597935,0.423587,2.408670,-1.179549,-6.144874
1790538968.8692,0.008113,-0.023962,-0.131959,0.006712,-0.027599,-0.131959,-0.792556,-0.372105,0.211112,2.332014,-0.621849,-8.007811
1790538968.8830,0.014543,-0.012894,-0.131952,0.012193,-0.017305,-0.131952,-0.853263,-0.545727,-0.066927,1.258831,0.456371,-8.551168
1790538968.8970,0.019657,-0.001934,-0.136612,0.017418,-0.006545,-0.136612,-0.848407,-0.387889,-0.380175,1.603783,0.567911,-12.975644
1790538968.9109,0.014774,-0.008145,-0.148973,0.015567,-0.007665,-0.148973,0.390018,0.565213,-0.811196,-1.769080,0.567911,-13.596623
1790538968.9247,0.011411,-0.020589,-0.166356,0.012658,-0.016712,-0.166356,0.919384,0.482651,-1.225218,-1.155832,1.794851,-12.471098
1790538968.9386,0.016081,-0.018267,-0.178846,0.015054,-0.017800,-0.178846,0.034275,-0.069783,-0.967820,-1.730752,3.467951,-6.998721
1790538968.9525,0.013458,-0.022000,-0.185923,0.013937,-0.020740,-0.185923,0.217610,0.222825,-0.408100,0.492271,0.493551,-10.918651
1790538968.9671,0.026372,-0.034530,-0.197088,0.022641,-0.030393,-0.197088,0.796756,-0.684139,-0.666713,-3.148887,0.047391,-14.178791
1790538968.9814,0.038381,-0.039799,-0.203882,0.033659,-0.036977,-0.203882,0.513861,-0.662285,-0.860975,-1.309144,3.207691,-8.124245
1790538968.9951,0.046585,-0.042946,-0.209899,0.042707,-0.041155,-0.209899,0.336596,-0.562725,-0.836693,0.492271,2.426911,-7.658511
1790538969.0089,0.051515,-0.047949,-0.214970,0.048873,-0.045911,-0.214970,0.447083,-0.339323,-0.675212,0.377287,1.832031,-6.649420
1790538969.0225,0.059008,-0.059879,-0.221777,0.055967,-0.055688,-0.221777,0.819825,-0.567582,-0.609648,0.760567,0.307651,-9.055714
1790538969.0356,0.050995,-0.065678,-0.225568,0.052487,-0.062681,-0.225568,0.509004,0.587067,-0.436026,0.990535,2.798711,-12.936833
1790538969.0487,0.028061,-0.059867,-0.231979,0.035389,-0.060711,-0.231979,-0.399174,1.787854,-0.389888,0.108991,3.430771,-19.146623
1790538969.0622,0.025426,-0.046769,-0.258039,0.028415,-0.050952,-0.258039,-0.963750,0.543358,-0.431169,-4.643678,1.125611,-8.589979
1790538969.0761,0.020632,-0.034092,-0.280888,0.022967,-0.039150,-0.280888,-1.136158,0.555500,-0.518587,-1.002520,-1.068009,-3.932637
1790538969.0900,0.007738,-0.020391,-0.293022,0.012307,-0.026018,-0.293022,-1.137372,0.946454,-0.343751,0.377287,-0.621849,-5.329839
1790538969.1040,-0.002122,-0.010794,-0.299430,0.002207,-0.015361,-0.299430,-0.743990,0.669629,-0.234478,1.258831,0.344831,-8.395923
1790538969.1178,-0.000189,-0.004215,-0.303286,0.000530,-0.007559,-0.303286,-0.541229,0.054059,-0.301256,-3.723807,0.419191,-16.546273
1790538969.1318,0.012276,-0.011766,-0.302261,0.008752,-0.010504,-0.302261,0.376663,-0.838335,0.234181,-2.688951,-2.109048,-17.749420
1790538969.1459,0.009718,-0.013353,-0.290541,0.009428,-0.012498,-0.290541,0.107123,0.011564,0.877676,0.798895,1.311511,-8.822846
1790538969.1598,0.011337,-0.021570,-0.277099,0.010764,-0.018848,-0.277099,0.592780,-0.374533,0.905601,1.948735,1.274331,-8.395923
1790538969.1740,0.014033,-0.035953,-0.270669,0.013053,-0.030822,-0.270669,0.824681,-0.272545,0.704054,-0.044320,-1.179549,-6.416553
1790538969.1879,-0.004097,-0.041421,-0.264612,0.001048,-0.038241,-0.264612,0.393661,1.104292,0.661559,2.523654,1.348691,-10.336483
1790538969.2018,-0.018678,-0.051249,-0.254952,-0.012760,-0.047346,-0.254952,0.660772,0.991377,0.816969,0.108991,0.790991,-12.781588
1790538969.2160,-0.033847,-0.058857,-0.237384,-0.027521,-0.055404,-0.237384,0.607350,0.995019,0.894674,0.415615,2.649991,-9.366203
1790538969.2297,-0.044939,-0.060906,-0.219251,-0.039714,-0.059256,-0.219251,0.201826,0.759476,0.934741,0.070663,2.464091,-9.172147
1790538969.2434,-0.045370,-0.066340,-0.201442,-0.043673,-0.064215,-0.201442,0.436156,0.022491,0.857036,-0.465928,2.649991,-10.646972
1790538969.2576,-0.042949,-0.068892,-0.187252,-0.043167,-0.067489,-0.187252,0.184828,-0.213052,0.773260,0.223975,1.757671,-9.754315
1790538969.2720,-0.033170,-0.068114,-0.174753,-0.036169,-0.067927,-0.174753,-0.094424,-0.789770,0.761118,1.450471,1.162791,-11.384385
1790538969.2859,-0.026955,-0.066510,-0.165617,-0.029719,-0.066935,-0.165617,-0.238907,-0.656214,0.757476,3.098574,-0.547489,-10.685784
1790538969.2997,-0.021163,-0.062938,-0.158510,-0.023729,-0.064137,-0.158510,-0.394318,-0.636788,0.611779,2.332014,-0.659029,-7.348021
1790538969.3137,-0.015246,-0.057043,-0.153759,-0.017791,-0.059171,-0.153759,-0.535158,-0.587008,0.416302,1.833751,-0.473129,-7.580888
1790538969.3277,-0.009657,-0.048693,-0.151786,-0.012097,-0.051836,-0.151786,-0.680855,-0.560297,0.205041,2.715294,-0.212869,-10.336483
1790538969.3415,-0.002984,-0.033698,-0.152521,-0.005718,-0.039140,-0.152521,-1.141015,-0.665927,-0.009862,3.788478,0.196111,-11.190329
1790538969.3555,0.004954,-0.014439,-0.156156,0.001752,-0.021849,-0.156156,-1.404484,-0.748489,-0.210195,3.213558,0.828171,-8.745224
1790538969.3694,0.003297,-0.004518,-0.161548,0.002833,-0.009718,-0.161548,-0.773130,0.091697,-0.425098,1.872079,0.456371,-11.112707
1790538969.3834,-0.006648,-0.012495,-0.177977,-0.003804,-0.011661,-0.177977,0.590352,0.828682,-0.995745,1.258831,1.943571,-14.566903
1790538969.3973,0.001006,-0.024287,-0.183960,-0.000437,-0.020500,-0.183960,0.848964,-0.159630,-1.393984,-2.995575,0.716631,-9.327392
1790538969.4112,0.000194,-0.018724,-0.203884,0.000004,-0.019257,-0.203884,0.131406,-0.001791,-0.840335,1.450471,4.508991,-1.759210
1790538969.4251,0.002093,-0.026979,-0.209009,0.001466,-0.024662,-0.209009,0.563641,-0.141418,-0.590222,2.255358,0.902531,-14.489280
1790538969.4390,0.020523,-0.037481,-0.221666,0.014806,-0.033635,-0.221666,0.816182,-1.065380,-0.950822,-2.995575,2.389731,-11.578441
1790538969.4528,0.036600,-0.044582,-0.240262,0.030062,-0.041298,-0.240262,0.683841,-0.959750,-1.158440,-1.424128,3.505131,-8.434735
1790538969.4671,0.041917,-0.049106,-0.249076,0.038361,-0.046764,-0.249076,0.484721,-0.436454,-0.982390,1.527127,2.389731,-5.135783
1790538969.4814,0.044781,-0.060049,-0.257966,0.042855,-0.056064,-0.257966,0.708123,-0.137775,-0.813624,0.070663,0.270471,-9.366203
1790538969.4953,0.054431,-0.076043,-0.267152,0.050958,-0.070049,-0.267152,1.105148,-0.550584,-0.606006,-1.730752,0.270471,-9.327392
1790538969.5092,0.036239,-0.073773,-0.279253,0.040655,-0.072656,-0.279253,-0.145418,1.407827,-0.582937,-1.807408,2.649991,-19.534735
1790538969.5230,0.030009,-0.056539,-0.291770,0.033203,-0.061374,-0.291770,-1.278213,0.724266,-0.612076,-5.410238,0.679451,-14.023546
1790538969.5369,0.029760,-0.039790,-0.299517,0.030793,-0.046265,-0.299517,-1.361989,0.328455,-0.627860,-4.605350,-1.625708,-10.414105
1790538969.5507,0.018245,-0.024228,-0.307074,0.022010,-0.030839,-0.307074,-1.323136,0.968308,-0.463951,-0.734224,-1.291089,-6.455364
1790538969.5645,0.008566,-0.013330,-0.314919,0.012599,-0.018583,-0.314919,-0.905471,0.928241,-0.505232,-1.462456,-0.398769,-6.183686
1790538969.5784,0.003329,-0.001814,-0.317887,0.006110,-0.006845,-0.317887,-0.879974,0.721837,-0.536800,-1.884064,0.196111,-4.320748
1790538969.5923,0.011031,-0.004589,-0.326211,0.009555,-0.005266,-0.326211,0.039131,-0.540871,-0.198054,0.645583,-2.369308,-20.427392
1790538969.6062,0.012860,-0.013403,-0.319152,0.011868,-0.010962,-0.319152,0.642560,-0.397602,0.566856,4.325070,2.203831,-13.519000
1790538969.6200,0.000731,-0.022882,-0.306193,0.004072,-0.019306,-0.306193,0.644988,0.538502,1.175141,4.056774,1.125611,-12.121798
1790538969.6340,0.010265,-0.037540,-0.274668,0.008407,-0.032069,-0.274668,1.011659,-0.531157,1.073153,-3.532167,0.493551,-6.765853
1790538969.6479,0.000730,-0.043610,-0.262001,0.003033,-0.040148,-0.262001,0.536929,0.639276,0.603280,-0.082648,2.241011,-7.464455
1790538969.6618,-0.017749,-0.055007,-0.257608,-0.011514,-0.050549,-0.257608,0.771259,1.217207,0.625134,1.680439,0.530731,-12.665154
1790538969.6756,-0.026975,-0.070740,-0.245121,-0.022337,-0.064683,-0.245121,1.202279,0.612564,0.707696,0.415615,2.389731,-10.142427
1790538969.6892,-0.039739,-0.075365,-0.228427,-0.034518,-0.072160,-0.228427,0.576996,0.812898,0.701625,1.565455,4.620531,-7.813756
1790538969.7027,-0.044463,-0.079410,-0.215715,-0.041479,-0.077235,-0.215715,0.359665,0.334526,0.815755,-0.082648,2.612811,-10.142427
1790538969.7170,-0.035821,-0.085201,-0.206487,-0.037518,-0.082811,-0.206487,0.292887,-0.627075,0.816969,-0.044320,-0.324409,-12.393476
1790538969.7312,-0.031369,-0.083918,-0.197373,-0.033214,-0.083586,-0.197373,-0.176986,-0.414600,0.694341,1.910407,-0.101329,-13.635434
1790538969.7453,-0.024139,-0.081407,-0.191642,-0.026861,-0.082061,-0.191642,-0.373677,-0.638002,0.755048,1.603783,-1.923148,-10.142427
1790538969.7592,-0.017662,-0.076113,-0.185936,-0.020422,-0.077897,-0.185936,-0.544871,-0.680497,0.676128,2.638638,-1.291089,-8.085434
1790538969.7733,-0.014946,-0.068427,-0.182711,-0.016588,-0.071268,-0.182711,-0.695425,-0.403672,0.439371,2.676966,-1.142369,-7.852567
1790538969.7873,-0.011490,-0.057815,-0.177794,-0.013019,-0.061851,-0.177794,-0.869047,-0.375747,0.419944,1.642111,-0.584669,-8.978091
1790538969.8012,-0.007256,-0.043244,-0.177949,-0.008985,-0.048826,-0.177949,-1.100948,-0.431598,0.123694,2.255358,0.270471,-10.336483
1790538969.8152,0.001838,-0.023665,-0.181022,-0.001409,-0.031213,-0.181022,-1.443336,-0.798269,-0.077854,2.638638,0.567911,-9.521448
1790538969.8290,0.012014,-0.003228,-0.182590,0.007987,-0.011624,-0.182590,-1.541682,-0.888115,-0.091209,1.910407,0.270471,-6.921098
1790538969.8430,0.003957,0.002656,-0.185360,0.005166,-0.001628,-0.185360,-0.560655,0.452298,-0.318254,3.596838,-0.993649,-10.763406
1790538969.8569,-0.003709,-0.012095,-0.180620,-0.001046,-0.008955,-0.180620,0.984948,0.884532,-0.857333,-4.682006,-0.250049,-15.614805
1790538969.8708,0.001958,-0.022730,-0.215343,0.001056,-0.018598,-0.215343,1.090578,-0.306541,-1.159654,0.913879,5.550031,-7.425644
1790538969.8848,-0.001658,-0.024245,-0.232035,-0.000844,-0.022551,-0.232035,0.244321,0.081984,-0.522230,2.791950,2.055111,-5.601518
1790538969.8987,0.005444,-0.036476,-0.232895,0.003558,-0.032298,-0.232895,0.825895,-0.375747,-0.565939,-1.002520,0.233291,-11.151518
1790538969.9123,0.023078,-0.048421,-0.244358,0.017222,-0.043584,-0.244358,0.984948,-1.130944,-0.796626,-1.539112,2.835891,-10.452916
1790538969.9260,0.034424,-0.055130,-0.262152,0.029264,-0.051667,-0.262152,0.678984,-0.727848,-0.888901,-0.274288,2.687171,-6.183686
1790538969.9399,0.037593,-0.059864,-0.273125,0.035094,-0.057405,-0.273125,0.509004,-0.353893,-0.811196,2.255358,2.687171,-6.067252
1790538969.9540,0.049489,-0.070244,-0.282036,0.045171,-0.066392,-0.282036,0.714194,-0.806768,-0.789341,0.147319,0.567911,-8.163056
1790538969.9684,0.038416,-0.077013,-0.300299,0.040442,-0.073827,-0.300299,0.630418,0.828682,-0.592650,-0.312616,4.100011,-10.569350
1790538969.9826,0.017777,-0.063533,-0.309887,0.024577,-0.066621,-0.309887,-0.971035,1.530456,-0.598721,-0.580912,1.051251,-17.477742
1790538969.9965,0.016369,-0.042164,-0.302876,0.018831,-0.049501,-0.302876,-1.644884,0.432871,-0.480949,-5.218598,-0.919289,-10.103616
1790538970.0109,0.009701,-0.021157,-0.291978,0.012440,-0.029660,-0.291978,-1.638813,0.886961,-0.402030,-3.685479,-1.253909,-4.592427
1790538970.0251,-0.005156,-0.000345,-0.302182,0.000123,-0.009140,-0.302182,-1.340134,1.290056,-0.394745,-0.504256,0.605091,-1.681588
1790538970.0391,-0.004129,0.003881,-0.313648,-0.002853,-0.000025,-0.313648,-0.286259,0.232538,-0.619361,-2.918919,1.348691,-8.667602
1790538970.0530,0.015382,-0.016726,-0.312549,0.009911,-0.011716,-0.312549,1.383186,-1.400483,0.025348,-0.389272,-0.212869,-16.352217
1790538970.0669,0.000474,-0.017545,-0.297932,0.003305,-0.015796,-0.297932,0.158117,0.754619,0.795114,3.711822,2.984611,-8.745224
1790538970.0808,-0.002858,-0.026040,-0.286772,-0.001009,-0.022967,-0.286772,0.529645,0.186401,0.925028,-1.309144,0.419191,-15.459560
1790538970.0946,-0.001204,-0.033710,-0.264905,-0.001146,-0.030487,-0.264905,0.541786,-0.426741,1.437396,2.791950,1.869211,-11.772497
1790538970.1085,0.002353,-0.041481,-0.250980,0.001303,-0.038183,-0.250980,0.517503,-0.310184,1.022159,-0.619240,0.567911,-6.843476
1790538970.1224,-0.014762,-0.043608,-0.235645,-0.009942,-0.041980,-0.235645,0.232180,0.948882,1.059797,2.753622,2.352551,-7.813756
1790538970.1362,-0.019567,-0.053820,-0.221769,-0.016679,-0.050268,-0.221769,0.685055,0.249536,1.037943,0.262303,0.790991,-10.142427
1790538970.1497,-0.027143,-0.057826,-0.210022,-0.024004,-0.055559,-0.210022,0.410659,0.437728,1.002733,0.875551,3.319231,-9.016902
1790538970.1634,-0.027881,-0.056726,-0.200715,-0.026718,-0.056376,-0.200715,-0.034931,0.054059,0.955381,-1.040848,2.612811,-10.258860
1790538970.1775,-0.029529,-0.054543,-0.186670,-0.028686,-0.055093,-0.186670,-0.146633,0.020063,1.030658,0.530599,2.315371,-11.345574
1790538970.1915,-0.024672,-0.054356,-0.172009,-0.025876,-0.054577,-0.172009,-0.094424,-0.471664,0.891032,1.297159,0.530731,-12.665154
1790538970.2055,-0.017054,-0.051019,-0.158072,-0.019701,-0.052086,-0.158072,-0.316612,-0.667141,0.791472,1.258831,0.382011,-11.694875
1790538970.2202,-0.010943,-0.044259,-0.143417,-0.013570,-0.046607,-0.143417,-0.544871,-0.622218,0.537716,2.715294,-0.026969,-9.249770
1790538970.2342,-0.002658,-0.036381,-0.131616,-0.005932,-0.039449,-0.131616,-0.726992,-0.770343,0.320385,2.140375,-1.179549,-8.357112
1790538970.2480,0.003042,-0.027027,-0.124753,0.000350,-0.030754,-0.124753,-0.802269,-0.566368,0.124908,1.718767,-0.547489,-6.959909
1790538970.2621,0.006121,-0.019277,-0.123065,0.004390,-0.022720,-0.123065,-0.614077,-0.273759,-0.097280,1.565455,0.344831,-12.432287
1790538970.2761,0.000341,-0.027570,-0.127648,0.001556,-0.026115,-0.127648,0.551499,0.531217,-0.420242,-1.002520,0.567911,-13.751868
1790538970.2901,0.007950,-0.042839,-0.145924,0.006031,-0.037822,-0.145924,1.124574,-0.214266,-1.044311,-4.183743,1.608951,-11.927742
1790538970.3040,0.010738,-0.047701,-0.168074,0.009326,-0.044738,-0.168074,0.498077,0.102625,-1.013957,-1.539112,1.608951,-4.514804
1790538970.3180,0.013313,-0.047088,-0.176338,0.012117,-0.046383,-0.176338,-0.004578,-0.222765,-0.615719,1.527127,1.385871,-8.395923
1790538970.3319,0.025173,-0.054505,-0.187927,0.021256,-0.052069,-0.187927,0.519931,-0.663499,-0.805125,-1.999048,0.790991,-10.802217
1790538970.3458,0.044812,-0.069352,-0.202685,0.037745,-0.064167,-0.202685,1.163427,-1.229289,-0.971462,-1.615768,2.426911,-8.745224
1790538970.3598,0.053243,-0.075132,-0.218075,0.048594,-0.071842,-0.218075,0.677770,-0.567582,-1.033384,0.300631,3.728211,-5.756762
1790538970.3734,0.062945,-0.082646,-0.226038,0.058639,-0.079405,-0.226038,0.615849,-0.720564,-0.802697,0.492271,1.571771,-6.959909
1790538970.3871,0.055948,-0.091880,-0.236166,0.056755,-0.088138,-0.236166,0.642560,0.539716,-0.797840,0.108991,0.828171,-13.635434
1790538970.4010,0.050721,-0.094545,-0.247372,0.052531,-0.092623,-0.247372,0.142333,0.451084,-0.677640,-1.347472,0.233291,-16.196973
1790538970.4150,0.042434,-0.092764,-0.259873,0.045463,-0.092722,-0.259873,-0.212196,0.706053,-0.648501,-2.114032,-0.807749,-15.731238
1790538970.4289,0.040123,-0.091572,-0.276336,0.041725,-0.091917,-0.276336,-0.285045,0.394019,-0.582937,-2.918919,-2.257768,-8.085434
1790538970.4429,0.034367,-0.081670,-0.289329,0.036575,-0.084744,-0.289329,-0.752489,0.662344,-0.580509,-2.075704,0.047391,-5.407462
1790538970.4589,0.035197,-0.067940,-0.301721,0.035610,-0.072981,-0.301721,-0.989247,0.134192,-0.421456,-2.267343,-1.216729,-7.153965
1790538970.4739,0.025904,-0.051199,-0.313043,0.028816,-0.057734,-0.313043,-1.216292,0.764332,-0.432383,-1.462456,-0.547489,-7.969000
1790538970.4883,0.020884,-0.038971,-0.323054,0.023263,-0.044600,-0.323054,-1.049954,0.559142,-0.388674,-3.225543,-2.629568,-11.035084
1790538970.5031,0.010624,-0.016379,-0.325367,0.014416,-0.024845,-0.325367,-1.511328,0.766760,-0.173771,-0.389272,0.790991,-5.291028
1790538970.5175,0.009706,0.002706,-0.327758,0.011119,-0.005559,-0.327758,-1.365631,0.203399,-0.173771,-1.424128,0.642271,-7.891378
1790538970.5314,0.029488,-0.007716,-0.327234,0.023977,-0.007069,-0.327234,0.655915,-1.395627,0.149191,-2.190688,-0.064149,-18.409210
1790538970.5454,0.021529,-0.015915,-0.298602,0.022263,-0.013261,-0.298602,0.733620,0.169403,0.820611,5.628221,4.062831,-9.676693
1790538970.5595,0.021514,-0.016140,-0.279313,0.021738,-0.015276,-0.279313,0.203040,0.088055,0.317956,-1.577440,3.133331,-6.494175
1790538970.5735,0.015466,-0.024799,-0.275668,0.017348,-0.021942,-0.275668,0.636489,0.193685,0.264534,3.558510,1.608951,-9.637881
1790538970.5875,0.004018,-0.035986,-0.271246,0.008017,-0.031773,-0.271246,0.825895,0.608922,0.326455,3.558510,1.832031,-10.957462
1790538970.6011,-0.008200,-0.042719,-0.260704,-0.003335,-0.039435,-0.260704,0.625562,0.744906,0.523147,2.332014,4.137191,-11.617252
1790538970.6147,-0.013276,-0.046384,-0.253304,-0.010294,-0.044299,-0.253304,0.403374,0.357595,0.413874,-0.082648,2.798711,-7.813756
1790538970.6283,-0.017914,-0.049788,-0.244193,-0.015628,-0.048141,-0.244193,0.340238,0.258035,0.455155,0.913879,2.538451,-9.016902
1790538970.6423,-0.022167,-0.053960,-0.235724,-0.020205,-0.052214,-0.235724,0.322026,0.224039,0.478223,1.028863,1.794851,-10.414105
1790538970.6563,-0.021610,-0.056636,-0.227008,-0.021188,-0.055309,-0.227008,0.307457,-0.090424,0.525575,0.530599,4.285911,-12.432287
1790538970.6703,-0.008832,-0.055546,-0.215985,-0.012539,-0.055475,-0.215985,-0.091996,-1.002245,0.587496,1.067191,1.757671,-14.877392
1790538970.6842,-0.001190,-0.044170,-0.201049,-0.004595,-0.047561,-0.201049,-0.797413,-0.761844,0.570498,3.136902,2.017931,-11.384385
1790538970.6981,0.003436,-0.033118,-0.188070,0.001027,-0.037451,-0.188070,-0.833837,-0.610077,0.517076,2.638638,0.456371,-6.649420
1790538970.7122,0.012109,-0.024478,-0.178405,0.008784,-0.028370,-0.178405,-0.637146,-0.767915,0.327670,1.297159,0.753811,-7.153965
1790538970.7271,0.021798,-0.015622,-0.171527,0.017894,-0.019446,-0.171527,-0.604364,-0.761844,0.143120,1.757095,1.423051,-11.500819
1790538970.7412,0.016345,-0.013295,-0.172389,0.016810,-0.015141,-0.172389,-0.218267,0.279889,-0.281830,4.133430,0.790991,-15.886483
1790538970.7553,0.012265,-0.018091,-0.195841,0.013628,-0.017206,-0.195841,0.425228,0.511791,-0.825765,-1.845736,3.021791,-11.229140
1790538970.7695,0.029542,-0.021430,-0.319921,0.024768,-0.020163,-0.319921,0.590352,-0.587008,-1.213077,-3.723807,3.393591,-1.487532
1790538970.7836,0.029131,-0.026598,-0.280558,0.027822,-0.024668,-0.280558,0.597637,-0.078282,-0.642430,1.220503,2.352551,-3.893825
1790538970.7975,0.027027,-0.038678,-0.283490,0.027266,-0.034475,-0.283490,0.853821,0.168188,-0.551369,0.530599,0.716631,-7.115154
1790538970.8115,0.044644,-0.046119,-0.296624,0.039430,-0.042626,-0.296624,0.681412,-1.120016,-0.910755,-1.194160,4.323091,-11.073895
1790538970.8253,0.051018,-0.053942,-0.308899,0.047542,-0.050547,-0.308899,0.576996,-0.372105,-1.228861,0.300631,1.869211,-10.957462
1790538970.8389,0.053651,-0.064212,-0.314816,0.051818,-0.060112,-0.314816,0.739691,-0.171771,-1.075879,0.837223,1.125611,-9.560259
1790538970.8525,0.066384,-0.072837,-0.326010,0.062014,-0.069020,-0.326010,0.585495,-0.862618,-0.914398,-0.389272,0.493551,-9.210958
1790538970.8663,0.077447,-0.089216,-0.316187,0.072817,-0.083157,-0.316187,1.065081,-0.918469,-0.718921,1.680439,-0.584669,-8.007811
1790538970.8804,0.062900,-0.095720,-0.323234,0.065875,-0.091951,-0.323234,0.529645,1.027801,-0.620575,0.530599,3.244871,-14.217602
1790538970.8945,0.048841,-0.082709,-0.349182,0.053951,-0.085482,-0.349182,-0.983176,1.198995,-0.477307,-4.796990,-0.138509,-15.731238
1790538970.9086,0.049236,-0.068363,-0.374895,0.050650,-0.073499,-0.374895,-1.194437,0.231324,-0.482163,-4.337055,-2.183408,-10.608161
1790538970.9226,0.047191,-0.053950,-0.390457,0.048229,-0.059814,-0.390457,-1.342563,0.496007,-0.641216,-3.033903,-2.555208,-4.786483
1790538970.9366,0.025237,-0.031370,-0.353957,0.032134,-0.039903,-0.353957,-1.545324,1.271844,-0.431169,1.718767,0.716631,-2.496623
1790538970.9505,0.019846,-0.015172,-0.401880,0.023533,-0.022592,-0.401880,-1.410554,0.822611,-0.363177,-2.229015,-1.068009,-2.768301
1790538970.9645,0.004787,0.002852,-0.413470,0.010411,-0.004781,-0.413470,-1.334064,1.183211,-0.392317,-0.657568,0.790991,-13.014455
1790538970.9790,0.021377,-0.012891,-0.415940,0.018087,-0.010458,-0.415940,0.910885,-1.115160,-0.068141,-1.079176,-3.373168,-21.281238
1790538970.9930,0.015333,-0.013123,-0.400836,0.016159,-0.012324,-0.400836,0.052487,0.237395,0.598423,1.642111,1.683311,-8.240679
1790538971.0070,0.015391,-0.011024,-0.380385,0.015621,-0.011414,-0.380385,-0.116279,-0.262832,0.796328,1.757095,1.460231,-6.959909
1790538971.0210,0.028315,-0.018581,-0.374296,0.024507,-0.016431,-0.374296,0.376663,-0.946394,0.519504,-0.580912,-0.770569,-5.640329
1790538971.0350,0.024384,-0.036974,-0.351252,0.024421,-0.030811,-0.351252,1.237489,-0.081925,0.696769,3.098574,-0.250049,-6.183686
1790538971.0489,0.009439,-0.049119,-0.341455,0.013934,-0.043626,-0.341455,0.981305,0.999876,0.744120,0.108991,3.170511,-10.646972
1790538971.0625,-0.001034,-0.056246,-0.333092,0.003456,-0.052460,-0.333092,0.591566,0.767975,0.765975,-1.002520,2.352551,-9.909560
1790538971.0762,-0.013455,-0.060780,-0.320571,-0.008382,-0.058284,-0.320571,0.451940,0.823825,0.808470,0.492271,2.649991,-7.969000
1790538971.0900,-0.017971,-0.063614,-0.309740,-0.015094,-0.062015,-0.309740,0.258891,0.241037,0.674914,0.760567,2.129471,-9.482637
1790538971.1040,-0.012258,-0.067140,-0.298685,-0.013109,-0.065603,-0.298685,0.178758,-0.477735,0.775688,0.377287,0.196111,-12.471098
1790538971.1178,-0.007861,-0.062684,-0.284844,-0.009435,-0.063560,-0.284844,-0.359107,-0.454666,0.744120,1.795423,0.902531,-12.587532
1790538971.1317,-0.005567,-0.059011,-0.263777,-0.006727,-0.060376,-0.263777,-0.402817,-0.444953,0.831539,3.980118,-1.105189,-10.608161
1790538971.1456,-0.001104,-0.049624,-0.245314,-0.002791,-0.052849,-0.245314,-0.810768,-0.627075,0.748977,4.018446,-0.956469,-9.327392
1790538971.1595,0.012862,-0.035839,-0.230601,0.008166,-0.040942,-0.230601,-1.104591,-1.211077,0.598423,1.757095,-0.361589,-7.774944
1790538971.1735,0.015642,-0.020107,-0.221431,0.013399,-0.026358,-0.221431,-1.292783,-0.548155,0.502506,4.056774,-1.365448,-7.464455
1790538971.1875,0.021538,-0.001920,-0.212674,0.019096,-0.009251,-0.212674,-1.361989,-0.597935,0.367736,1.872079,0.456371,-9.327392
1790538971.2015,0.015482,0.003328,-0.211731,0.016566,-0.000446,-0.211731,-0.422243,0.310243,0.033847,2.715294,1.014071,-12.781588
1790538971.2156,0.016991,-0.002062,-0.227133,0.016863,-0.001577,-0.227133,0.414301,0.210683,-0.649715,-4.643678,2.389731,-12.082986
1790538971.2301,0.023583,-0.015169,-0.243013,0.021567,-0.011092,-0.243013,0.897530,-0.174200,-1.117159,-1.730752,1.014071,-8.163056
1790538971.2441,0.020081,-0.013560,-0.280134,0.020527,-0.012820,-0.280134,0.203040,0.125693,-0.502804,2.523654,4.657711,-5.485084
1790538971.2581,0.026039,-0.023003,-0.284721,0.024385,-0.019948,-0.284721,0.620705,-0.259190,-0.545299,-2.075704,0.493551,-12.626343
1790538971.2720,0.040018,-0.041338,-0.295353,0.035328,-0.034921,-0.295353,1.264201,-0.800697,-0.944751,-2.382327,0.716631,-14.256413
1790538971.2862,0.049490,-0.048870,-0.320073,0.045242,-0.044685,-0.320073,0.687483,-0.531157,-1.210648,-0.312616,3.170511,-7.309210
1790538971.3001,0.058784,-0.051160,-0.337767,0.054721,-0.049218,-0.337767,0.258891,-0.617362,-1.131729,0.492271,2.389731,-7.425644
1790538971.3136,0.064676,-0.060303,-0.348007,0.061690,-0.056978,-0.348007,0.618277,-0.376961,-0.995745,0.147319,0.567911,-8.900469
1790538971.3276,0.075738,-0.071224,-0.365088,0.071523,-0.066950,-0.365088,0.841679,-0.704780,-0.918040,-0.619240,2.501271,-9.754315
1790538971.3416,0.062074,-0.077498,-0.364764,0.064909,-0.074333,-0.364764,0.377877,0.871177,-0.831836,3.558510,0.567911,-14.178791
1790538971.3555,0.047533,-0.062678,-0.383101,0.052746,-0.066175,-0.383101,-1.091235,1.246347,-0.834264,-3.148887,1.348691,-13.596623
1790538971.3695,0.047571,-0.050402,-0.388548,0.049124,-0.055134,-0.388548,-1.054811,0.214326,-0.778414,-2.420655,-1.551348,-9.016902
1790538971.3835,0.034617,-0.034882,-0.394141,0.038969,-0.040957,-0.394141,-1.295211,1.093365,-0.761416,-0.925864,-1.105189,-6.455364
1790538971.3974,0.024946,-0.021198,-0.404762,0.029153,-0.027126,-0.404762,-1.093663,0.970736,-0.694638,-1.730752,-0.212869,-5.717951
1790538971.4113,0.011425,-0.002937,-0.417751,0.016744,-0.010193,-0.417751,-1.105805,1.026587,-0.476092,0.415615,4.174371,-7.813756
1790538971.4253,0.026082,-0.007017,-0.419031,0.023280,-0.007970,-0.419031,0.172687,-0.931824,-0.346179,-2.765607,-1.142369,-21.281238
1790538971.4392,0.028282,-0.013256,-0.406622,0.026782,-0.011670,-0.406622,0.460438,-0.408529,0.565641,4.823333,2.761531,-17.283686
1790538971.4531,0.024439,-0.017482,-0.393519,0.025142,-0.015739,-0.393519,0.334168,0.131764,1.028230,0.032335,1.646131,-9.016902
1790538971.4671,0.035760,-0.028785,-0.384945,0.032575,-0.024871,-0.384945,0.865962,-0.787341,0.842466,-1.769080,1.534591,-7.037532
1790538971.4819,0.023023,-0.039155,-0.374995,0.025888,-0.034870,-0.374995,0.555142,0.832324,0.531646,-0.389272,-1.068009,-7.231588
1790538971.4961,0.007024,-0.047367,-0.368056,0.012684,-0.043618,-0.368056,0.553927,1.088508,0.591138,-0.082648,0.790991,-11.966553
1790538971.5100,-0.002863,-0.058194,-0.359360,0.001801,-0.053821,-0.359360,0.804041,0.668415,0.778116,-0.350944,1.869211,-11.267951
1790538971.5237,-0.016623,-0.061563,-0.351265,-0.011096,-0.059241,-0.351265,0.403374,0.852965,0.762332,1.297159,2.798711,-6.804665
1790538971.5374,-0.020655,-0.066508,-0.342075,-0.017787,-0.064328,-0.342075,0.425228,0.224039,0.857036,0.338959,2.426911,-9.599070
1790538971.5514,-0.024234,-0.069922,-0.330824,-0.022300,-0.068244,-0.330824,0.256463,0.152405,0.807256,0.990535,1.571771,-9.443825
1790538971.5653,-0.016931,-0.073168,-0.318071,-0.018542,-0.071691,-0.318071,0.155689,-0.583366,0.827896,0.223975,0.196111,-13.169700
1790538971.5792,-0.007771,-0.067891,-0.302688,-0.011002,-0.069031,-0.302688,-0.431956,-0.815267,0.772046,2.178703,0.605091,-12.393476
1790538971.5930,0.002668,-0.060015,-0.283915,-0.001433,-0.062720,-0.283915,-0.669928,-0.973105,0.733193,3.175230,-0.473129,-11.811308
1790538971.6069,0.008832,-0.051850,-0.265201,0.005753,-0.055111,-0.265201,-0.753704,-0.736347,0.540144,3.213558,-1.253909,-7.425644
1790538971.6208,0.014229,-0.039748,-0.256544,0.011686,-0.044357,-0.256544,-0.941896,-0.601578,0.292460,2.293686,-0.064149,-7.153965
1790538971.6347,0.019351,-0.027719,-0.250766,0.017052,-0.032710,-0.250766,-0.945538,-0.570010,0.133407,2.446998,0.010211,-7.891378
1790538971.6485,0.026258,-0.013384,-0.253161,0.023496,-0.019182,-0.253161,-1.051168,-0.687782,-0.076640,3.175230,1.088431,-9.637881
1790538971.6626,0.026237,-0.002376,-0.259379,0.025415,-0.007418,-0.259379,-0.770702,-0.062499,-0.291543,2.063719,1.980751,-11.617252
1790538971.6765,0.015777,-0.007154,-0.265855,0.018668,-0.007233,-0.265855,0.271032,0.827468,-0.837907,1.718767,0.605091,-17.089630
1790538971.6905,0.017294,-0.018369,-0.283594,0.017706,-0.015028,-0.283594,0.783400,0.236180,-1.333277,-2.727279,0.902531,-10.569350
1790538971.7045,0.020359,-0.013189,-0.386720,0.019563,-0.013741,-0.386720,0.195756,-0.142632,-0.986032,0.913879,6.256450,-2.884734
1790538971.7188,0.014054,-0.022077,-0.373189,0.015706,-0.019576,-0.373189,0.635275,0.293245,-0.466379,2.638638,1.274331,-6.765853
1790538971.7332,0.027294,-0.031280,-0.393511,0.023818,-0.027769,-0.393511,0.722693,-0.678069,-0.824551,-3.072231,3.021791,-11.772497
1790538971.7471,0.040450,-0.039239,-0.416478,0.035460,-0.035798,-0.416478,0.651059,-0.752131,-1.072236,-1.194160,2.464091,-9.288581
1790538971.7607,0.042631,-0.043982,-0.428639,0.040480,-0.041527,-0.428639,0.490792,-0.148703,-0.927753,0.913879,2.612811,-6.727042
1790538971.7745,0.052062,-0.049340,-0.443702,0.048587,-0.046996,-0.443702,0.396089,-0.553012,-0.817266,-0.695896,0.939711,-6.610609
1790538971.7884,0.059403,-0.061453,-0.445309,0.056158,-0.057116,-0.445309,0.802827,-0.508089,-0.766272,0.338959,0.233291,-7.192776
1790538971.8023,0.060259,-0.075224,-0.446543,0.059028,-0.069791,-0.446543,0.976449,-0.081925,-0.397173,0.760567,1.311511,-15.886483
1790538971.8163,0.037921,-0.062784,-0.460992,0.044254,-0.064886,-0.460992,-0.842336,1.677367,-0.386246,-1.730752,3.765391,-20.388581
1790538971.8302,0.035236,-0.044336,-0.466368,0.037942,-0.050501,-0.466368,-1.366845,0.438942,-0.347393,-5.793518,0.790991,-15.304315
1790538971.8441,0.035431,-0.026413,-0.439616,0.036184,-0.033639,-0.439616,-1.253930,0.485080,-0.440882,-4.643678,0.976891,-3.777392
1790538971.8581,0.013479,-0.009283,-0.428380,0.020291,-0.016590,-0.428380,-1.255144,1.436967,-0.300042,0.875551,0.307651,-2.651867
1790538971.8719,0.000936,0.002644,-0.426124,0.006742,-0.003126,-0.426124,-0.790128,0.799542,-0.297614,0.875551,0.828171,-2.962357
1790538971.8859,0.026692,-0.006124,-0.438540,0.020707,-0.005225,-0.438540,0.657130,-1.665166,-0.187127,-4.375383,2.910251,-15.071448
1790538971.8998,0.009305,-0.001842,-0.413656,0.012725,-0.002857,-0.413656,-0.149061,0.882104,0.619064,6.394781,5.624391,-11.035084
1790538971.9137,0.010984,-0.008669,-0.402739,0.011507,-0.006925,-0.402739,0.375449,-0.141418,0.943240,-2.305671,-0.398769,-12.121798
1790538971.9276,0.014385,-0.016721,-0.384935,0.013522,-0.013783,-0.384935,0.555142,-0.415814,1.164214,0.108991,1.014071,-8.357112
1790538971.9415,0.011525,-0.023335,-0.362632,0.012124,-0.020469,-0.362632,0.368164,0.027348,0.857036,0.760567,-0.175689,-7.076343
1790538971.9553,-0.009411,-0.029106,-0.340155,-0.002951,-0.026515,-0.340155,0.448297,1.060583,1.020945,4.363398,1.423051,-6.067252
1790538971.9695,-0.014969,-0.043208,-0.326682,-0.011364,-0.038200,-0.326682,0.957023,0.284746,0.990591,0.300631,1.237151,-11.966553
1790538971.9837,-0.029709,-0.052802,-0.320620,-0.024205,-0.048421,-0.320620,0.753047,0.845680,1.273486,1.527127,2.984611,-9.094525
1790538971.9975,-0.035109,-0.055062,-0.333558,-0.031838,-0.053070,-0.333558,0.320812,0.381877,1.187282,-0.772552,3.728211,-8.085434
1790538972.0115,-0.038520,-0.061172,-0.320295,-0.036515,-0.058742,-0.320295,0.437370,0.098982,1.254060,1.182175,2.352551,-10.841028
1790538972.0255,-0.032122,-0.067250,-0.299818,-0.033440,-0.064698,-0.299818,0.266176,-0.491091,0.934741,-0.465928,-1.105189,-12.393476
1790538972.0394,-0.025751,-0.063964,-0.281019,-0.028058,-0.064184,-0.281019,-0.303257,-0.601578,0.849751,1.833751,0.790991,-12.315854
1790538972.0532,-0.021410,-0.059026,-0.243365,-0.023405,-0.060573,-0.243365,-0.536372,-0.576081,0.779330,3.941790,-1.328269,-11.267951
1790538972.0671,-0.012944,-0.051342,-0.212193,-0.016082,-0.054112,-0.212193,-0.742776,-0.828622,0.653060,2.446998,-1.253909,-8.784035
1790538972.0811,-0.004188,-0.043277,-0.186883,-0.007756,-0.046527,-0.186883,-0.758560,-0.831051,0.497650,1.642111,-0.882109,-6.028441
1790538972.0949,-0.001541,-0.031920,-0.178920,-0.003406,-0.036302,-0.178920,-0.905471,-0.475307,0.405375,2.945262,-0.026969,-6.688231
1790538972.1087,0.006156,-0.018576,-0.165953,0.003287,-0.023894,-0.165953,-1.056025,-0.693852,0.181973,1.718767,0.084571,-8.861658
1790538972.1225,0.011983,-0.003805,-0.156025,0.009374,-0.009831,-0.156025,-1.175011,-0.536014,-0.059642,2.293686,-0.101329,-11.151518
1790538972.1363,-0.001162,-0.004194,-0.153209,0.001999,-0.005885,-0.153209,-0.065285,0.986520,-0.456666,1.718767,0.010211,-17.361308
1790538972.1501,-0.002408,-0.017157,-0.164245,-0.001086,-0.013776,-0.164245,0.914528,0.323599,-1.049167,-1.615768,0.902531,-15.265504
1790538972.1641,0.000058,-0.021734,-0.215324,-0.000285,-0.019347,-0.215324,0.488364,0.181544,-1.056452,-2.420655,2.092291,-6.610609
1790538972.1779,0.002946,-0.028967,-0.224234,0.001977,-0.026081,-0.224234,0.549071,-0.109850,-0.466379,-0.350944,1.125611,-7.580888
1790538972.1917,0.017384,-0.047422,-0.232724,0.012762,-0.041020,-0.232724,1.307910,-0.851691,-0.636359,-2.612295,0.567911,-12.703965
1790538972.2057,0.042895,-0.063858,-0.279185,0.033855,-0.057007,-0.279185,1.283627,-1.439336,-0.909541,-3.762135,1.646131,-6.183686
1790538972.2193,0.051435,-0.073261,-0.307993,0.046161,-0.068385,-0.307993,0.859891,-0.638002,-0.967820,0.990535,2.835891,-7.076343
1790538972.2335,0.057256,-0.082365,-0.325160,0.053927,-0.078171,-0.325160,0.695982,-0.396388,-0.887687,0.300631,1.125611,-5.640329
1790538972.2476,0.060341,-0.093426,-0.332347,0.058417,-0.088850,-0.332347,0.706909,-0.142632,-0.768701,-0.964192,-0.212869,-11.772497
1790538972.2616,0.043905,-0.097485,-0.339430,0.048258,-0.094894,-0.339430,0.234608,1.177141,-0.737133,0.760567,0.233291,-19.418301
1790538972.2757,0.035455,-0.088143,-0.354752,0.039296,-0.090168,-0.354752,-0.699067,0.804399,-0.732276,-4.222071,0.307651,-14.838581
1790538972.2896,0.036417,-0.078446,-0.352275,0.037281,-0.081963,-0.352275,-0.929754,0.179116,-0.602363,-2.957247,-2.443668,-7.503266
1790538972.3034,0.031001,-0.061103,-0.360395,0.032885,-0.067361,-0.360395,-1.419053,0.713338,-0.582937,-1.999048,-0.807749,-3.893825
1790538972.3174,0.021198,-0.037107,-0.374156,0.024704,-0.046183,-0.374156,-1.579320,0.652631,-0.466379,0.645583,1.274331,-3.583336
1790538972.3313,0.007930,-0.016766,-0.381147,0.012962,-0.025591,-0.381147,-1.470047,1.008375,-0.412957,0.300631,1.162791,-8.628791
1790538972.3451,-0.003521,-0.002977,-0.387564,0.001424,-0.009761,-0.387564,-1.090021,1.064225,-0.410529,-3.302199,-0.287229,-13.169700
1790538972.3590,0.009907,-0.005785,-0.388561,0.007362,-0.006978,-0.388561,0.115622,-0.776414,-0.230836,-4.988630,-0.026969,-19.301868
1790538972.3732,0.019997,-0.001903,-0.383512,0.016207,-0.003425,-0.383512,-0.240121,-0.783699,0.326455,0.300631,2.352551,-10.841028
1790538972.3871,0.018121,-0.002724,-0.371535,0.017547,-0.002935,-0.371535,0.070699,-0.155988,0.722266,2.830278,1.571771,-8.861658
1790538972.4013,0.021727,-0.009064,-0.370939,0.020473,-0.007225,-0.370939,0.609778,-0.392745,0.535288,0.568927,2.389731,-5.368651
1790538972.4152,0.015989,-0.016696,-0.362954,0.017334,-0.013855,-0.362954,0.635275,0.142691,0.526789,3.558510,2.910251,-9.715504
1790538972.4291,0.005357,-0.027169,-0.354113,0.008950,-0.023175,-0.354113,0.767616,0.601637,0.639704,1.795423,1.906391,-11.462007
1790538972.4431,-0.011941,-0.035978,-0.350286,-0.005673,-0.032137,-0.350286,0.708123,1.111577,0.762332,0.913879,2.166651,-7.930189
1790538972.4572,-0.021650,-0.035822,-0.350751,-0.016857,-0.034716,-0.350751,0.088911,0.651417,0.808470,-0.465928,3.393591,-10.025993
1790538972.4714,-0.022193,-0.037930,-0.344931,-0.020592,-0.036966,-0.344931,0.192113,-0.040644,0.806042,0.185647,2.055111,-8.201867
1790538972.4858,-0.024854,-0.038671,-0.336586,-0.023576,-0.038159,-0.336586,0.051273,0.106267,0.795114,0.262303,1.608951,-9.172147
1790538972.4998,-0.024670,-0.039382,-0.324249,-0.024342,-0.039016,-0.324249,0.054915,-0.166915,0.848537,1.412143,1.906391,-9.948371
1790538972.5139,-0.020554,-0.039005,-0.318974,-0.021690,-0.039008,-0.318974,0.124121,-0.417028,0.999090,0.760567,5.141051,-10.841028
1790538972.5286,-0.017075,-0.032907,-0.302681,-0.018459,-0.034737,-0.302681,-0.406459,-0.419456,0.904387,2.102047,2.575631,-12.315854
1790538972.5440,-0.004082,-0.023202,-0.282708,-0.008395,-0.026663,-0.282708,-0.722136,-0.969463,0.640918,1.143847,0.233291,-13.247322
1790538972.5583,-0.000389,-0.008589,-0.252797,-0.002791,-0.014011,-0.252797,-1.056025,-0.587008,0.343453,3.328542,0.790991,-6.183686
1790538972.5728,0.000663,-0.000466,-0.238323,-0.000373,-0.004529,-0.238323,-0.634718,-0.215480,0.071486,2.025391,0.419191,-8.434735
1790538972.5877,-0.004894,-0.004122,-0.247631,-0.003538,-0.004244,-0.247631,0.241893,0.504506,-0.429955,-0.887536,1.311511,-10.724595
1790538972.6016,0.004769,-0.011939,-0.275319,0.002277,-0.009630,-0.275319,0.601279,-0.324753,-1.126873,-4.107087,1.832031,-12.082986
1790538972.6156,0.004335,-0.015403,-0.290201,0.003718,-0.013671,-0.290201,0.315956,0.096554,-1.125658,1.680439,2.129471,-9.521448
1790538972.6297,-0.000302,-0.020819,-0.284285,0.000904,-0.018675,-0.284285,0.349952,0.183972,-0.703137,4.440053,0.716631,-9.793126
1790538972.6438,0.012512,-0.028819,-0.298433,0.009030,-0.025776,-0.298433,0.536929,-0.676854,-0.918040,-2.267343,0.493551,-11.578441
1790538972.6576,0.023107,-0.041933,-0.314293,0.018884,-0.037086,-0.314293,0.948524,-0.616147,-1.213077,-0.159304,1.162791,-10.763406
1790538972.6714,0.034963,-0.051590,-0.346858,0.030139,-0.047238,-0.346858,0.834394,-0.678069,-1.431622,-0.504256,2.575631,-7.891378
1790538972.6849,0.043564,-0.055364,-0.357211,0.039537,-0.052926,-0.357211,0.339024,-0.713279,-1.182723,2.255358,1.794851,-7.309210
1790538972.6986,0.048946,-0.066161,-0.365862,0.046123,-0.062191,-0.365862,0.725121,-0.329610,-1.075879,0.262303,0.307651,-10.918651
1790538972.7124,0.057776,-0.075591,-0.391335,0.054280,-0.071571,-0.391335,0.796756,-0.546941,-0.887687,-0.734224,3.802571,-12.665154
1790538972.7266,0.035761,-0.071931,-0.399502,0.041317,-0.071823,-0.399502,-0.257119,1.531670,-0.692210,1.718767,1.943571,-16.119350
1790538972.7410,0.028146,-0.060137,-0.423547,0.032097,-0.063643,-0.423547,-0.859334,0.800756,-0.825765,-4.452038,0.419191,-13.208511
1790538972.7548,0.027594,-0.046807,-0.428746,0.028945,-0.051858,-0.428746,-1.204150,0.363665,-0.790555,-3.647151,-2.666748,-7.852567
1790538972.7688,0.019423,-0.032366,-0.440524,0.022280,-0.038214,-0.440524,-1.238146,0.922171,-0.807553,-2.803935,-1.625708,-6.532986
1790538972.7827,0.005298,-0.013280,-0.446077,0.010393,-0.020760,-0.446077,-1.550181,1.185639,-0.732276,-0.542584,-0.993649,-5.407462
1790538972.7966,-0.002482,0.004734,-0.453792,0.001381,-0.002914,-0.453792,-1.428767,0.783758,-0.535585,-1.155832,-0.473129,-5.834385
1790538972.8105,-0.005385,0.024002,-0.461849,-0.003355,0.015927,-0.461849,-1.372916,0.306601,-0.531943,0.262303,2.166651,-12.199420
1790538972.8244,0.006296,0.007853,-0.451827,0.003401,0.010275,-0.451827,0.981305,-0.901471,0.128550,1.297159,-2.592388,-21.281238
1790538972.8382,0.002090,0.004956,-0.454834,0.002483,0.006551,-0.454834,0.458010,0.244679,0.725908,-0.427600,3.951291,-5.873196
1790538972.8522,0.008562,-0.000599,-0.448029,0.006738,0.001546,-0.448029,0.450725,-0.480163,0.809684,-1.117504,1.683311,-6.144874
1790538972.8662,0.010022,-0.014634,-0.444488,0.009037,-0.009780,-0.444488,0.941239,-0.013933,0.480652,-1.807408,0.307651,-6.921098
1790538972.8800,-0.003617,-0.026300,-0.433925,0.000179,-0.021344,-0.433925,0.868390,0.784973,0.560785,3.060246,2.241011,-12.044175
1790538972.8940,-0.017483,-0.040953,-0.424796,-0.012184,-0.035070,-0.424796,1.067510,0.897888,0.827896,0.568927,2.315371,-12.626343
1790538972.9076,-0.034307,-0.048444,-0.418015,-0.027670,-0.044432,-0.418015,0.614635,1.178355,0.852179,0.070663,2.426911,-8.861658
1790538972.9213,-0.042466,-0.053441,-0.410758,-0.038027,-0.050738,-0.410758,0.353594,0.597995,0.875248,-0.734224,1.571771,-9.715504
1790538972.9351,-0.043524,-0.059612,-0.398879,-0.041875,-0.056950,-0.398879,0.387590,0.012778,0.946882,0.185647,0.976891,-9.521448
1790538972.9490,-0.043394,-0.062854,-0.389603,-0.042939,-0.061083,-0.389603,0.277103,-0.067355,0.767189,0.415615,2.278191,-9.055714
1790538972.9630,-0.034082,-0.060915,-0.371740,-0.036739,-0.060966,-0.371740,-0.221909,-0.831051,0.897102,2.293686,0.679451,-12.509909
1790538972.9771,-0.025348,-0.054627,-0.352861,-0.028765,-0.056529,-0.352861,-0.542443,-0.805554,0.792686,2.715294,0.121751,-11.850119
1790538972.9917,-0.019623,-0.047073,-0.326444,-0.022365,-0.049910,-0.326444,-0.707566,-0.690210,0.639704,3.826806,-1.551348,-8.046623
1790538973.0058,-0.008373,-0.034083,-0.312722,-0.012571,-0.038831,-0.312722,-0.998960,-1.049596,0.378664,2.370342,0.084571,-6.028441
1790538973.0198,-0.003966,-0.019519,-0.301262,-0.006547,-0.025313,-0.301262,-1.199294,-0.673212,0.226896,3.596838,-0.844929,-5.329839
1790538973.0337,0.005992,-0.005186,-0.291704,0.002230,-0.011224,-0.291704,-1.151942,-0.884473,0.039918,2.370342,-0.361589,-8.589979
1790538973.0477,0.007095,0.004603,-0.292740,0.005635,-0.000145,-0.292740,-0.734277,-0.153559,-0.245405,2.715294,1.348691,-13.441378
1790538973.0617,-0.002537,-0.003053,-0.301045,-0.000085,-0.002181,-0.301045,0.493220,0.763118,-0.865832,2.676966,0.753811,-19.689980
1790538973.0758,0.007470,-0.011901,-0.338591,0.005203,-0.008985,-0.338591,0.771259,-0.296828,-1.482616,-2.420655,2.241011,-6.804665
1790538973.0897,0.000855,-0.009308,-0.393183,0.002159,-0.009211,-0.393183,0.176329,0.225253,-0.716493,3.980118,3.876931,-3.311658
1790538973.1037,-0.001316,-0.023163,-0.388933,-0.000274,-0.018978,-0.388933,0.890245,0.224039,-0.485806,0.108991,-0.212869,-5.368651
1790538973.1175,0.022200,-0.040484,-0.405595,0.015458,-0.034032,-0.405595,1.277556,-1.379843,-1.007887,-4.260399,1.683311,-12.082986
1790538973.1312,0.032973,-0.054760,-0.424339,0.027718,-0.048542,-0.424339,1.123360,-0.735133,-1.159654,0.875551,2.092291,-8.978091
1790538973.1448,0.040137,-0.061764,-0.450327,0.036412,-0.057798,-0.450327,0.651059,-0.421885,-1.182723,-0.005993,2.612811,-7.658511
1790538973.1584,0.053274,-0.070927,-0.458564,0.048215,-0.066988,-0.458564,0.601279,-0.889329,-1.020028,-0.120976,0.084571,-8.085434
1790538973.1725,0.055583,-0.080215,-0.478170,0.053372,-0.076247,-0.478170,0.787043,-0.107422,-0.693424,-0.350944,3.430771,-10.763406
1790538973.1865,0.026221,-0.083526,-0.471820,0.034367,-0.081342,-0.471820,0.087697,2.074392,-0.574438,1.795423,-2.518028,-18.486833
1790538973.2004,0.021700,-0.068130,-0.482040,0.025500,-0.072094,-0.482040,-1.187152,0.617421,-0.750489,-5.256926,-0.621849,-12.936833
1790538973.2143,0.024075,-0.052444,-0.484168,0.024502,-0.058339,-0.484168,-1.289140,0.141477,-0.727420,-3.762135,-1.588528,-8.395923
1790538973.2282,0.017605,-0.032419,-0.482836,0.019674,-0.040195,-0.482836,-1.683736,0.874819,-0.689781,-3.187215,-1.848788,-4.670049
1790538973.2425,0.006383,-0.011417,-0.489252,0.010371,-0.020050,-0.489252,-1.632742,1.129789,-0.423884,-2.497311,-0.919289,-4.747672
1790538973.2567,-0.005190,0.006369,-0.498846,-0.000522,-0.001557,-0.498846,-1.337706,1.126147,-0.539228,-1.769080,-0.138509,-4.864105
1790538973.2708,0.000232,-0.000546,-0.505238,0.000006,-0.000849,-0.505238,0.380305,-0.261618,-0.527086,-1.117504,-1.142369,-21.281238
1790538973.2847,0.007183,-0.009995,-0.501889,0.005030,-0.007251,-0.501889,0.670485,-0.559083,0.179544,0.837223,1.980751,-14.528091
1790538973.2987,0.001717,-0.006333,-0.495306,0.002711,-0.006608,-0.495306,-0.168487,0.129336,0.659130,2.753622,2.873071,-8.473546
1790538973.3128,0.008050,-0.011597,-0.482302,0.006448,-0.010101,-0.482302,0.201826,-0.639216,0.725908,1.067191,-0.956469,-7.503266
1790538973.3269,0.002362,-0.024419,-0.481233,0.003588,-0.020124,-0.481233,0.897530,-0.006648,0.486722,3.903462,0.642271,-5.329839
1790538973.3408,-0.014178,-0.034468,-0.479121,-0.008848,-0.030165,-0.479121,0.778544,0.899102,0.625134,3.750150,2.092291,-8.512357
1790538973.3548,-0.023203,-0.045035,-0.471650,-0.018897,-0.040574,-0.471650,0.783400,0.631991,0.750191,-0.619240,1.794851,-8.706413
1790538973.3683,-0.039514,-0.048797,-0.468867,-0.033329,-0.046330,-0.468867,0.408230,1.070296,0.824254,1.450471,3.505131,-8.939280
1790538973.3820,-0.044737,-0.052745,-0.461712,-0.041315,-0.050821,-0.461712,0.339024,0.341811,0.884961,-0.120976,2.761531,-10.025993
1790538973.3960,-0.045849,-0.056218,-0.452355,-0.044489,-0.054599,-0.452355,0.251606,-0.016361,0.840038,0.837223,1.832031,-9.210958
1790538973.4101,-0.047085,-0.057812,-0.444012,-0.046306,-0.056848,-0.444012,0.102267,0.020063,0.716195,0.607255,1.423051,-8.900469
1790538973.4240,-0.031147,-0.056554,-0.434388,-0.035695,-0.056642,-0.434388,-0.091996,-1.157655,0.767189,-0.619240,2.389731,-12.936833
1790538973.4380,-0.019577,-0.050711,-0.414567,-0.024413,-0.052490,-0.414567,-0.549728,-1.014386,0.787829,2.791950,-0.584669,-13.014455
1790538973.4520,-0.011014,-0.041771,-0.394542,-0.015033,-0.044987,-0.394542,-0.787700,-0.832265,0.622706,3.136902,-0.993649,-10.957462
1790538973.4659,-0.005053,-0.031090,-0.376945,-0.008047,-0.035259,-0.376945,-0.926112,-0.693852,0.399304,2.945262,-0.882109,-7.231588
1790538973.4802,0.003699,-0.016524,-0.371004,0.000175,-0.022145,-0.371004,-1.054811,-0.827408,0.270605,1.948735,0.530731,-5.950818
1790538973.4947,0.013498,-0.002990,-0.364889,0.009501,-0.008736,-0.364889,-0.994104,-0.900257,0.127336,2.676966,0.382011,-7.309210
1790538973.5087,0.000019,-0.005436,-0.366248,0.002864,-0.006426,-0.366248,0.121693,0.948882,-0.262403,2.255358,1.051251,-18.525644
1790538973.5227,0.000333,-0.015951,-0.381233,0.001092,-0.013093,-0.381233,0.783400,0.258035,-1.140228,-3.187215,2.649991,-18.680889
1790538973.5365,0.004744,-0.023052,-0.401363,0.003649,-0.020065,-0.401363,0.592780,-0.006648,-1.216719,-2.305671,2.166651,-9.676693
1790538973.5504,0.001767,-0.024903,-0.419737,0.002332,-0.023451,-0.419737,0.238250,-0.007862,-0.512517,2.408670,1.237151,-4.087881
1790538973.5643,0.009256,-0.036460,-0.420115,0.007179,-0.032557,-0.420115,0.782186,-0.356321,-0.494305,-2.152360,0.307651,-11.073895
1790538973.5782,0.028775,-0.054785,-0.427276,0.022296,-0.048117,-0.427276,1.292126,-1.077521,-0.908327,-4.988630,0.567911,-11.733686
1790538973.5919,0.041439,-0.065464,-0.451221,0.035696,-0.060260,-0.451221,0.924241,-0.801911,-1.047953,-0.580912,2.984611,-8.551168
1790538973.6054,0.048981,-0.069690,-0.473867,0.044995,-0.066861,-0.473867,0.489578,-0.584580,-0.915612,1.028863,2.761531,-6.571797
1790538973.6194,0.058186,-0.081576,-0.479908,0.054229,-0.077162,-0.479908,0.776115,-0.639216,-0.800268,0.300631,-0.026969,-8.434735
1790538973.6334,0.060879,-0.096678,-0.490640,0.058884,-0.090823,-0.490640,1.134287,-0.137775,-0.419028,-1.270816,2.464091,-14.916203
1790538973.6473,0.035498,-0.099526,-0.497760,0.042514,-0.096915,-0.497760,0.232180,1.750216,-0.381389,3.021918,2.612811,-21.281238
1790538973.6613,0.028966,-0.085937,-0.509083,0.033030,-0.089231,-0.509083,-0.958894,0.726694,-0.579295,-5.716862,1.385871,-14.139979
1790538973.6752,0.029940,-0.074654,-0.491591,0.030867,-0.079027,-0.491591,-1.113090,0.166974,-0.504018,-2.382327,-2.927008,-6.067252
1790538973.6892,0.022001,-0.057036,-0.491051,0.024661,-0.063633,-0.491051,-1.489474,0.846894,-0.551369,-2.573967,-1.997508,-6.106063
1790538973.7031,0.012477,-0.037896,-0.492163,0.016132,-0.045617,-0.492163,-1.564751,0.774045,-0.392317,-0.389272,-1.365448,-7.076343
1790538973.7169,0.005859,-0.017352,-0.493024,0.008941,-0.025832,-0.493024,-1.553823,0.573712,-0.216266,-0.389272,0.084571,-4.514804
1790538973.7309,-0.003692,0.003219,-0.493630,0.000098,-0.005496,-0.493630,-1.589033,0.843251,-0.230836,-1.539112,-0.473129,-9.172147
1790538973.7456,0.005761,-0.000252,-0.489617,0.004062,-0.001825,-0.489617,0.144762,-0.509303,-0.070569,-4.183743,-0.138509,-20.194525
1790538973.7597,0.005532,-0.016546,-0.481696,0.005091,-0.012130,-0.481696,1.073580,-0.073426,0.552286,0.415615,0.233291,-13.557812
1790538973.7736,0.009797,-0.012903,-0.489077,0.008385,-0.012671,-0.489077,0.024561,-0.567582,0.912886,1.872079,5.141051,-6.571797
1790538973.7876,0.019174,-0.011337,-0.484752,0.015938,-0.011737,-0.484752,0.016062,-0.665927,0.358023,-0.504256,1.832031,-4.825294
1790538973.8018,0.019007,-0.020691,-0.479724,0.018086,-0.018005,-0.479724,0.621919,-0.220337,0.500078,3.251886,0.790991,-11.462007
1790538973.8158,0.005535,-0.030198,-0.476611,0.009300,-0.026540,-0.476611,0.731192,0.719409,0.659130,3.558510,2.649991,-11.694875
1790538973.8295,-0.008614,-0.034777,-0.476380,-0.003239,-0.032306,-0.476380,0.487150,0.885746,0.625134,1.220503,2.835891,-6.959909
1790538973.8431,-0.018682,-0.035794,-0.472472,-0.014049,-0.034747,-0.472472,0.162974,0.641704,0.671272,0.798895,2.947431,-9.754315
1790538973.8570,-0.019495,-0.038283,-0.463565,-0.017861,-0.037223,-0.463565,0.166616,-0.028503,0.688270,0.530599,1.423051,-9.987182
1790538973.8709,-0.024932,-0.039857,-0.454510,-0.022811,-0.039067,-0.454510,0.091339,0.225253,0.648203,1.718767,1.051251,-8.434735
1790538973.8849,-0.023099,-0.042227,-0.448124,-0.023013,-0.041279,-0.448124,0.210325,-0.216695,0.663987,0.607255,2.278191,-9.793126
1790538973.8987,-0.014687,-0.038486,-0.446275,-0.017185,-0.039324,-0.446275,-0.039788,-0.673212,0.676128,0.147319,6.367990,-10.336483
1790538973.9127,-0.007331,-0.032561,-0.428877,-0.010287,-0.034590,-0.428877,-0.440455,-0.784913,0.764761,3.481854,1.608951,-11.073895
1790538973.9266,0.002533,-0.024087,-0.418415,-0.001313,-0.027238,-0.418415,-0.622576,-0.848049,0.506149,1.603783,1.497411,-11.462007
1790538973.9406,0.001043,-0.019808,-0.404743,0.000336,-0.022037,-0.404743,-0.356679,-0.142632,0.226896,4.133430,0.642271,-10.103616
1790538973.9546,-0.001428,-0.019189,-0.412094,-0.000898,-0.020043,-0.412094,0.011206,0.196114,-0.289115,0.722239,2.538451,-11.772497
1790538973.9684,-0.001237,-0.021263,-0.427238,-0.001136,-0.020897,-0.427238,0.221253,0.162118,-0.706779,-1.002520,2.017931,-9.210958
1790538973.9826,0.007495,-0.028049,-0.445336,0.004906,-0.025904,-0.445336,0.519931,-0.351464,-1.039454,-2.305671,1.794851,-10.918651
1790538973.9972,0.006944,-0.033407,-0.455546,0.006332,-0.031156,-0.455546,0.478651,-0.007862,-0.689781,1.833751,2.203831,-7.115154
1790538974.0113,0.006989,-0.039226,-0.464112,0.006792,-0.036805,-0.464112,0.419158,0.077128,-0.578080,-0.044320,1.199971,-10.608161
1790538974.0254,0.011316,-0.045075,-0.478757,0.009959,-0.042594,-0.478757,0.416729,-0.137775,-0.992103,-1.002520,0.976891,-11.267951
1790538974.0394,0.018996,-0.049683,-0.499965,0.016285,-0.047556,-0.499965,0.354808,-0.316254,-1.284711,-1.385800,1.199971,-9.016902
1790538974.0531,0.024686,-0.052854,-0.515307,0.022166,-0.051265,-0.515307,0.301386,-0.368462,-1.145085,0.760567,1.497411,-6.882287
1790538974.0668,0.029125,-0.058352,-0.521843,0.027038,-0.056226,-0.521843,0.348737,-0.296828,-0.903470,0.952207,0.233291,-10.646972
1790538974.0809,0.039197,-0.067036,-0.531053,0.035549,-0.063793,-0.531053,0.598851,-0.650143,-0.762630,-0.159304,0.716631,-10.181238
1790538974.0947,0.046100,-0.074486,-0.544820,0.042935,-0.071278,-0.544820,0.614635,-0.451024,-0.746846,-0.005993,2.129471,-9.288581
1790538974.1086,0.034271,-0.074587,-0.561495,0.036870,-0.073594,-0.561495,0.059772,0.933098,-0.871903,-0.274288,2.798711,-14.528091
1790538974.1226,0.020604,-0.064391,-0.575380,0.025484,-0.067152,-0.575380,-0.786485,1.200209,-0.750489,-4.298727,-0.101329,-16.235784
1790538974.1364,0.012223,-0.053307,-0.584530,0.016201,-0.057461,-0.584530,-0.927326,0.863892,-0.779628,-2.880591,-1.216729,-9.599070
1790538974.1502,0.005184,-0.042256,-0.589000,0.008489,-0.046818,-0.589000,-0.943110,0.873605,-0.568367,-3.340527,-1.068009,-6.144874
1790538974.1642,-0.001768,-0.026527,-0.596685,0.001310,-0.032614,-0.596685,-1.194437,0.818969,-0.438454,-3.647151,-0.175689,-8.007811
1790538974.1780,-0.007225,-0.012266,-0.601488,-0.004665,-0.018370,-0.601488,-1.137372,0.614993,-0.213838,-2.305671,-0.398769,-8.085434
1790538974.1918,0.003415,-0.015379,-0.601149,0.000991,-0.016277,-0.601149,0.097410,-0.727848,-0.017147,-1.040848,-1.253909,-18.370399
1790538974.2058,-0.002771,-0.024103,-0.582866,-0.001643,-0.021755,-0.582866,0.546643,0.083198,0.886175,4.938317,0.233291,-10.646972
1790538974.2197,-0.004573,-0.036565,-0.568715,-0.003694,-0.032122,-0.568715,0.847750,-0.049143,0.986949,0.952207,0.605091,-7.891378
1790538974.2336,-0.006718,-0.050962,-0.559244,-0.005811,-0.045310,-0.559244,1.044441,-0.012719,0.629991,1.105519,0.865351,-5.679140
1790538974.2482,-0.021370,-0.059147,-0.551132,-0.016702,-0.054996,-0.551132,0.591566,0.817754,0.547429,2.638638,1.646131,-9.016902
1790538974.2623,-0.033256,-0.072613,-0.544688,-0.028290,-0.067328,-0.544688,0.993447,0.801971,0.605708,0.453943,1.980751,-10.452916
1790538974.2763,-0.050003,-0.083649,-0.533874,-0.043489,-0.078753,-0.533874,0.848964,1.060583,0.880104,2.255358,3.021791,-11.345574
1790538974.2899,-0.064145,-0.087915,-0.524370,-0.057948,-0.085166,-0.524370,0.462867,0.930670,0.863106,1.603783,3.691031,-8.357112
1790538974.3035,-0.069368,-0.095639,-0.515549,-0.065942,-0.092497,-0.515549,0.693554,0.346667,0.927456,0.415615,2.687171,-6.455364
1790538974.3174,-0.064840,-0.105443,-0.503487,-0.065170,-0.101559,-0.503487,0.629204,-0.368462,0.859464,1.028863,0.716631,-12.315854
1790538974.3314,-0.054188,-0.107481,-0.492122,-0.057483,-0.105705,-0.492122,0.065842,-0.797055,0.752619,1.028863,0.307651,-14.217602
1790538974.3453,-0.039927,-0.104257,-0.471445,-0.045193,-0.104691,-0.471445,-0.397960,-1.172224,0.866749,2.561982,-1.328269,-11.035084
1790538974.3592,-0.034459,-0.099257,-0.442805,-0.037679,-0.100887,-0.442805,-0.566726,-0.680497,0.908030,5.091629,-2.257768,-10.181238
1790538974.3733,-0.031363,-0.092665,-0.420670,-0.033258,-0.095132,-0.420670,-0.699067,-0.472879,0.704054,3.635166,-2.332128,-8.124245
1790538974.3872,-0.028002,-0.080799,-0.411745,-0.029579,-0.085099,-0.411745,-0.909114,-0.369677,0.475795,1.297159,0.158931,-6.183686
1790538974.4010,-0.025289,-0.064621,-0.405621,-0.026576,-0.070764,-0.405621,-1.213863,-0.295614,0.291245,1.412143,0.382011,-8.240679
1790538974.4150,-0.014809,-0.040345,-0.399251,-0.018339,-0.049471,-0.399251,-1.824577,-0.929396,0.077556,3.021918,-0.324409,-9.016902
1790538974.4290,-0.001873,-0.015602,-0.393554,-0.006813,-0.025763,-0.393554,-1.874357,-1.072665,-0.055999,2.485326,-0.212869,-9.210958
1790538974.4430,-0.005287,-0.000935,-0.391849,-0.005745,-0.008384,-0.391849,-1.139801,0.152405,-0.200482,3.328542,-0.138509,-14.062357
1790538974.4569,-0.021353,-0.008361,-0.397491,-0.016670,-0.008367,-0.397491,0.462867,1.375046,-0.769915,-1.807408,-0.287229,-16.041728
1790538974.4709,-0.011642,-0.006349,-0.472703,-0.013150,-0.006954,-0.472703,0.249178,-0.205767,-1.032170,-4.988630,5.698751,-5.252217
1790538974.4853,-0.022300,-0.009076,-0.472831,-0.019555,-0.008440,-0.472831,0.178758,0.601637,-0.368034,2.791950,0.679451,-6.727042
1790538974.4998,-0.019313,-0.018453,-0.478004,-0.019385,-0.015449,-0.478004,0.631633,-0.046715,-0.561082,-0.964192,0.716631,-9.831937
1790538974.5134,-0.008246,-0.025677,-0.489902,-0.011588,-0.022609,-0.489902,0.602493,-0.705994,-0.723777,0.070663,1.980751,-9.366203
1790538974.5271,-0.004067,-0.032040,-0.504231,-0.006323,-0.029211,-0.504231,0.562426,-0.237335,-0.757773,0.607255,2.203831,-8.939280
1790538974.5411,0.004632,-0.033430,-0.524293,0.001345,-0.032164,-0.524293,0.279531,-0.451024,-0.789341,-0.849208,2.910251,-7.115154
1790538974.5550,0.013013,-0.035321,-0.539739,0.009513,-0.034374,-0.539739,0.198184,-0.419456,-0.874331,-1.155832,1.832031,-9.055714
1790538974.5689,0.018111,-0.039426,-0.555635,0.015532,-0.037910,-0.555635,0.370592,-0.211838,-0.853691,-0.810880,2.055111,-8.939280
1790538974.5829,0.021906,-0.038943,-0.571764,0.019993,-0.038634,-0.571764,0.071913,-0.041858,-0.752917,-2.267343,2.687171,-9.016902
1790538974.5969,0.005954,-0.035913,-0.585909,0.010166,-0.036729,-0.585909,-0.190342,1.302197,-0.673998,-1.922392,2.798711,-18.642077
1790538974.6125,0.000834,-0.022664,-0.598971,0.003634,-0.026883,-0.598971,-0.784057,0.573712,-0.576866,-4.452038,3.207691,-14.101168
1790538974.6271,-0.003095,-0.012292,-0.603421,-0.001076,-0.016669,-0.603421,-0.753704,0.539716,-0.347393,-3.493839,0.419191,-9.288581
1790538974.6414,-0.001179,-0.007781,-0.604295,-0.001148,-0.010448,-0.604295,-0.289901,-0.040644,0.098197,-1.577440,1.906391,-9.715504
1790538974.6568,0.001873,-0.009911,-0.599395,0.000967,-0.010072,-0.599395,0.138691,-0.171771,0.441799,-1.462456,1.608951,-9.754315
1790538974.6714,-0.003934,-0.017536,-0.579022,-0.002464,-0.015297,-0.579022,0.425228,0.164546,0.929884,1.987063,0.047391,-9.754315
1790538974.6854,-0.009001,-0.027077,-0.555289,-0.007040,-0.023543,-0.555289,0.740905,0.073485,1.110791,1.757095,1.757671,-6.183686
1790538974.6994,-0.007958,-0.034119,-0.548292,-0.007683,-0.030946,-0.548292,0.476222,-0.039430,0.697983,-1.385800,0.902531,-8.046623
1790538974.7133,-0.016652,-0.040030,-0.535965,-0.013961,-0.037305,-0.535965,0.408230,0.485080,0.807256,1.143847,1.311511,-9.870749
1790538974.7274,-0.027147,-0.050428,-0.521237,-0.023191,-0.046491,-0.521237,0.653487,0.607708,0.927456,1.258831,0.233291,-10.608161
1790538974.7412,-0.035893,-0.059152,-0.506009,-0.032083,-0.055354,-0.506009,0.642560,0.482651,1.053727,1.297159,1.906391,-9.288581
1790538974.7551,-0.045693,-0.065450,-0.491984,-0.041610,-0.062421,-0.491984,0.484721,0.578568,1.017302,0.952207,1.869211,-7.503266
1790538974.7692,-0.049650,-0.071537,-0.480963,-0.047238,-0.068802,-0.480963,0.414301,0.244679,0.982092,-0.044320,1.683311,-10.103616
1790538974.7832,-0.056382,-0.076738,-0.469798,-0.053639,-0.074358,-0.469798,0.356022,0.407374,0.849751,0.875551,1.460231,-9.482637
1790538974.7972,-0.044867,-0.079339,-0.458611,-0.047499,-0.077844,-0.458611,0.188471,-0.892972,0.748977,1.143847,2.389731,-13.324944
1790538974.8113,-0.028241,-0.074954,-0.443934,-0.034019,-0.075821,-0.443934,-0.353037,-1.306994,0.666415,2.025391,1.051251,-12.160609
1790538974.8253,-0.016946,-0.066966,-0.415743,-0.022068,-0.069623,-0.415743,-0.758560,-1.043525,0.721052,3.980118,-2.071868,-12.044175
1790538974.8393,-0.011735,-0.057676,-0.387953,-0.014835,-0.061260,-0.387953,-0.844764,-0.661071,0.742906,3.750150,-1.514168,-8.939280
1790538974.8533,-0.001139,-0.039880,-0.372366,-0.005248,-0.046294,-0.372366,-1.298853,-1.117588,0.421159,4.248414,0.679451,-6.804665
1790538974.8673,0.007864,-0.026594,-0.353519,0.003930,-0.032504,-0.353519,-1.100948,-0.943966,0.365308,2.983590,-0.770569,-6.377742
1790538974.8812,0.014557,-0.015313,-0.347443,0.011369,-0.020470,-0.347443,-0.818053,-0.701137,0.279104,2.523654,1.051251,-7.969000
1790538974.8952,-0.001071,-0.020803,-0.346713,0.002661,-0.020703,-0.346713,0.331739,1.061797,-0.238121,3.520182,0.567911,-18.874945
1790538974.9090,-0.002726,-0.025647,-0.368506,-0.001110,-0.024164,-0.368506,0.445869,0.317528,-0.978747,-1.462456,4.062831,-17.050819
1790538974.9230,-0.002759,-0.025743,-0.385436,-0.002265,-0.025270,-0.385436,0.045202,0.193685,-1.023671,-0.772552,1.571771,-10.763406
1790538974.9370,0.004182,-0.030137,-0.410217,0.002248,-0.028677,-0.410217,0.442226,-0.215480,-0.565939,-2.114032,1.869211,-5.873196
1790538974.9509,0.014020,-0.045307,-0.418823,0.010488,-0.040318,-0.418823,1.065081,-0.529943,-0.604791,-1.807408,0.567911,-10.375294
1790538974.9648,0.030503,-0.063617,-0.437382,0.024499,-0.056627,-0.437382,1.344334,-0.940323,-1.044311,-2.535639,1.162791,-9.637881
1790538974.9783,0.044679,-0.072076,-0.455711,0.038625,-0.067441,-0.455711,0.761546,-1.052024,-1.109875,1.220503,2.798711,-8.124245
1790538974.9922,0.051253,-0.078806,-0.468420,0.047464,-0.075396,-0.468420,0.581853,-0.537228,-0.908327,1.565455,2.203831,-7.813756
1790538975.0068,0.061630,-0.089311,-0.479880,0.057381,-0.085137,-0.479880,0.693554,-0.667141,-0.875545,-0.120976,0.679451,-9.831937
1790538975.0209,0.060328,-0.100733,-0.479386,0.059444,-0.096054,-0.479386,0.659558,0.028562,-0.891329,1.757095,-1.514168,-11.423196
1790538975.0348,0.039894,-0.092894,-0.494372,0.045759,-0.093842,-0.494372,-0.554584,1.606947,-0.563511,-2.650623,1.385871,-13.945924
1790538975.0488,0.035714,-0.082683,-0.511944,0.038727,-0.086031,-0.511944,-0.820481,0.655059,-0.684925,-5.371910,-0.807749,-8.861658
1790538975.0627,0.027706,-0.067892,-0.521413,0.031012,-0.073333,-0.521413,-1.223577,0.846894,-0.672783,-2.880591,-1.439808,-7.309210
1790538975.0768,0.017974,-0.050571,-0.524841,0.021886,-0.057399,-0.524841,-1.448193,0.907601,-0.442096,-2.343999,-2.257768,-7.736133
1790538975.0908,0.009074,-0.033700,-0.524845,0.012918,-0.040810,-0.524845,-1.517399,0.797114,-0.358321,-1.079176,-2.518028,-5.368651
1790538975.1048,0.001955,-0.013840,-0.528714,0.005244,-0.021931,-0.528714,-1.557466,0.746120,-0.324325,-2.382327,-0.882109,-7.774944
1790538975.1190,-0.004703,0.003987,-0.535022,-0.001719,-0.003788,-0.535022,-1.272142,0.723051,-0.446953,-2.535639,0.939711,-8.861658
1790538975.1330,0.010022,-0.009427,-0.531939,0.006499,-0.007736,-0.531939,0.884174,-1.214719,0.206255,3.711822,0.605091,-17.361308
1790538975.1469,0.007910,-0.014584,-0.524028,0.007487,-0.012529,-0.524028,0.416729,-0.176628,0.840038,3.443526,2.129471,-8.861658
1790538975.1609,0.008512,-0.014119,-0.518739,0.008204,-0.013642,-0.518739,0.269818,-0.098923,0.606922,-0.197632,3.579491,-4.437182
1790538975.1749,0.010951,-0.019976,-0.513638,0.010127,-0.018076,-0.513638,0.441012,-0.409743,0.224468,3.558510,1.757671,-9.560259
1790538975.1888,-0.001336,-0.031611,-0.507707,0.002103,-0.027550,-0.507707,0.829538,0.661130,0.412660,3.788478,1.311511,-11.384385
1790538975.2023,-0.014354,-0.043724,-0.503049,-0.009417,-0.038872,-0.503049,0.949738,0.860249,0.580211,1.258831,2.575631,-11.694875
1790538975.2159,-0.027811,-0.048695,-0.500688,-0.022293,-0.045748,-0.500688,0.501719,0.922171,0.654274,0.415615,3.393591,-8.784035
1790538975.2298,-0.033302,-0.052706,-0.497048,-0.029999,-0.050618,-0.497048,0.379091,0.401304,0.654274,-0.465928,2.315371,-7.425644
1790538975.2438,-0.037194,-0.058665,-0.487380,-0.035035,-0.056251,-0.487380,0.379091,0.228896,0.744120,0.147319,0.605091,-6.882287
1790538975.2585,-0.040394,-0.066352,-0.479541,-0.038787,-0.063321,-0.479541,0.602493,0.143906,0.729551,1.258831,4.620531,-15.187882
1790538975.2726,-0.024018,-0.062628,-0.464908,-0.028448,-0.062836,-0.464908,-0.289901,-1.280283,0.895888,1.948735,2.538451,-18.098721
1790538975.2865,-0.023544,-0.048541,-0.445276,-0.025016,-0.052830,-0.445276,-1.025671,-0.315040,0.867963,3.788478,1.497411,-9.715504
1790538975.3006,-0.016733,-0.031936,-0.428003,-0.019218,-0.038204,-0.428003,-1.194437,-0.767915,0.633633,3.290214,1.199971,-7.930189
1790538975.3145,-0.002663,-0.018034,-0.411079,-0.007630,-0.024085,-0.411079,-1.048740,-1.323992,0.410231,2.561982,0.530731,-5.523895
1790538975.3284,0.007092,-0.006633,-0.403427,0.002676,-0.011869,-0.403427,-0.780415,-0.902685,0.470938,1.373815,1.460231,-6.028441
1790538975.3424,-0.005736,-0.008479,-0.400734,-0.003212,-0.009496,-0.400734,0.158117,0.817754,0.371379,1.757095,3.021791,-15.071448
1790538975.3562,-0.013036,-0.014071,-0.421053,-0.010089,-0.012699,-0.421053,0.552713,0.713338,-0.325539,-2.727279,5.364131,-14.760958
1790538975.3700,-0.005178,-0.019501,-0.438513,-0.006651,-0.017460,-0.438513,0.409445,-0.285901,-0.965392,-3.302199,1.608951,-14.644525
1790538975.3839,-0.011611,-0.023707,-0.448104,-0.010123,-0.021833,-0.448104,0.328097,0.506934,-0.897400,1.757095,1.348691,-10.569350
1790538975.3977,-0.003435,-0.029219,-0.454010,-0.005441,-0.027003,-0.454010,0.386376,-0.488662,-0.463951,-0.389272,0.679451,-7.852567
1790538975.4117,0.009707,-0.038275,-0.467928,0.005162,-0.034893,-0.467928,0.685055,-0.731491,-0.636359,-1.807408,1.311511,-8.318301
1790538975.4258,0.022819,-0.046302,-0.490353,0.017522,-0.042880,-0.490353,0.729978,-0.731491,-1.001816,-1.232488,2.761531,-7.386832
1790538975.4393,0.033690,-0.053879,-0.509616,0.028839,-0.050579,-0.509616,0.660772,-0.665927,-1.194865,-0.350944,2.761531,-9.909560
1790538975.4529,0.038941,-0.060944,-0.524443,0.035911,-0.057834,-0.524443,0.604921,-0.338109,-1.221576,0.913879,2.538451,-9.443825
1790538975.4669,0.041758,-0.068213,-0.538464,0.040004,-0.065100,-0.538464,0.499291,-0.101351,-0.961749,-0.427600,0.828171,-10.181238
1790538975.4809,0.031313,-0.073980,-0.547754,0.033921,-0.071316,-0.547754,0.398517,0.771617,-0.848834,1.143847,1.237151,-15.692427
1790538975.4952,0.025730,-0.064824,-0.567025,0.028187,-0.066772,-0.567025,-0.679641,0.639276,-0.819695,-4.260399,0.344831,-13.790679
1790538975.5098,0.021544,-0.053565,-0.577186,0.023537,-0.057527,-0.577186,-0.929754,0.517861,-0.722563,-2.727279,-1.811608,-9.288581
1790538975.5239,0.017252,-0.040418,-0.586748,0.019137,-0.045551,-0.586748,-1.058453,0.794686,-0.826979,-3.532167,-0.696209,-4.010259
1790538975.5379,0.007169,-0.025454,-0.599056,0.010759,-0.031483,-0.599056,-1.222362,0.951310,-0.608434,-1.692424,-1.068009,-6.921098
1790538975.5518,0.001982,-0.010752,-0.608877,0.004615,-0.016971,-0.608877,-1.215078,0.652631,-0.522230,-2.229015,-1.030829,-6.688231
1790538975.5658,-0.003601,0.004428,-0.618385,-0.001136,-0.001992,-0.618385,-1.183510,0.574926,-0.425098,-1.884064,-0.250049,-12.859210
1790538975.5798,0.014640,-0.001332,-0.616424,0.009907,-0.001530,-0.616424,0.243107,-1.313065,0.060558,-0.159304,-2.443668,-20.582637
1790538975.5938,0.003369,-0.018512,-0.599049,0.005330,-0.013417,-0.599049,1.130645,0.477795,1.064654,5.551565,-0.175689,-16.934385
1790538975.6078,0.006476,-0.026137,-0.566293,0.006133,-0.022321,-0.566293,0.882960,-0.415814,0.757476,0.645583,2.761531,-2.962357
1790538975.6217,0.000976,-0.033366,-0.556680,0.002523,-0.030053,-0.556680,0.513861,0.191257,0.411445,1.948735,0.828171,-6.804665
1790538975.6356,-0.014879,-0.048032,-0.547475,-0.009658,-0.042638,-0.547475,1.008017,0.913672,0.436942,4.171758,0.493551,-11.772497
1790538975.6495,-0.035537,-0.064119,-0.537101,-0.027773,-0.057675,-0.537101,1.259344,1.328908,0.824254,2.025391,3.207691,-9.793126
1790538975.6631,-0.050786,-0.070934,-0.530090,-0.043882,-0.066957,-0.530090,0.676556,1.104292,0.922599,-0.120976,4.062831,-8.318301
1790538975.6767,-0.066058,-0.077809,-0.517973,-0.059405,-0.074553,-0.517973,0.648631,1.010803,0.979664,1.335487,3.914111,-8.434735
1790538975.6905,-0.068843,-0.088221,-0.512459,-0.066012,-0.084121,-0.512459,0.666843,0.245894,0.731979,-0.695896,0.344831,-10.957462
1790538975.7045,-0.062454,-0.093218,-0.501483,-0.063522,-0.090489,-0.501483,0.308671,-0.512945,0.724694,1.488799,1.348691,-14.644525
1790538975.7183,-0.049394,-0.092284,-0.490791,-0.053632,-0.091745,-0.490791,-0.138134,-1.019243,0.572926,1.910407,0.419191,-14.838581
1790538975.7321,-0.041589,-0.091828,-0.470640,-0.045202,-0.091803,-0.470640,-0.261976,-0.776414,0.603280,4.056774,-2.964188,-11.151518
1790538975.7461,-0.031676,-0.087010,-0.450995,-0.035734,-0.088448,-0.450995,-0.557013,-1.011958,0.519504,4.363398,-2.109048,-7.697322
1790538975.7604,-0.024958,-0.074043,-0.438131,-0.028191,-0.078365,-0.438131,-0.961322,-0.746061,0.575355,4.363398,0.307651,-8.978091
1790538975.7745,-0.017121,-0.054779,-0.429076,-0.020442,-0.061855,-0.429076,-1.491902,-0.702351,0.117623,1.795423,-0.621849,-6.804665
1790538975.7887,-0.006064,-0.031354,-0.425410,-0.010377,-0.040504,-0.425410,-1.703163,-0.976748,-0.014718,2.025391,0.196111,-5.407462
1790538975.8026,0.004813,-0.005534,-0.423734,0.000256,-0.016025,-0.423734,-1.892569,-0.973105,-0.094852,2.676966,0.642271,-7.425644
1790538975.8165,0.010176,0.022443,-0.433667,0.007200,0.010903,-0.433667,-1.942349,-0.366034,-0.429955,0.952207,3.058971,-10.569350
1790538975.8304,-0.010369,0.018017,-0.440347,-0.005098,0.015883,-0.440347,0.198184,1.622731,-0.909541,2.140375,-1.291089,-21.281238
1790538975.8442,0.013204,0.005855,-0.477841,0.007713,0.008863,-0.477841,0.942453,-1.137014,-1.329634,-5.793518,1.720491,-7.969000
1790538975.8580,0.001277,-0.002093,-0.483275,0.003208,0.001194,-0.483275,0.518717,0.862678,-0.582937,1.757095,0.419191,-9.249770
1790538975.8721,0.003073,-0.018401,-0.488589,0.003113,-0.012523,-0.488589,1.043227,0.074699,-0.801483,-1.385800,-0.956469,-11.035084
1790538975.8859,0.019270,-0.033347,-0.502700,0.014423,-0.027100,-0.502700,1.103934,-0.858976,-0.756559,-3.723807,1.385871,-9.560259
1790538975.8994,0.027487,-0.046647,-0.516517,0.023567,-0.040783,-0.516517,1.034728,-0.517802,-0.919254,0.108991,1.608951,-8.434735
1790538975.9130,0.037186,-0.051221,-0.537278,0.033100,-0.048090,-0.537278,0.526002,-0.678069,-0.859761,0.683911,3.839751,-8.551168
1790538975.9270,0.046044,-0.056198,-0.551168,0.042161,-0.053765,-0.551168,0.424014,-0.567582,-0.791769,-0.044320,2.203831,-9.327392
1790538975.9408,0.056233,-0.063808,-0.563808,0.052012,-0.060795,-0.563808,0.589138,-0.622218,-0.703137,-1.117504,1.720491,-9.366203
1790538975.9547,0.048855,-0.066013,-0.581887,0.049802,-0.064448,-0.581887,0.416729,0.640490,-0.338894,-1.347472,4.955151,-8.240679
1790538975.9685,0.022101,-0.054387,-0.588285,0.030411,-0.057405,-0.588285,-0.826552,1.962690,-0.253904,0.262303,2.055111,-14.993826
