t,imu_roll,imu_pitch,imu_yaw,lpf_roll,lpf_pitch,lpf_yaw,gyro_x,gyro_y,gyro_z,acc_x,acc_y,acc_z
1790543583.7376,-0.016818,-0.039653,-0.001951,-0.011773,-0.027757,-0.001951,-0.016738,-0.008521,-0.002589,0.262303,1.274331,-10.025993
1790543583.7532,-0.004787,-0.041893,0.007342,-0.006883,-0.037652,0.007342,0.014830,0.007263,-0.008659,-0.005993,1.237151,-9.715504
1790543583.7669,-0.002033,-0.043118,0.009606,-0.003488,-0.041478,0.009606,0.024543,0.006049,0.001054,0.032335,1.237151,-9.793126
1790543583.7807,0.005060,-0.046494,0.015257,0.002495,-0.044989,0.015257,0.009974,-0.002450,0.001054,-0.197632,1.162791,-10.142427
1790543583.7947,0.001230,-0.046217,0.011625,0.001609,-0.045849,0.011625,-0.033736,-0.009735,-0.005017,0.223975,1.274331,-10.258860
1790543583.8086,0.001811,-0.044000,0.011812,0.001750,-0.044555,0.011812,-0.083515,-0.008521,-0.017158,0.032335,1.423051,-10.724595
1790543583.8228,-0.001704,-0.038861,0.009853,-0.000668,-0.040569,0.009853,-0.118725,0.097110,-0.006231,0.223975,1.571771,-10.220049
1790543583.8374,-0.000364,-0.036584,0.012744,-0.000455,-0.037780,0.012744,-0.128439,0.202740,0.041121,-0.235960,1.385871,-10.064805
1790543583.8518,0.000631,-0.033744,0.016525,0.000305,-0.034955,0.016525,-0.156364,0.143247,0.138252,-0.197632,1.385871,-9.715504
1790543583.8659,0.000833,-0.030791,0.021238,0.000674,-0.032040,0.021238,-0.217071,0.098324,0.273022,-0.120976,1.311511,-9.366203
1790543583.8798,-0.004454,-0.029142,0.024617,-0.002916,-0.030011,0.024617,-0.191574,0.009691,0.467284,0.492271,1.199971,-9.055714
1790543583.8938,-0.007006,-0.029577,0.031141,-0.005779,-0.029707,0.031141,-0.138152,-0.110509,0.627551,0.453943,1.162791,-9.987182
1790543583.9077,-0.017728,-0.028654,0.034139,-0.014143,-0.028970,0.034139,-0.134509,0.070398,0.755036,1.028863,1.088431,-8.201867
1790543583.9218,-0.011766,-0.027812,0.050542,-0.012479,-0.028159,0.050542,-0.204930,-0.208854,0.701614,-0.427600,1.311511,-10.918651
1790543583.9360,-0.012779,-0.029804,0.060926,-0.012689,-0.029310,0.060926,-0.202501,-0.012163,0.598412,0.185647,0.716631,-9.521448
1790543583.9499,-0.012933,-0.036164,0.067849,-0.012860,-0.034108,0.067849,-0.002168,-0.119008,0.435717,0.415615,0.493551,-12.199420
1790543583.9639,-0.012713,-0.037184,0.069205,-0.012757,-0.036261,0.069205,-0.007024,-0.231923,0.441787,0.530599,1.162791,-9.870749
1790543583.9778,-0.011383,-0.035870,0.073246,-0.011796,-0.035987,0.073246,-0.081087,-0.182143,0.379866,0.262303,1.385871,-9.870749
1790543583.9915,-0.012079,-0.033977,0.075330,-0.011994,-0.034580,0.075330,-0.173362,-0.053444,0.296090,0.338959,1.274331,-9.793126
1790543584.0052,-0.010942,-0.030964,0.078683,-0.011258,-0.032049,0.078683,-0.168505,-0.068014,0.179533,0.070663,1.423051,-9.172147
1790543584.0192,-0.012751,-0.026492,0.069491,-0.012303,-0.028159,0.069491,-0.185503,-0.144505,0.115183,0.875551,1.757671,-9.599070
1790543584.0330,-0.013241,-0.021247,0.059808,-0.012959,-0.023321,0.059808,-0.225570,-0.261062,0.101828,0.990535,1.906391,-9.754315
1790543584.0470,-0.011762,-0.014022,0.049823,-0.012121,-0.016812,0.049823,-0.356697,-0.448040,0.087258,1.182175,2.055111,-9.909560
1790543584.0609,-0.004311,0.001231,0.033700,-0.006654,-0.004182,0.033700,-0.577671,-0.672657,0.152822,0.453943,3.282051,-9.482637
1790543584.0748,-0.012472,-0.002576,0.045172,-0.010727,-0.003058,0.045172,0.074323,0.312013,-0.019587,1.833751,1.683311,-16.041728
1790543584.0891,-0.020024,0.001924,0.005971,-0.017235,0.000430,0.005971,0.925437,0.824381,-0.177425,-0.580912,5.661571,-8.007811
1790543584.1032,-0.008646,0.012635,0.003255,-0.011223,0.008973,0.003255,0.472562,0.161459,-0.606017,-2.305671,4.471811,-5.717951
1790543584.1173,0.002811,0.013485,-0.046522,-0.001399,0.012131,-0.046522,0.249160,-0.066800,-0.826991,-1.577440,2.278191,-7.309210
1790543584.1312,0.011744,0.019485,-0.042800,0.007801,0.017279,-0.042800,0.074323,-0.371549,-1.038252,-0.542584,4.285911,-10.646972
1790543584.1452,0.008770,0.015605,-0.033925,0.008479,0.016107,-0.033925,0.184810,0.200312,-1.364856,1.143847,1.869211,-12.393476
1790543584.1591,-0.005113,0.013820,0.033268,-0.001035,0.014506,0.033268,-0.014309,0.502633,-1.531193,3.098574,1.348691,-10.258860
1790543584.1731,0.002622,0.013609,-0.016246,0.001525,0.013878,-0.016246,-0.249853,0.029118,-1.438919,-0.964192,0.530731,-8.240679
1790543584.1869,-0.001404,0.010743,-0.036074,-0.000526,0.011684,-0.036074,0.057325,0.547556,-1.418278,0.108991,0.939711,-8.318301
1790543584.2009,-0.006016,0.013651,-0.060305,-0.004369,0.013061,-0.060305,-0.092014,0.639831,-1.628325,0.108991,2.166651,-9.327392
1790543584.2145,-0.010204,0.019300,-0.076186,-0.008454,0.017428,-0.076186,-0.384623,0.529344,-1.584616,0.530599,1.980751,-10.142427
1790543584.2281,-0.012698,0.020329,-0.114517,-0.011425,0.019459,-0.114517,-0.249853,0.672613,-1.537264,-0.695896,1.125611,-11.694875
1790543584.2421,-0.012921,0.019107,-0.136705,-0.012472,0.019213,-0.136705,-0.170934,0.274374,-1.219159,0.108991,0.493551,-9.599070
1790543584.2561,-0.016748,0.020978,-0.145988,-0.015465,0.020448,-0.145988,-0.149079,0.376362,-0.947191,0.683911,1.832031,-10.491728
1790543584.2699,-0.024436,0.031920,-0.153189,-0.021745,0.028478,-0.153189,-0.462328,0.672613,-0.937478,0.645583,3.356411,-9.055714
1790543584.2839,-0.014280,0.029825,-0.175941,-0.016519,0.029421,-0.175941,0.188452,-0.399475,-0.864629,-0.887536,3.096151,-14.489280
1790543584.2979,-0.019812,0.019712,-0.109995,-0.018824,0.022625,-0.109995,1.024996,-0.382477,-0.264843,5.359925,4.137191,-10.297672
1790543584.3119,-0.026450,0.013275,-0.122498,-0.024162,0.016080,-0.122498,1.046851,-0.207640,0.229313,2.983590,3.616671,-6.028441
1790543584.3260,-0.027368,-0.005688,-0.098511,-0.026406,0.000842,-0.098511,1.354029,-0.210068,0.473355,1.335487,1.869211,-9.909560
1790543584.3407,-0.031647,-0.006041,-0.089386,-0.030075,-0.003976,-0.089386,0.002689,0.185742,0.636050,0.645583,2.612811,-15.692427
1790543584.3554,-0.033129,-0.006910,-0.074224,-0.032213,-0.006030,-0.074224,-0.070160,-0.012163,0.951727,0.185647,1.571771,-14.566903
1790543584.3700,-0.036376,-0.008671,-0.059637,-0.035127,-0.007878,-0.059637,0.261301,-0.122650,1.281974,0.568927,1.199971,-4.126693
1790543584.3843,-0.024875,-0.007893,-0.130095,-0.027950,-0.007889,-0.130095,-0.064089,-0.370335,1.281974,-2.458983,1.237151,-7.270399
1790543584.3988,-0.026407,-0.013568,-0.101342,-0.026870,-0.011864,-0.101342,-0.034950,0.020619,1.068285,-0.350944,-1.068009,-11.112707
1790543584.4130,-0.034235,-0.021629,-0.070293,-0.032026,-0.018700,-0.070293,0.218806,0.366649,0.988151,0.722239,-0.659029,-12.859210
1790543584.4269,-0.035650,-0.029590,-0.058289,-0.034563,-0.026323,-0.058289,0.351147,0.091039,1.019719,-0.465928,0.270471,-10.142427
1790543584.4410,-0.040215,-0.035312,-0.050374,-0.038520,-0.032615,-0.050374,0.340220,0.292586,0.938372,-0.120976,1.088431,-9.327392
1790543584.4546,-0.036902,-0.034183,-0.068412,-0.037387,-0.033713,-0.068412,-0.030093,0.144461,0.690687,-2.267343,1.608951,-8.201867
1790543584.4683,-0.033791,-0.033631,-0.073406,-0.034870,-0.033656,-0.073406,-0.126010,-0.036446,0.557131,-1.155832,0.828171,-8.512357
1790543584.4821,-0.032043,-0.034302,-0.072351,-0.032891,-0.034108,-0.072351,-0.064089,-0.098367,0.443002,-0.197632,0.679451,-9.405014
1790543584.4961,-0.032288,-0.034228,-0.068874,-0.032469,-0.034192,-0.068874,-0.011881,-0.008521,0.294876,0.300631,1.423051,-10.103616
1790543584.5101,-0.031637,-0.033490,-0.067461,-0.031887,-0.033701,-0.067461,-0.072588,-0.043731,0.232955,0.147319,1.348691,-10.336483
1790543584.5242,-0.023532,-0.030915,-0.064015,-0.026039,-0.031751,-0.064015,-0.259566,-0.625305,0.139466,0.607255,1.125611,-12.587532
1790543584.5381,-0.016670,-0.024588,-0.048785,-0.019480,-0.026737,-0.048785,-0.378552,-0.689655,0.076331,1.680439,2.241011,-10.763406
1790543584.5521,-0.009305,-0.019062,-0.037967,-0.012358,-0.021365,-0.037967,-0.555817,-0.688440,-0.215063,1.948735,0.344831,-12.548721
1790543584.5661,-0.010015,-0.017557,-0.032524,-0.010718,-0.018700,-0.032524,-0.344556,-0.046159,-0.510100,1.987063,-0.473129,-13.286133
1790543584.5805,-0.014667,-0.014426,-0.039682,-0.013482,-0.015708,-0.039682,-0.121154,0.247663,-0.817278,2.255358,2.687171,-11.850119
1790543584.5950,-0.012675,-0.007733,-0.058089,-0.012917,-0.010126,-0.058089,-0.368839,0.035188,-1.163308,0.223975,1.608951,-7.270399
1790543584.6090,-0.001530,-0.006539,-0.083122,-0.004946,-0.007615,-0.083122,-0.011881,-0.377620,-1.239799,-1.462456,1.794851,-8.512357
1790543584.6231,0.001419,-0.012937,-0.095332,-0.000491,-0.011341,-0.095332,0.420354,-0.061943,-0.942335,0.070663,1.162791,-9.288581
1790543584.6371,-0.006576,-0.018223,-0.097973,-0.004751,-0.016158,-0.097973,0.320794,0.477136,-1.044322,2.753622,1.199971,-11.927742
1790543584.6511,-0.002741,-0.021063,-0.112788,-0.003344,-0.019591,-0.112788,0.175097,-0.138434,-1.345430,0.760567,1.385871,-12.005364
1790543584.6649,0.000402,-0.025046,-0.130939,-0.000722,-0.023410,-0.130939,0.249160,-0.018234,-1.468058,0.108991,0.902531,-8.589979
1790543584.6785,0.003755,-0.026582,-0.150620,0.002412,-0.025631,-0.150620,0.199380,-0.091083,-1.350286,0.223975,1.385871,-6.532986
1790543584.6921,0.006663,-0.032525,-0.160788,0.005388,-0.030457,-0.160788,0.334150,-0.093511,-1.139026,0.262303,0.419191,-8.085434
1790543584.7059,0.011684,-0.040301,-0.175289,0.009795,-0.037347,-0.175289,0.558766,-0.180929,-0.988472,-0.427600,1.125611,-8.706413
1790543584.7199,0.013964,-0.044317,-0.189978,0.012713,-0.042226,-0.189978,0.370574,-0.083798,-0.908339,0.262303,2.129471,-10.297672
1790543584.7339,0.007278,-0.041089,-0.212792,0.008909,-0.041430,-0.212792,0.063396,0.557269,-0.814850,0.300631,4.546171,-10.918651
1790543584.7477,-0.006065,-0.030819,-0.236386,-0.001573,-0.034002,-0.236386,-0.716083,1.269971,-0.820920,-2.650623,2.835891,-17.943476
1790543584.7623,-0.007889,-0.020077,-0.251631,-0.005994,-0.024255,-0.251631,-1.007477,0.733320,-0.564736,-4.183743,-1.179549,-7.697322
1790543584.7765,-0.006667,-0.008296,-0.261847,-0.006465,-0.013084,-0.261847,-0.861780,0.313227,-0.315837,-1.577440,0.605091,-4.825294
1790543584.7905,-0.000929,-0.010926,-0.269516,-0.002590,-0.011573,-0.269516,0.118032,-0.202784,-0.157999,-1.500784,0.865351,-9.094525
1790543584.8045,-0.005496,-0.011817,-0.258883,-0.004624,-0.011744,-0.258883,0.065824,0.115322,0.303375,2.140375,2.055111,-12.626343
1790543584.8184,-0.012270,-0.020771,-0.256104,-0.009976,-0.018063,-0.256104,0.431281,0.414001,0.791460,-0.274288,-0.473129,-12.354665
1790543584.8326,-0.020455,-0.025605,-0.243359,-0.017311,-0.023343,-0.243359,0.279513,0.508704,1.108351,-0.657568,1.199971,-10.802217
1790543584.8470,-0.018380,-0.033437,-0.232377,-0.018059,-0.030409,-0.232377,0.375430,0.027903,0.763535,-1.884064,-0.101329,-7.192776
1790543584.8614,-0.027466,-0.040233,-0.232530,-0.024644,-0.037286,-0.232530,0.256444,0.386075,0.723468,1.642111,-0.584669,-8.861658
1790543584.8756,-0.041658,-0.050049,-0.230458,-0.036553,-0.046220,-0.230458,0.546624,0.841379,0.728325,1.182175,0.010211,-9.560259
1790543584.8905,-0.053142,-0.058471,-0.217340,-0.048166,-0.054796,-0.217340,0.535697,0.673827,0.897091,0.645583,1.423051,-11.112707
1790543584.9065,-0.062287,-0.064845,-0.197394,-0.058051,-0.061830,-0.197394,0.433709,0.587623,0.705256,-0.274288,1.720491,-9.016902
1790543584.9215,-0.063649,-0.068574,-0.179356,-0.061969,-0.066551,-0.179356,0.266158,0.149318,0.626337,-0.580912,1.534591,-9.249770
1790543584.9365,-0.063643,-0.070642,-0.167234,-0.063141,-0.069415,-0.167234,0.144743,-0.031590,0.536491,0.492271,1.571771,-10.608161
1790543584.9520,-0.054370,-0.071070,-0.161123,-0.057002,-0.070574,-0.161123,-0.030093,-0.689655,0.460000,1.335487,0.939711,-12.626343
1790543584.9659,-0.051515,-0.069273,-0.159621,-0.053161,-0.069663,-0.159621,-0.274136,-0.465038,0.452715,3.060246,-0.212869,-10.841028
1790543584.9793,-0.043577,-0.066141,-0.155902,-0.046452,-0.067198,-0.155902,-0.472041,-0.950695,0.396864,3.060246,-0.993649,-7.852567
1790543584.9933,-0.041938,-0.058096,-0.142899,-0.043292,-0.060826,-0.142899,-0.754936,-0.610735,0.432074,5.168285,-0.696209,-8.745224
1790543585.0072,-0.034628,-0.044628,-0.139922,-0.037227,-0.049488,-0.139922,-1.145890,-0.823210,0.279092,2.485326,-0.398769,-7.658511
1790543585.0213,-0.029528,-0.029889,-0.141754,-0.031838,-0.035768,-0.141754,-1.166530,-0.693297,0.071474,3.941790,0.121751,-9.987182
1790543585.0353,-0.019326,-0.011408,-0.145979,-0.023080,-0.018716,-0.145979,-1.380219,-1.089107,-0.074223,3.520182,0.679451,-7.852567
1790543585.0493,-0.014072,0.007739,-0.154781,-0.016775,-0.000197,-0.154781,-1.360793,-0.729721,-0.174997,3.251886,1.274331,-6.959909
1790543585.0631,-0.029888,0.004140,-0.152717,-0.025954,0.002839,-0.152717,0.148386,1.154627,-0.489460,2.715294,0.790991,-19.030189
1790543585.0770,-0.018922,-0.006115,-0.124332,-0.021032,-0.003429,-0.124332,0.783382,-0.195499,-1.130527,-5.716862,2.687171,-13.014455
1790543585.0916,-0.010598,0.001581,-0.172044,-0.013728,0.000078,-0.172044,-0.019166,-0.267133,-0.694650,-1.845736,5.810290,-5.989630
1790543585.1063,-0.004454,-0.004812,-0.169284,-0.007236,-0.003345,-0.169284,0.454350,-0.120222,-0.551381,-2.497311,1.906391,-10.452916
1790543585.1204,0.016849,-0.017100,-0.165455,0.009623,-0.012973,-0.165455,0.855016,-1.146172,-0.797852,-3.532167,1.571771,-11.539630
1790543585.1341,0.028583,-0.029031,-0.177126,0.022895,-0.024214,-0.177126,1.009213,-0.647160,-0.865844,-1.117504,2.873071,-8.939280
1790543585.1478,0.032880,-0.033326,-0.191206,0.029884,-0.030593,-0.191206,0.574550,-0.155432,-0.816064,-0.504256,2.835891,-5.834385
1790543585.1616,0.039391,-0.038933,-0.201916,0.036539,-0.036431,-0.201916,0.501701,-0.355765,-0.704363,-0.542584,2.389731,-8.900469
1790543585.1757,0.049327,-0.043769,-0.212029,0.045491,-0.041568,-0.212029,0.454350,-0.513604,-0.599946,-1.577440,2.352551,-8.240679
1790543585.1899,0.029864,-0.044244,-0.220190,0.034552,-0.043441,-0.220190,0.030614,1.369530,-0.586591,1.258831,2.724351,-17.671798
1790543585.2039,0.025984,-0.030162,-0.232854,0.028555,-0.034146,-0.232854,-0.968625,0.744247,-0.454249,-7.786573,2.873071,-13.907112
1790543585.2179,0.018848,-0.016469,-0.242432,0.021760,-0.021772,-0.242432,-1.006263,0.988290,-0.346191,-3.800463,0.902531,-6.688231
1790543585.2319,0.011914,-0.001573,-0.255727,0.014868,-0.007632,-0.255727,-1.132534,0.869304,-0.375330,-1.692424,0.382011,-4.359560
1790543585.2462,0.001579,0.008384,-0.271321,0.005565,0.003579,-0.271321,-0.818071,0.803740,-0.284270,-0.082648,0.196111,-5.135783
1790543585.2601,-0.011885,0.018171,-0.264174,-0.006650,0.013794,-0.264174,-0.558245,1.181338,-0.341334,-1.539112,3.691031,-10.297672
1790543585.2742,-0.006922,0.009513,-0.285926,-0.006841,0.010797,-0.285926,0.383929,-0.153004,-0.144643,-4.260399,-1.923148,-21.203616
1790543585.2883,-0.007089,0.009233,-0.286995,-0.007014,0.009703,-0.286995,-0.051948,0.006049,0.371367,-0.734224,1.274331,-12.199420
1790543585.3025,-0.010507,0.006255,-0.291475,-0.009459,0.007290,-0.291475,0.048826,0.097110,0.662761,0.568927,0.010211,-11.423196
1790543585.3164,-0.008517,-0.006370,-0.281200,-0.008799,-0.002272,-0.281200,0.434923,-0.326626,0.503709,0.645583,-2.183408,-4.670049
1790543585.3304,-0.021989,-0.016592,-0.244849,-0.018032,-0.012296,-0.244849,0.855016,0.507490,0.435717,3.558510,1.906391,-5.640329
1790543585.3449,-0.039635,-0.029290,-0.236931,-0.033154,-0.024192,-0.236931,0.931507,1.106062,0.506137,1.067191,2.092291,-9.172147
1790543585.3595,-0.054048,-0.041436,-0.222456,-0.047780,-0.036262,-0.222456,0.872014,0.919084,0.725897,0.415615,2.501271,-11.267951
1790543585.3734,-0.064853,-0.047964,-0.198268,-0.059731,-0.044454,-0.198268,0.590333,0.740605,0.813315,-0.044320,2.873071,-8.473546
1790543585.3874,-0.065046,-0.057227,-0.186312,-0.063451,-0.053395,-0.186312,0.580620,-0.015806,0.886163,-0.235960,1.014071,-10.957462
1790543585.4016,-0.057839,-0.060826,-0.173097,-0.059522,-0.058597,-0.173097,0.209093,-0.567026,0.779319,0.300631,1.497411,-11.888930
1790543585.4156,-0.052408,-0.064287,-0.177026,-0.054542,-0.062580,-0.177026,0.011188,-0.479608,0.721040,0.798895,-1.476988,-11.811308
1790543585.4296,-0.050354,-0.069358,-0.182969,-0.051610,-0.067325,-0.182969,0.087679,-0.424972,0.751394,3.290214,-2.071868,-10.336483
1790543585.4436,-0.047658,-0.067897,-0.180379,-0.048843,-0.067725,-0.180379,-0.292348,-0.511176,0.779319,3.213558,-0.770569,-8.706413
1790543585.4576,-0.039693,-0.058906,-0.176229,-0.042438,-0.061552,-0.176229,-0.786504,-0.789214,0.696757,1.833751,-0.212869,-8.046623
1790543585.4716,-0.034307,-0.047049,-0.166010,-0.036746,-0.051400,-0.166010,-1.056043,-0.747933,0.642121,4.325070,-1.253909,-9.948371
1790543585.4855,-0.025060,-0.030331,-0.163627,-0.028566,-0.036652,-0.163627,-1.343795,-0.966479,0.358012,3.750150,-0.324409,-10.336483
1790543585.4995,-0.016430,-0.010816,-0.158290,-0.020071,-0.018567,-0.158290,-1.461567,-1.028400,0.152822,4.440053,0.493551,-7.464455
1790543585.5134,-0.001803,0.011184,-0.164168,-0.007283,0.002259,-0.164168,-1.593908,-1.301582,0.086044,1.603783,0.939711,-5.485084
1790543585.5274,-0.013753,0.006415,-0.143936,-0.011812,0.005168,-0.143936,0.102248,0.815882,-0.215063,1.948735,-1.625708,-12.160609
1790543585.5414,-0.021830,-0.004680,-0.137754,-0.018825,-0.001726,-0.137754,0.857445,0.920298,-0.856130,-3.263871,3.691031,-16.158161
1790543585.5553,-0.000126,0.002333,-0.134502,-0.005736,0.001115,-0.134502,-0.334843,-1.223877,-0.943549,-2.382327,3.653851,-8.939280
1790543585.5692,-0.003609,0.000688,-0.174413,-0.004247,0.000816,-0.174413,0.154456,-0.021876,-0.476104,4.133430,1.608951,-8.046623
1790543585.5831,0.016866,-0.012847,-0.126495,0.010532,-0.008748,-0.126495,0.908439,-0.978620,-0.740787,-4.835318,0.716631,-8.900469
1790543585.5968,0.037106,-0.025504,-0.136906,0.029134,-0.020477,-0.136906,1.063849,-1.232376,-0.948405,-1.347472,2.575631,-6.998721
1790543585.6108,0.045958,-0.032418,-0.169041,0.040911,-0.028836,-0.169041,0.711748,-0.590095,-0.885270,0.377287,3.096151,-6.183686
1790543585.6248,0.052395,-0.040145,-0.187156,0.048950,-0.036752,-0.187156,0.629186,-0.383691,-0.863415,-0.005993,2.501271,-8.822846
1790543585.6390,0.043291,-0.051064,-0.200052,0.044989,-0.046771,-0.200052,0.771241,0.787956,-0.813635,-1.079176,2.055111,-11.772497
1790543585.6531,0.026619,-0.044560,-0.216806,0.032130,-0.045223,-0.216806,-0.469613,1.226262,-0.806351,1.028863,2.278191,-14.993826
1790543585.6674,0.021991,-0.031440,-0.210482,0.025033,-0.035575,-0.210482,-1.096110,0.626475,-0.777211,-3.570495,-1.216729,-12.432287
1790543585.6814,0.015038,-0.019589,-0.208604,0.018037,-0.024385,-0.208604,-1.071827,0.757603,-0.623015,-2.037376,-1.402628,-8.861658
1790543585.6954,0.011404,0.001355,-0.207508,0.013394,-0.006367,-0.207508,-1.538058,0.560912,-0.609660,-2.382327,1.014071,-8.628791
1790543585.7097,0.004324,0.018079,-0.212118,0.007045,0.010745,-0.212118,-1.334082,0.840164,-0.501601,-2.880591,-0.435949,-8.318301
1790543585.7239,-0.001477,0.030184,-0.223000,0.001079,0.024352,-0.223000,-1.024475,0.868090,-0.551381,-5.256926,-0.770569,-10.220049
1790543585.7379,0.009458,0.029173,-0.234396,0.006945,0.027726,-0.234396,-0.118725,-0.692083,-0.215063,-1.194160,-0.807749,-12.936833
1790543585.7522,0.006461,0.033450,-0.246298,0.006606,0.031733,-0.246298,-0.253495,-0.013377,0.368939,2.293686,3.133331,-11.112707
1790543585.7664,0.001004,0.033583,-0.258452,0.002685,0.033028,-0.258452,-0.116297,0.033974,0.893448,2.485326,0.642271,-10.996273
1790543585.7804,0.000432,0.030444,-0.230303,0.001108,0.031219,-0.230303,0.241875,0.100752,0.520707,-1.539112,1.683311,-7.348021
1790543585.7945,-0.009311,0.027566,-0.252487,-0.006185,0.028662,-0.252487,0.238232,0.373934,0.433288,3.136902,2.315371,-8.784035
1790543585.8087,-0.019763,0.017769,-0.260126,-0.015690,0.021037,-0.260126,0.677752,0.495348,0.560773,2.332014,1.980751,-10.491728
1790543585.8225,-0.031914,0.011766,-0.257136,-0.027046,0.014547,-0.257136,0.579406,0.628904,0.758679,1.910407,3.691031,-8.395923
1790543585.8361,-0.038779,0.007435,-0.248209,-0.035260,0.009569,-0.248209,0.420354,0.299871,0.852167,1.220503,3.579491,-9.366203
1790543585.8498,-0.042315,0.005644,-0.235834,-0.040199,0.006821,-0.235834,0.215164,0.082540,0.891020,0.760567,3.356411,-9.210958
1790543585.8642,-0.045627,0.003880,-0.226777,-0.043999,0.004762,-0.226777,0.126531,0.077683,0.753822,0.760567,2.129471,-8.900469
1790543585.8782,-0.045104,0.002253,-0.216870,-0.044773,0.003006,-0.216870,0.108319,-0.150575,0.672474,0.453943,2.129471,-9.870749
1790543585.8923,-0.047539,0.001124,-0.212211,-0.046709,0.001689,-0.212211,0.108319,-0.004878,0.595983,1.680439,2.612811,-9.987182
1790543585.9063,-0.041256,0.005599,-0.202017,-0.042892,0.004426,-0.202017,-0.197645,-0.547600,0.478212,0.798895,4.843611,-11.733686
1790543585.9203,-0.030676,0.007153,-0.194991,-0.034341,0.006335,-0.194991,-0.145437,-0.940982,0.501280,2.025391,2.278191,-13.363756
1790543585.9344,-0.021591,0.012500,-0.187349,-0.025416,0.010651,-0.187349,-0.425903,-0.899701,0.421147,3.251886,1.608951,-11.539630
1790543585.9483,-0.014052,0.021524,-0.181954,-0.017461,0.018262,-0.181954,-0.666304,-0.808640,0.217171,3.366870,1.757671,-9.754315
1790543585.9622,-0.018366,0.027161,-0.174003,-0.018094,0.024491,-0.174003,-0.447758,0.027903,-0.142215,4.746677,1.199971,-8.861658
1790543585.9761,-0.019458,0.028997,-0.186656,-0.019049,0.027646,-0.186656,-0.083515,0.155388,-0.589019,0.952207,2.687171,-10.802217
1790543585.9900,-0.003038,0.029654,-0.170998,-0.007841,0.029052,-0.170998,-0.021594,-0.727293,-0.909553,-2.382327,1.274331,-5.446273
1790543586.0039,0.001420,0.027788,-0.174017,-0.001359,0.028167,-0.174017,0.272228,0.084968,-0.782068,-2.535639,2.649991,-6.222497
1790543586.0179,-0.001091,0.016302,-0.182169,-0.001172,0.019861,-0.182169,0.771241,0.307156,-0.676437,0.262303,1.274331,-12.354665
1790543586.0317,0.008709,0.010065,-0.191836,0.005745,0.013004,-0.191836,0.406998,-0.501463,-1.018825,-0.465928,1.162791,-10.297672
1790543586.0455,0.014324,0.006186,-0.212708,0.011750,0.008231,-0.212708,0.305010,-0.288988,-1.222801,1.258831,2.092291,-9.327392
1790543586.0592,0.017439,-0.005152,-0.227123,0.015732,-0.001137,-0.227123,0.717818,-0.018234,-1.355143,0.185647,0.196111,-8.706413
1790543586.0728,0.023498,-0.012340,-0.246603,0.021168,-0.008979,-0.246603,0.567265,-0.171216,-1.435276,-0.465928,1.348691,-5.523895
1790543586.0867,0.037454,-0.016319,-0.269942,0.032568,-0.014117,-0.269942,0.409426,-0.818354,-1.341787,-0.082648,2.352551,-5.989630
1790543586.1006,0.041734,-0.026152,-0.289450,0.038984,-0.022541,-0.289450,0.671681,-0.182143,-1.317504,0.683911,1.608951,-10.220049
1790543586.1149,0.038377,-0.033819,-0.309983,0.038559,-0.030436,-0.309983,0.620687,0.414001,-1.051607,-0.964192,4.025651,-12.199420
1790543586.1290,0.021237,-0.022608,-0.327256,0.026434,-0.024957,-0.327256,-0.816857,1.342819,-1.012755,0.492271,2.501271,-15.847672
1790543586.1430,0.018742,-0.008601,-0.325076,0.021050,-0.013507,-0.325076,-1.161674,0.607049,-0.944763,-5.103614,-0.844929,-11.267951
1790543586.1569,0.013610,0.004255,-0.332090,0.015842,-0.001074,-0.332090,-1.063328,0.875375,-0.983615,-2.305671,-0.212869,-4.126693
1790543586.1710,0.001155,0.019306,-0.341467,0.005561,0.013192,-0.341467,-0.980766,1.295468,-0.792995,-1.232488,1.014071,-3.001168
1790543586.1885,0.010882,0.002165,-0.359432,0.009286,0.005473,-0.359432,0.887798,-0.194285,-0.843989,-4.107087,-0.212869,-9.443825
1790543586.2026,0.012383,-0.000484,-0.358726,0.011454,0.001303,-0.358726,0.209093,-0.140862,0.021694,0.568927,3.021791,-14.760958
1790543586.2165,0.003254,-0.003424,-0.352792,0.005714,-0.002006,-0.352792,0.099820,0.761245,0.716184,-3.992103,-0.064149,-12.199420
1790543586.2305,0.007473,-0.007135,-0.336525,0.006945,-0.005596,-0.336525,0.245517,-0.228281,0.762321,-3.532167,1.497411,-11.190329
1790543586.2445,0.009288,-0.009569,-0.337645,0.008585,-0.008377,-0.337645,0.086465,-0.110509,0.304589,-1.117504,0.344831,-10.220049
1790543586.2583,-0.012242,-0.018170,-0.354333,-0.005994,-0.015232,-0.354333,0.522342,1.314894,0.428432,3.290214,0.158931,-10.918651
1790543586.2723,-0.025501,-0.030909,-0.351778,-0.019649,-0.026206,-0.351778,0.858659,0.834094,0.629979,0.837223,0.939711,-11.073895
1790543586.2862,-0.038677,-0.045257,-0.334877,-0.032969,-0.039542,-0.334877,1.049279,0.876589,0.921374,-0.120976,2.092291,-10.918651
1790543586.2998,-0.050150,-0.050238,-0.301023,-0.044996,-0.047029,-0.301023,0.529626,0.786742,1.023362,-0.312616,3.579491,-7.969000
1790543586.3138,-0.053272,-0.055107,-0.276629,-0.050789,-0.052684,-0.276629,0.360861,0.280445,1.087711,-1.922392,1.943571,-8.589979
1790543586.3278,-0.043919,-0.057411,-0.268425,-0.045980,-0.055993,-0.268425,0.041541,-0.692083,0.923802,-1.194160,0.233291,-14.062357
1790543586.3418,-0.037622,-0.053373,-0.265929,-0.040129,-0.054159,-0.265929,-0.367625,-0.582810,0.614196,1.680439,0.642271,-12.665154
1790543586.3559,-0.034358,-0.050559,-0.284147,-0.036089,-0.051639,-0.284147,-0.407691,-0.513604,0.620266,3.826806,-1.662888,-10.452916
1790543586.3702,-0.031622,-0.044121,-0.289196,-0.032962,-0.046376,-0.289196,-0.580099,-0.479608,0.548632,3.328542,-0.361589,-8.551168
1790543586.3843,-0.018974,-0.025980,-0.284945,-0.023170,-0.032099,-0.284945,-1.337724,-1.239661,0.501280,2.945262,0.642271,-6.377742
1790543586.3983,-0.006117,-0.006698,-0.280132,-0.011233,-0.014319,-0.280132,-1.416643,-1.242089,0.427218,3.826806,1.051251,-9.210958
1790543586.4122,0.009880,0.011103,-0.274470,0.003546,0.003477,-0.274470,-1.366864,-1.467920,0.303375,2.600310,0.344831,-6.804665
1790543586.4263,0.027507,0.027852,-0.269507,0.020319,0.020539,-0.269507,-1.217524,-1.563837,0.288806,2.332014,0.939711,-6.649420
1790543586.4405,0.009098,0.019409,-0.271598,0.012464,0.019748,-0.271598,0.481061,1.225048,-0.028086,2.868606,0.456371,-20.078091
1790543586.4548,0.011428,0.008485,-0.271281,0.011739,0.011864,-0.271281,0.814950,0.095895,-0.756571,-3.762135,5.215411,-19.612357
1790543586.4689,0.016036,0.009547,-0.286176,0.014747,0.010242,-0.286176,0.000260,-0.206426,-0.869486,0.415615,3.430771,-10.918651
1790543586.4829,0.020608,0.007337,-0.300010,0.018850,0.008209,-0.300010,0.272228,-0.318127,-0.635157,0.837223,2.166651,-5.679140
1790543586.4969,0.027162,-0.006161,-0.298286,0.024668,-0.001850,-0.298286,0.904796,-0.269561,-0.620587,-1.500784,0.790991,-9.016902
1790543586.5111,0.043882,-0.024302,-0.293336,0.038118,-0.017567,-0.293336,1.294536,-0.841422,-0.956904,-3.455511,2.129471,-9.599070
1790543586.5247,0.056250,-0.032704,-0.304322,0.050810,-0.028163,-0.304322,0.810093,-0.783144,-0.992114,-0.350944,3.839751,-7.309210
1790543586.5383,0.064161,-0.036987,-0.317705,0.060156,-0.034340,-0.317705,0.423996,-0.456539,-1.010326,-0.427600,3.579491,-9.094525
1790543586.5523,0.065451,-0.043437,-0.333214,0.063862,-0.040708,-0.333214,0.483489,-0.043731,-1.013969,0.722239,2.612811,-10.258860
1790543586.5661,0.054188,-0.048913,-0.346355,0.057090,-0.046452,-0.346355,0.291655,0.968864,-0.950834,-1.347472,0.716631,-14.760958
1790543586.5800,0.041546,-0.042683,-0.352876,0.046209,-0.043814,-0.352876,-0.523035,1.174054,-0.716504,-4.643678,0.939711,-15.304315
1790543586.5940,0.041815,-0.031200,-0.355011,0.043133,-0.034984,-0.355011,-0.909132,0.292586,-0.620587,-4.950302,0.382011,-12.082986
1790543586.6080,0.035514,-0.019635,-0.357254,0.037800,-0.024239,-0.357254,-0.964983,0.779457,-0.415397,-2.458983,-0.361589,-5.135783
1790543586.6227,0.021741,0.001541,-0.358105,0.026559,-0.006193,-0.358105,-1.323154,1.116989,-0.471247,-1.040848,2.612811,-6.261308
1790543586.6366,0.008878,0.015173,-0.370543,0.014182,0.008763,-0.370543,-1.030546,1.274827,-0.614516,-2.190688,0.605091,-5.834385
1790543586.6508,-0.001752,0.018886,-0.380272,0.003028,0.015850,-0.380272,-0.311774,0.866876,-0.337692,-0.695896,1.460231,-13.208511
1790543586.6650,0.003663,0.011462,-0.379018,0.003473,0.012779,-0.379018,0.496845,-0.445612,0.183175,0.798895,2.984611,-20.349770
1790543586.6790,-0.000951,0.012424,-0.366102,0.000376,0.012530,-0.366102,-0.011881,0.256162,0.620266,-0.465928,2.910251,-10.375294
1790543586.6930,-0.006137,0.007374,-0.364426,-0.004183,0.008921,-0.364426,0.235804,0.194241,0.855810,0.453943,0.010211,-9.210958
1790543586.7070,-0.012511,-0.006846,-0.356510,-0.010012,-0.002116,-0.356510,0.942435,0.603407,0.445430,-2.573967,0.419191,-7.658511
1790543586.7213,-0.028285,-0.018617,-0.351758,-0.022803,-0.013667,-0.351758,0.825877,0.965221,0.583842,1.258831,1.683311,-9.560259
1790543586.7353,-0.046546,-0.034190,-0.340739,-0.039423,-0.028033,-0.340739,1.131841,1.152199,0.829099,1.373815,2.203831,-10.452916
1790543586.7490,-0.059307,-0.045308,-0.319820,-0.053342,-0.040125,-0.319820,0.896297,0.864447,0.874022,0.070663,3.133331,-9.521448
1790543586.7627,-0.067383,-0.054809,-0.298671,-0.063171,-0.050404,-0.298671,0.714176,0.534201,1.056143,-0.350944,2.687171,-10.375294
1790543586.7769,-0.061957,-0.058444,-0.279171,-0.062321,-0.056032,-0.279171,0.220020,-0.518461,1.079212,1.067191,2.278191,-12.548721
1790543586.7912,-0.048967,-0.056073,-0.268090,-0.052973,-0.056060,-0.268090,-0.254709,-0.991976,0.846097,0.415615,0.902531,-13.130889
1790543586.8053,-0.047979,-0.058769,-0.284694,-0.049477,-0.057956,-0.284694,-0.064089,-0.393404,0.881307,5.168285,-2.778288,-11.966553
1790543586.8193,-0.040540,-0.054306,-0.280472,-0.043221,-0.055401,-0.280472,-0.472041,-0.821996,0.897091,2.983590,-0.435949,-8.706413
1790543586.8336,-0.039698,-0.045880,-0.276417,-0.040755,-0.048736,-0.276417,-0.747651,-0.414044,0.736824,4.555037,-0.844929,-8.784035
1790543586.8477,-0.029425,-0.031495,-0.272252,-0.032824,-0.036668,-0.272252,-1.142247,-0.965265,0.524349,3.098574,-0.212869,-10.452916
1790543586.8620,-0.021946,-0.010971,-0.265557,-0.025210,-0.018680,-0.265557,-1.508918,-0.889988,0.445430,5.321597,0.456371,-9.366203
1790543586.8766,-0.008504,0.012051,-0.262646,-0.013516,0.002832,-0.262646,-1.618191,-1.225091,0.201387,3.788478,0.976891,-8.007811
1790543586.8909,0.008843,0.035331,-0.254110,0.002135,0.025581,-0.254110,-1.642474,-1.613617,0.207458,2.983590,0.902531,-4.747672
1790543586.9050,0.004944,0.039711,-0.253967,0.004101,0.035472,-0.253967,-0.344556,0.224594,0.047191,0.683911,1.385871,-8.706413
1790543586.9191,-0.002111,0.025240,-0.237854,-0.000247,0.028310,-0.237854,1.125770,0.854734,-0.326764,-8.438149,6.851330,-17.438931
1790543586.9330,-0.003726,0.019875,-0.255426,-0.002682,0.022405,-0.255426,0.481061,0.129891,-0.580520,2.370342,4.694891,-13.596623
1790543586.9474,-0.003006,0.016225,-0.261847,-0.002909,0.018079,-0.261847,0.223663,0.012120,-0.517385,0.837223,1.608951,-12.354665
1790543586.9616,0.009558,0.010938,-0.260324,0.005818,0.013080,-0.260324,0.319580,-0.692083,-0.620587,-1.500784,1.051251,-10.608161
1790543586.9766,0.020042,-0.001914,-0.255484,0.015775,0.002584,-0.255484,0.776097,-0.352123,-0.897411,-2.727279,0.270471,-7.658511
1790543586.9919,0.026685,-0.010116,-0.278899,0.023412,-0.006306,-0.278899,0.689893,-0.308414,-0.939906,0.147319,3.393591,-6.959909
1790543587.0069,0.031626,-0.017044,-0.296106,0.029162,-0.013823,-0.296106,0.567265,-0.142076,-0.953262,-0.734224,2.761531,-7.231588
1790543587.0215,0.043069,-0.025265,-0.310219,0.038897,-0.021832,-0.310219,0.614616,-0.579168,-0.994543,-1.309144,2.575631,-9.055714
1790543587.0367,0.024127,-0.029573,-0.328072,0.028558,-0.027251,-0.328072,0.273442,1.324607,-0.887698,1.603783,2.761531,-16.041728
1790543587.0508,0.011400,-0.016492,-0.336251,0.016547,-0.019719,-0.336251,-0.930987,1.063567,-0.519813,-2.497311,3.170511,-19.961658
1790543587.0646,0.011307,-0.003236,-0.333746,0.012879,-0.008181,-0.333746,-1.062114,0.375148,-0.485817,-3.800463,-0.101329,-7.619700
1790543587.0787,0.005361,0.007588,-0.338382,0.007616,0.002857,-0.338382,-0.822928,0.752746,-0.518599,-2.037376,0.456371,-5.252217
1790543587.0927,-0.007092,0.025698,-0.360171,-0.002679,0.018846,-0.360171,-0.729439,0.988290,-0.579306,0.108991,2.092291,-0.594874
1790543587.1068,-0.007943,0.023339,-0.373603,-0.006364,0.021991,-0.373603,0.131388,0.338724,-0.615730,-3.148887,1.608951,-13.402567
1790543587.1212,-0.012032,0.018980,-0.365996,-0.010332,0.019884,-0.365996,0.400927,0.129891,0.072688,4.095102,5.624391,-15.032637
1790543587.1354,-0.017673,0.017146,-0.355207,-0.015471,0.017967,-0.355207,0.183596,0.225809,0.619052,1.718767,4.137191,-13.635434
1790543587.1495,-0.022598,0.011677,-0.339894,-0.020460,0.013564,-0.339894,0.328079,0.087396,0.926230,1.680439,1.162791,-9.327392
1790543587.1635,-0.023646,0.004047,-0.332796,-0.022690,0.006902,-0.332796,0.474990,0.014548,0.659119,-0.465928,0.753811,-7.852567
1790543587.1775,-0.038305,-0.003985,-0.319295,-0.033620,-0.000719,-0.319295,0.566051,0.768530,0.867951,2.485326,1.757671,-8.745224
1790543587.1914,-0.051094,-0.016662,-0.307623,-0.045852,-0.011879,-0.307623,0.838018,0.786742,0.985723,0.453943,1.199971,-11.539630
1790543587.2050,-0.062954,-0.026892,-0.294241,-0.057823,-0.022388,-0.294241,0.716604,0.705395,1.098638,0.798895,1.757671,-9.210958
1790543587.2187,-0.071377,-0.032029,-0.281532,-0.067311,-0.029136,-0.281532,0.345077,0.495348,1.099852,0.338959,2.055111,-9.715504
1790543587.2326,-0.067505,-0.033401,-0.267939,-0.067447,-0.032122,-0.267939,0.065824,-0.388547,1.053715,0.147319,2.352551,-10.646972
1790543587.2465,-0.059199,-0.031404,-0.250926,-0.061674,-0.031619,-0.250926,-0.263208,-0.773430,1.036717,1.373815,0.902531,-12.160609
1790543587.2605,-0.055763,-0.028140,-0.235006,-0.057536,-0.029184,-0.235006,-0.424689,-0.455325,0.894662,2.102047,-0.770569,-11.151518
1790543587.2744,-0.049082,-0.022066,-0.219328,-0.051619,-0.024202,-0.219328,-0.605596,-0.853564,0.818172,3.596838,-0.361589,-7.503266
1790543587.2883,-0.040389,-0.011113,-0.205033,-0.043758,-0.015040,-0.205033,-0.898205,-0.956766,0.799959,2.753622,0.307651,-7.037532
1790543587.3024,-0.026150,0.002129,-0.190661,-0.031432,-0.003021,-0.190661,-1.031760,-1.238447,0.672474,1.527127,0.679451,-8.007811
1790543587.3165,-0.017385,0.014536,-0.179957,-0.021599,0.009269,-0.179957,-0.978338,-0.910628,0.543775,3.251886,0.567911,-10.142427
1790543587.3304,-0.009372,0.027295,-0.175345,-0.013040,0.021887,-0.175345,-0.950413,-0.803784,0.324016,2.906934,1.646131,-10.724595
1790543587.3443,-0.005699,0.030284,-0.170727,-0.007902,0.027765,-0.170727,-0.292348,-0.193070,-0.228419,-0.465928,1.125611,-14.334035
1790543587.3583,-0.002231,0.024841,-0.181977,-0.003932,0.025718,-0.181977,0.416711,-0.002450,-0.789353,-1.577440,2.575631,-11.267951
1790543587.3725,0.006189,0.012694,-0.193220,0.003152,0.016601,-0.193220,0.838018,-0.329054,-1.044322,-1.117504,1.460231,-9.560259
1790543587.3873,0.011849,0.009481,-0.214585,0.009240,0.011617,-0.214585,0.353576,-0.366693,-0.522241,0.492271,1.683311,-3.932637
1790543587.4015,0.021694,-0.003000,-0.217590,0.017958,0.001385,-0.217590,0.818592,-0.556099,-0.629086,-0.925864,1.014071,-12.548721
1790543587.4156,0.036662,-0.015139,-0.234456,0.031051,-0.010182,-0.234456,0.876871,-0.795285,-1.190020,-1.922392,2.278191,-10.646972
1790543587.4297,0.047346,-0.024798,-0.260250,0.042458,-0.020413,-0.260250,0.723889,-0.516032,-1.478985,-0.695896,2.538451,-8.551168
1790543587.4435,0.049715,-0.029890,-0.291198,0.047538,-0.027047,-0.291198,0.551481,-0.059515,-1.199733,0.262303,2.426911,-4.398371
1790543587.4572,0.060077,-0.041312,-0.304076,0.056315,-0.037033,-0.304076,0.756671,-0.569454,-1.090460,-1.002520,0.679451,-8.046623
1790543587.4706,0.065637,-0.050452,-0.321498,0.062840,-0.046426,-0.321498,0.836804,-0.397046,-0.811207,0.722239,4.211551,-9.210958
1790543587.4837,0.034597,-0.047748,-0.325208,0.043070,-0.047352,-0.325208,-0.287491,2.333559,-0.790567,4.095102,1.571771,-19.845224
1790543587.4971,0.035219,-0.033615,-0.345587,0.037575,-0.037736,-0.345587,-1.082754,0.343580,-0.948405,-7.556605,2.129471,-15.770049
1790543587.5112,0.032313,-0.019810,-0.346785,0.033892,-0.025188,-0.346785,-1.201740,0.497776,-0.771140,-2.305671,-1.402628,-6.959909
1790543587.5251,0.019686,-0.004360,-0.354646,0.023947,-0.010608,-0.354646,-1.311013,1.255401,-0.718932,-1.692424,-0.696209,-4.281937
1790543587.5391,0.007127,0.011151,-0.366163,0.012173,0.004623,-0.366163,-1.175029,1.086635,-0.710433,-0.312616,0.344831,-4.010259
1790543587.5530,-0.010061,0.023385,-0.377839,-0.003391,0.017756,-0.377839,-0.905490,1.506728,-0.607231,-0.772552,0.605091,-4.126693
1790543587.5670,-0.011669,0.038935,-0.388645,-0.009185,0.032582,-0.388645,-0.934629,0.443140,-0.686151,-2.497311,4.025651,-7.658511
1790543587.5809,-0.006363,0.035458,-0.394985,-0.007210,0.034595,-0.394985,0.113176,-0.212497,-0.232061,-3.378855,-0.398769,-17.749420
1790543587.5947,-0.005726,0.039554,-0.388704,-0.006171,0.038066,-0.388704,-0.242568,-0.095939,0.324016,-0.197632,3.319231,-10.646972
1790543587.6087,-0.006608,0.033316,-0.378665,-0.006477,0.034741,-0.378665,0.410640,-0.166359,0.734396,1.527127,1.794851,-11.151518
1790543587.6227,-0.012370,0.015676,-0.381383,-0.010602,0.021395,-0.381383,0.923008,0.326582,0.315517,0.185647,-1.105189,-2.729490
1790543587.6375,-0.028166,0.006103,-0.380980,-0.022897,0.010691,-0.380980,0.725103,0.790385,0.366511,3.213558,2.352551,-6.727042
1790543587.6515,-0.044241,-0.006101,-0.377199,-0.037838,-0.001064,-0.377199,0.886584,0.976148,0.555917,2.063719,2.241011,-10.103616
1790543587.6654,-0.060637,-0.016111,-0.369976,-0.053797,-0.011597,-0.369976,0.783382,1.063567,0.758679,0.837223,3.133331,-9.715504
1790543587.6792,-0.068256,-0.023352,-0.359038,-0.063918,-0.019825,-0.359038,0.579406,0.479564,0.881307,-0.082648,3.207691,-9.599070
1790543587.6931,-0.070763,-0.027546,-0.346889,-0.068709,-0.025230,-0.346889,0.286798,0.072827,0.910446,0.377287,2.166651,-9.249770
1790543587.7071,-0.066209,-0.028367,-0.336082,-0.066959,-0.027426,-0.336082,0.080394,-0.376406,0.738038,-0.235960,3.356411,-11.927742
1790543587.7212,-0.052147,-0.028672,-0.322186,-0.056590,-0.028298,-0.322186,-0.126010,-1.079394,0.826670,-0.197632,0.084571,-13.053266
1790543587.7353,-0.048270,-0.022969,-0.307853,-0.050766,-0.024568,-0.307853,-0.479326,-0.540315,0.774462,3.635166,1.199971,-11.772497
1790543587.7494,-0.040857,-0.018509,-0.292225,-0.043829,-0.020326,-0.292225,-0.482968,-0.779501,0.735610,2.485326,-0.510309,-9.133336
1790543587.7638,-0.027923,-0.006223,-0.280508,-0.032695,-0.010454,-0.280508,-0.922488,-1.209307,0.586270,2.676966,0.679451,-6.765853
1790543587.7778,-0.014426,0.010390,-0.271540,-0.019907,0.004137,-0.271540,-1.233308,-1.273657,0.411434,3.558510,1.088431,-8.628791
1790543587.7918,-0.003429,0.025928,-0.262801,-0.008373,0.019390,-0.262801,-1.176243,-1.153457,0.276664,4.670021,0.753811,-8.357112
1790543587.8058,-0.004557,0.033198,-0.263176,-0.005701,0.029056,-0.263176,-0.520607,-0.146933,0.167391,3.481854,2.017931,-10.064805
1790543587.8197,-0.011165,0.029644,-0.264478,-0.009526,0.029468,-0.264478,0.179953,0.522059,-0.547738,2.063719,1.014071,-14.605714
1790543587.8337,0.006362,0.023806,-0.276623,0.001595,0.025504,-0.276623,0.462849,-0.841422,-1.158452,-4.107087,2.947431,-11.384385
1790543587.8477,0.003749,0.020597,-0.318872,0.003103,0.022069,-0.318872,0.477418,0.100752,-0.904696,2.332014,2.873071,-4.049070
1790543587.8617,0.004563,0.012564,-0.325493,0.004125,0.015416,-0.325493,0.583049,-0.072870,-0.609660,2.025391,1.906391,-9.249770
1790543587.8758,0.019605,0.002752,-0.335741,0.014961,0.006551,-0.335741,0.695964,-0.786786,-0.956904,-2.688951,2.166651,-12.005364
1790543587.8902,0.032271,-0.010479,-0.357114,0.027078,-0.005370,-0.357114,0.953362,-0.660515,-1.203375,-0.772552,2.575631,-10.258860
1790543587.9040,0.038754,-0.016822,-0.389739,0.035251,-0.013386,-0.389739,0.685037,-0.268347,-1.202161,-0.427600,4.025651,-6.455364
1790543587.9176,0.043850,-0.022944,-0.409263,0.041270,-0.020077,-0.409263,0.454350,-0.207640,-1.220373,-0.082648,1.608951,-7.231588
1790543587.9317,0.053247,-0.032737,-0.428342,0.049654,-0.028939,-0.428342,0.677752,-0.445612,-1.126884,-1.270816,1.460231,-8.163056
1790543587.9458,0.034023,-0.042017,-0.429302,0.038712,-0.038094,-0.429302,0.536911,1.422953,-0.994543,1.833751,0.158931,-15.304315
1790543587.9596,0.025782,-0.030652,-0.434471,0.029661,-0.032885,-0.434471,-0.872708,0.984647,-0.807565,-9.051396,1.571771,-17.594175
1790543587.9736,0.026337,-0.018783,-0.433246,0.027334,-0.023013,-0.433246,-0.968625,0.284087,-0.615730,-6.675061,-0.510309,-15.537182
1790543587.9874,0.024360,-0.005871,-0.435909,0.025252,-0.011014,-0.435909,-1.057257,0.456496,-0.609660,-2.190688,-0.175689,-5.717951
1790543588.0014,0.013136,0.011188,-0.440127,0.016771,0.004528,-0.440127,-1.309799,0.957936,-0.323122,-0.887536,0.270471,-6.106063
1790543588.0153,0.001155,0.024540,-0.449516,0.005840,0.018536,-0.449516,-0.978338,1.361031,-0.732288,-2.382327,0.605091,-3.699769
1790543588.0292,-0.018280,0.036188,-0.459404,-0.011044,0.030893,-0.459404,-0.731867,1.548009,-0.429967,-0.197632,2.203831,-5.873196
1790543588.0430,-0.009846,0.027292,-0.461374,-0.010205,0.028372,-0.461374,0.586691,-0.519675,-0.160427,-2.037376,2.203831,-21.281238
1790543588.0569,-0.010405,0.023990,-0.454817,-0.010345,0.025304,-0.454817,0.169026,-0.054658,0.514636,0.108991,1.720491,-17.400119
1790543588.0708,-0.014444,0.020438,-0.444436,-0.013215,0.021898,-0.444436,0.160527,0.207596,0.867951,-1.117504,0.642271,-10.220049
1790543588.0847,-0.009114,0.011476,-0.436818,-0.010344,0.014603,-0.436818,0.487131,-0.355765,0.541347,-1.385800,-0.398769,-6.688231
1790543588.0987,-0.027435,0.003607,-0.422688,-0.022308,0.006906,-0.422688,0.620687,0.804954,0.616624,4.056774,1.348691,-3.971448
1790543588.1126,-0.039800,-0.009463,-0.414977,-0.034553,-0.004553,-0.414977,0.938792,0.729678,0.719826,1.450471,2.203831,-11.035084
1790543588.1263,-0.056590,-0.020181,-0.405683,-0.049979,-0.015492,-0.405683,0.793095,1.011359,0.908018,2.063719,2.352551,-9.870749
1790543588.1404,-0.069869,-0.026553,-0.396175,-0.063902,-0.023235,-0.396175,0.505344,0.804954,0.935943,0.990535,3.728211,-10.918651
1790543588.1546,-0.070699,-0.033054,-0.385039,-0.068660,-0.030108,-0.385039,0.450707,-0.010949,0.903161,-0.159304,2.278191,-9.405014
1790543588.1687,-0.059556,-0.036728,-0.370427,-0.062287,-0.034742,-0.370427,0.161741,-0.905772,0.912875,0.453943,1.162791,-12.509909
1790543588.1828,-0.047534,-0.034351,-0.357382,-0.051960,-0.034469,-0.357382,-0.271707,-0.960408,0.750180,0.568927,0.605091,-11.267951
1790543588.1967,-0.046708,-0.029817,-0.337009,-0.048284,-0.031213,-0.337009,-0.518178,-0.455325,0.912875,5.168285,-1.142369,-9.482637
1790543588.2106,-0.041760,-0.023682,-0.320985,-0.043717,-0.025941,-0.320985,-0.608025,-0.648374,0.826670,2.485326,-0.473129,-7.348021
1790543588.2246,-0.028455,-0.014040,-0.313963,-0.033034,-0.017611,-0.313963,-0.708799,-1.148600,0.519493,2.332014,1.906391,-10.996273
1790543588.2383,-0.016444,0.000326,-0.308838,-0.021421,-0.005055,-0.308838,-1.125249,-1.203237,0.256024,5.704877,0.493551,-11.035084
1790543588.2522,-0.005580,0.017668,-0.307306,-0.010332,0.010851,-0.307306,-1.307371,-1.087893,0.073902,5.014973,0.939711,-9.870749
1790543588.2661,0.000480,0.030640,-0.301141,-0.002764,0.024703,-0.301141,-1.018405,-0.710295,0.094543,4.248414,0.493551,-9.599070
1790543588.2801,-0.012824,0.025986,-0.300634,-0.009806,0.025601,-0.300634,0.273442,1.016215,-0.296411,0.683911,1.348691,-13.945924
1790543588.2939,-0.005637,0.019048,-0.317235,-0.006888,0.021014,-0.317235,0.609760,-0.087440,-0.874343,-5.218598,3.876931,-10.569350
1790543588.3080,0.003143,0.014640,-0.321257,0.000134,0.016552,-0.321257,0.301368,-0.261062,-0.857345,-3.532167,1.534591,-9.754315
1790543588.3221,0.004637,0.009014,-0.333530,0.003286,0.011275,-0.333530,0.416711,0.019404,-0.762641,0.262303,2.241011,-10.879840
1790543588.3360,0.014012,0.002365,-0.345598,0.010794,0.005038,-0.345598,0.510200,-0.423757,-0.884056,-1.539112,2.092291,-8.822846
1790543588.3499,0.025354,-0.006988,-0.364412,0.020986,-0.003380,-0.364412,0.739673,-0.596166,-1.102601,-0.695896,2.129471,-7.192776
1790543588.3638,0.036177,-0.014938,-0.387878,0.031620,-0.011471,-0.387878,0.686251,-0.573097,-1.118385,-0.542584,2.241011,-5.679140
1790543588.3777,0.044179,-0.022108,-0.410097,0.040411,-0.018917,-0.410097,0.644970,-0.438327,-0.978759,-0.197632,2.947431,-6.882287
1790543588.3922,0.054921,-0.031611,-0.425665,0.050568,-0.027803,-0.425665,0.651041,-0.560955,-0.987258,-1.270816,1.906391,-9.831937
1790543588.4062,0.043803,-0.042645,-0.435518,0.045833,-0.038193,-0.435518,0.682608,0.917870,-0.903482,-0.389272,0.382011,-14.450469
1790543588.4202,0.026724,-0.029041,-0.456357,0.032457,-0.031786,-0.456357,-0.890920,1.353747,-0.896197,-0.389272,4.434631,-13.519000
1790543588.4341,0.022536,-0.015482,-0.451517,0.025513,-0.020374,-0.451517,-1.211453,0.577910,-0.836704,-2.037376,-1.700068,-7.658511
1790543588.4480,0.016748,-0.001927,-0.453443,0.019377,-0.007461,-0.453443,-1.179886,0.812239,-0.728646,-2.995575,-1.179549,-5.950818
1790543588.4618,0.008538,0.011249,-0.459913,0.011790,0.005636,-0.459913,-1.105823,0.860805,-0.587805,-2.037376,-0.547489,-8.124245
1790543588.4758,0.006007,0.024733,-0.466185,0.007742,0.019004,-0.466185,-1.074255,0.602193,-0.521027,-5.065286,-0.101329,-8.589979
1790543588.4897,0.008940,0.040040,-0.470080,0.008581,0.033729,-0.470080,-1.138605,0.097110,-0.514957,-3.072231,1.199971,-8.706413
1790543588.5037,0.018553,0.041238,-0.470655,0.015561,0.038985,-0.470655,-0.227998,-0.639875,0.147965,-2.343999,-0.398769,-14.023546
1790543588.5177,0.014285,0.036744,-0.472498,0.014668,0.037417,-0.472498,0.272228,-0.013377,0.773248,3.060246,1.385871,-12.082986
1790543588.5316,0.011232,0.032669,-0.459060,0.012263,0.034093,-0.459060,0.433709,0.016976,0.824242,0.530599,3.914111,-8.667602
1790543588.5457,0.010700,0.032852,-0.443912,0.011169,0.033225,-0.443912,0.039113,0.154174,0.422361,-2.688951,2.203831,-7.425644
1790543588.5599,0.002328,0.025659,-0.445896,0.004980,0.027929,-0.445896,0.473776,0.382433,0.450286,2.102047,1.460231,-9.870749
1790543588.5738,-0.012822,0.013011,-0.446398,-0.007481,0.017487,-0.446398,0.879299,0.824381,0.688258,3.136902,1.571771,-11.267951
1790543588.5874,-0.027684,0.006907,-0.438727,-0.021623,0.010081,-0.438727,0.589119,0.791599,0.883735,2.523654,3.765391,-7.852567
1790543588.6010,-0.035149,0.000966,-0.426337,-0.031091,0.003701,-0.426337,0.523556,0.383647,0.916517,0.607255,3.616671,-9.482637
1790543588.6150,-0.036560,-0.004453,-0.412230,-0.034919,-0.002007,-0.412230,0.359646,-0.048588,0.985723,0.147319,1.720491,-8.978091
1790543588.6292,-0.044634,-0.008455,-0.401120,-0.041720,-0.006521,-0.401120,0.209093,0.332653,0.955370,1.948735,1.051251,-9.754315
1790543588.6436,-0.043508,-0.011206,-0.385996,-0.042972,-0.009800,-0.385996,0.177525,-0.195499,0.965083,-0.159304,2.241011,-9.831937
1790543588.6576,-0.030579,-0.011778,-0.370989,-0.034297,-0.011184,-0.370989,-0.019166,-1.084251,0.916517,0.530599,2.017931,-14.528091
1790543588.6716,-0.022097,-0.003105,-0.361532,-0.025757,-0.005529,-0.361532,-0.684516,-0.915485,0.688258,4.899989,1.348691,-13.751868
1790543588.6855,-0.019752,0.009289,-0.354261,-0.021554,0.004844,-0.354261,-0.956484,-0.559741,0.548632,4.938317,0.790991,-8.706413
1790543588.6996,-0.013407,0.025271,-0.348211,-0.015851,0.019143,-0.348211,-1.187171,-0.858420,0.321587,5.321597,0.902531,-7.736133
1790543588.7136,0.001994,0.039788,-0.347451,-0.003359,0.033594,-0.347451,-1.029332,-1.319794,0.062975,1.757095,1.237151,-5.407462
1790543588.7276,-0.003990,0.039112,-0.354960,-0.003801,0.037457,-0.354960,0.110747,0.344794,-0.001374,2.140375,4.062831,-12.781588
1790543588.7415,-0.011269,0.035664,-0.374492,-0.009029,0.036202,-0.374492,0.385143,0.689611,-0.616944,-0.312616,5.289771,-12.277042
1790543588.7556,-0.001687,0.032724,-0.387186,-0.003889,0.033768,-0.387186,0.220020,-0.467467,-1.035823,-0.159304,2.389731,-11.733686
1790543588.7695,-0.008311,0.031711,-0.396167,-0.006984,0.032328,-0.396167,0.171454,0.404287,-1.095316,2.906934,1.832031,-4.631238
1790543588.7836,-0.003865,0.023997,-0.395524,-0.004801,0.026496,-0.395524,0.468919,-0.187000,-0.725003,0.223975,0.456371,-7.580888
1790543588.7974,0.009605,0.017919,-0.402760,0.005284,0.020492,-0.402760,0.408212,-0.671442,-1.011541,-2.075704,1.385871,-10.181238
1790543588.8115,0.021991,0.008863,-0.416670,0.016978,0.012352,-0.416670,0.646184,-0.696939,-1.073462,-0.159304,1.869211,-9.521448
1790543588.8252,0.027302,0.005498,-0.439668,0.024205,0.007554,-0.439668,0.306224,-0.253778,-1.210660,0.952207,2.761531,-8.900469
1790543588.8388,0.031766,0.002736,-0.457956,0.029498,0.004181,-0.457956,0.203022,-0.114151,-1.180306,-0.389272,2.129471,-9.793126
1790543588.8529,0.031283,0.002565,-0.479607,0.030747,0.003050,-0.479607,0.042755,0.220952,-1.131741,-0.044320,2.538451,-9.327392
1790543588.8668,0.029361,0.002735,-0.498651,0.029777,0.002829,-0.498651,0.009974,0.314441,-1.028539,-0.120976,2.501271,-9.948371
1790543588.8811,0.026402,0.004398,-0.519311,0.027415,0.003927,-0.519311,-0.083515,0.429784,-0.973902,-1.040848,2.687171,-10.064805
1790543588.8958,0.015395,0.008430,-0.541107,0.019001,0.007079,-0.541107,-0.164863,0.887516,-0.706791,-0.120976,4.546171,-11.345574
1790543588.9100,0.009500,0.014329,-0.547182,0.012350,0.012154,-0.547182,-0.464756,0.718750,-0.608445,-4.030431,1.385871,-12.587532
1790543588.9241,0.000547,0.025839,-0.558278,0.004088,0.021733,-0.558278,-0.770720,0.774601,-0.325550,-1.117504,2.835891,-10.530539
1790543588.9382,0.007477,0.023290,-0.552941,0.006461,0.022823,-0.552941,0.097392,-0.287774,-0.174997,-3.148887,0.530731,-10.258860
1790543588.9524,-0.000729,0.019694,-0.530150,0.001428,0.020633,-0.530150,0.246731,0.268304,0.520707,3.558510,1.720491,-8.939280
1790543588.9663,-0.009094,0.010624,-0.508412,-0.005938,0.013627,-0.508412,0.525984,0.389718,0.778105,1.220503,-0.026969,-9.172147
1790543588.9803,-0.011629,0.002506,-0.490450,-0.009922,0.005842,-0.490450,0.487131,0.031546,0.864309,0.108991,0.419191,-8.434735
1790543588.9943,-0.014047,-0.001596,-0.481088,-0.012810,0.000635,-0.481088,0.243089,0.138390,0.520707,-0.657568,1.051251,-10.103616
1790543589.0082,-0.026363,-0.005203,-0.471111,-0.022297,-0.003451,-0.471111,0.224877,0.671399,0.700400,1.910407,1.237151,-9.055714
1790543589.0221,-0.038899,-0.017031,-0.455353,-0.033918,-0.012957,-0.455353,0.770027,0.666542,0.951727,1.833751,0.642271,-8.939280
1790543589.0360,-0.049550,-0.029452,-0.444688,-0.044860,-0.024504,-0.444688,0.884156,0.495348,1.209125,1.948735,1.943571,-8.667602
1790543589.0496,-0.062176,-0.034563,-0.441660,-0.056981,-0.031545,-0.441660,0.430067,0.798884,1.178772,0.262303,2.798711,-8.434735
1790543589.0650,-0.068674,-0.039897,-0.429217,-0.065166,-0.037392,-0.429217,0.306224,0.302300,1.094996,0.338959,1.683311,-8.784035
1790543589.0797,-0.066749,-0.042136,-0.421083,-0.066274,-0.040713,-0.421083,0.139887,-0.239208,0.866737,0.837223,2.761531,-12.393476
1790543589.0942,-0.059622,-0.045068,-0.403172,-0.061617,-0.043761,-0.403172,0.088893,-0.596166,0.866737,0.683911,0.716631,-15.110259
1790543589.1091,-0.057012,-0.041027,-0.381747,-0.058394,-0.041847,-0.381747,-0.394336,-0.411616,0.695543,4.401726,0.010211,-13.363756
1790543589.1237,-0.051138,-0.032590,-0.359120,-0.053315,-0.035367,-0.359120,-0.729439,-0.648374,0.694329,3.213558,-0.398769,-9.909560
1790543589.1386,-0.044322,-0.016507,-0.349047,-0.047020,-0.022165,-0.349047,-1.156817,-0.741863,0.535276,3.098574,0.567911,-7.270399
1790543589.1524,-0.027639,-0.001239,-0.331438,-0.033453,-0.007517,-0.331438,-1.232094,-1.392643,0.336157,1.297159,0.047391,-5.756762
1790543589.1665,-0.011526,0.011494,-0.320802,-0.018105,0.005791,-0.320802,-0.985623,-1.404784,0.415076,2.561982,0.567911,-8.240679
1790543589.1806,0.004356,0.026644,-0.326406,-0.002382,0.020388,-0.326406,-1.042688,-1.357433,0.231741,2.561982,2.278191,-9.133336
1790543589.1944,-0.001886,0.027963,-0.321695,-0.002035,0.025691,-0.321695,-0.197645,0.308370,-0.210207,5.398253,0.567911,-16.002917
1790543589.2083,-0.002801,0.025456,-0.334807,-0.002571,0.025527,-0.334807,0.195737,0.176029,-0.743215,0.913879,2.575631,-12.354665
1790543589.2223,0.008451,0.024530,-0.348535,0.005144,0.024829,-0.348535,0.081608,-0.398260,-1.151167,-2.995575,1.906391,-8.822846
1790543589.2361,0.012856,0.025060,-0.399384,0.010543,0.024991,-0.399384,0.227305,-0.225852,-0.661868,0.223975,2.835891,-4.398371
1790543589.2500,0.011287,0.015368,-0.399521,0.011064,0.018255,-0.399521,0.660754,0.133534,-0.354690,0.952207,1.757671,-12.432287
1790543589.2640,0.027357,0.004239,-0.412505,0.022469,0.008444,-0.412505,0.838018,-0.845065,-0.836704,-3.685479,2.910251,-11.384385
1790543589.2776,0.036010,-0.003488,-0.436728,0.031947,0.000092,-0.436728,0.651041,-0.508747,-0.962975,0.223975,3.728211,-11.384385
1790543589.2913,0.036798,-0.006244,-0.468501,0.035343,-0.004343,-0.468501,0.365717,0.032760,-1.020040,0.760567,3.282051,-6.688231
1790543589.3053,0.037870,-0.007970,-0.490793,0.037112,-0.006882,-0.490793,0.154456,0.127463,-0.977545,-0.734224,1.832031,-7.153965
1790543589.3192,0.042923,-0.012657,-0.508278,0.041180,-0.010924,-0.508278,0.340220,-0.140862,-0.909553,-1.270816,1.571771,-7.580888
1790543589.3332,0.039521,-0.021001,-0.514875,0.040019,-0.017978,-0.514875,0.557552,0.367863,-0.529526,-1.385800,1.683311,-14.217602
1790543589.3472,0.020550,-0.013123,-0.532210,0.026391,-0.014580,-0.532210,-0.526677,1.509157,-0.514957,-1.922392,4.174371,-17.400119
1790543589.3612,0.016452,0.001050,-0.522299,0.019434,-0.003639,-0.522299,-1.070613,0.649544,-0.547738,-6.406766,1.311511,-13.014455
1790543589.3751,0.011797,0.011844,-0.494164,0.014088,0.007199,-0.494164,-0.981981,0.654401,-0.438466,-2.727279,-1.030829,-6.222497
1790543589.3892,0.006045,0.026814,-0.501854,0.008458,0.020929,-0.501854,-1.071827,0.641045,-0.371688,-1.079176,0.753811,-4.126693
1790543589.4037,-0.003031,0.036869,-0.507539,0.000415,0.032087,-0.507539,-0.750079,0.859591,-0.433609,-0.925864,0.456371,-4.320748
1790543589.4177,-0.001254,0.033230,-0.509961,-0.000753,0.032887,-0.509961,0.198166,-0.085012,-0.678866,2.523654,1.460231,-15.110259
1790543589.4318,-0.006527,0.026853,-0.497535,-0.004795,0.028663,-0.497535,0.409426,0.146889,0.603268,2.676966,1.832031,-13.324944
1790543589.4458,-0.017836,0.017291,-0.478905,-0.013924,0.020702,-0.478905,0.556338,0.617976,0.847311,1.143847,0.121751,-13.480189
1790543589.4597,-0.023809,0.005815,-0.461560,-0.020843,0.010282,-0.461560,0.697178,0.333867,0.753822,-0.197632,0.010211,-7.542077
1790543589.4737,-0.041112,-0.004818,-0.464373,-0.035031,-0.000288,-0.464373,0.805237,0.944581,0.593555,2.523654,1.571771,-5.834385
1790543589.4876,-0.059149,-0.017433,-0.461282,-0.051914,-0.012290,-0.461282,0.932722,1.047783,0.849739,2.408670,2.129471,-8.201867
1790543589.5012,-0.074934,-0.028287,-0.455777,-0.068028,-0.023488,-0.455777,0.797952,1.006502,0.977224,0.990535,2.092291,-8.628791
1790543589.5149,-0.090629,-0.037087,-0.453222,-0.083848,-0.033007,-0.453222,0.671681,1.068423,1.036717,0.108991,2.947431,-9.560259
1790543589.5286,-0.097192,-0.046426,-0.449909,-0.093189,-0.042401,-0.449909,0.705677,0.386075,1.000293,0.568927,3.282051,-10.258860
1790543589.5425,-0.092036,-0.049954,-0.437621,-0.092382,-0.047688,-0.437621,0.172669,-0.492964,0.946871,1.450471,2.129471,-13.868301
1790543589.5565,-0.077035,-0.049333,-0.422835,-0.081639,-0.048840,-0.422835,-0.161220,-1.134031,0.682188,0.415615,0.753811,-13.519000
1790543589.5704,-0.069930,-0.048264,-0.394350,-0.073443,-0.048437,-0.394350,-0.266851,-0.756432,0.701614,3.750150,-0.882109,-10.841028
1790543589.5843,-0.063854,-0.044021,-0.369340,-0.066731,-0.045346,-0.369340,-0.482968,-0.703010,0.818172,2.255358,-0.361589,-6.455364
1790543589.5982,-0.048587,-0.034046,-0.354370,-0.054030,-0.037436,-0.354370,-0.812001,-1.257873,0.636050,1.527127,0.642271,-9.366203
1790543589.6122,-0.035929,-0.019152,-0.338348,-0.041359,-0.024637,-0.338348,-1.205383,-1.175311,0.433288,4.171758,-0.361589,-10.763406
1790543589.6261,-0.021994,-0.000066,-0.336360,-0.027803,-0.007437,-0.336360,-1.428785,-1.282156,0.201387,4.248414,0.865351,-9.599070
1790543589.6401,-0.009260,0.018818,-0.334507,-0.014823,0.010942,-0.334507,-1.403288,-1.205665,0.155250,4.056774,0.902531,-8.706413
1790543589.6544,-0.004160,0.031500,-0.329689,-0.007359,0.025333,-0.329689,-0.929772,-0.463824,0.014409,2.446998,1.832031,-13.674245
1790543589.6685,-0.009807,0.023095,-0.326252,-0.009073,0.023766,-0.326252,0.546624,0.715108,-0.523456,-4.720334,1.608951,-14.644525
1790543589.6825,0.006638,0.016585,-0.336617,0.001925,0.018740,-0.336617,0.482275,-0.812283,-0.972688,-4.835318,3.058971,-14.489280
1790543589.6965,0.006611,0.012898,-0.352828,0.005205,0.014651,-0.352828,0.295297,0.029118,-0.636371,1.642111,2.464091,-10.802217
1790543589.7106,0.011120,0.005018,-0.358205,0.009346,0.007908,-0.358205,0.551481,-0.087440,-0.637585,-2.114032,1.683311,-10.064805
1790543589.7246,0.027752,-0.009225,-0.362895,0.022230,-0.004085,-0.362895,0.969146,-0.889988,-0.947191,-2.343999,0.902531,-8.512357
1790543589.7383,0.037630,-0.018518,-0.399048,0.033010,-0.014188,-0.399048,0.846517,-0.508747,-1.062535,-0.772552,2.687171,-5.717951
1790543589.7519,0.044151,-0.027920,-0.419619,0.040809,-0.023801,-0.419619,0.733602,-0.316913,-0.981187,-0.580912,2.166651,-8.163056
1790543589.7659,0.056000,-0.037097,-0.437033,0.051443,-0.033108,-0.437033,0.669253,-0.667800,-0.987258,-1.079176,1.720491,-7.969000
1790543589.7799,0.063444,-0.043229,-0.469581,0.059843,-0.040193,-0.469581,0.627972,-0.460182,-0.904696,0.223975,5.512851,-10.142427
1790543589.7939,0.026706,-0.039830,-0.478827,0.036647,-0.039939,-0.478827,-0.293562,2.618883,-0.757785,3.980118,2.501271,-19.845224
1790543589.8077,0.028495,-0.025054,-0.486263,0.030941,-0.029519,-0.486263,-1.104609,0.265875,-0.862201,-9.664644,2.055111,-18.215154
1790543589.8219,0.021363,-0.008264,-0.482445,0.024236,-0.014641,-0.482445,-1.341367,0.832880,-0.632728,-3.417183,-0.659029,-8.279490
1790543589.8359,0.018241,0.007196,-0.474890,0.020040,0.000645,-0.474890,-1.319512,0.560912,-0.497959,-3.225543,-1.439808,-6.959909
1790543589.8497,0.006370,0.023544,-0.484333,0.010471,0.016674,-0.484333,-1.198098,0.927583,-0.529526,0.453943,1.051251,-5.795574
1790543589.8638,-0.006982,0.034335,-0.493453,-0.001746,0.029037,-0.493453,-0.808358,1.242046,-0.592662,-1.424128,0.679451,-5.679140
1790543589.8778,-0.000605,0.033452,-0.503479,-0.000947,0.032127,-0.503479,0.149600,-0.274418,-0.514957,-1.692424,4.285911,-12.199420
1790543589.8921,0.003547,0.025343,-0.498023,0.002198,0.027378,-0.498023,0.479847,-0.276846,0.107898,-1.270816,0.976891,-19.495924
1790543589.9064,-0.003591,0.026840,-0.488628,-0.001854,0.027001,-0.488628,-0.121154,0.326582,0.729539,0.798895,2.092291,-11.772497
1790543589.9205,-0.000787,0.023363,-0.476002,-0.001107,0.024455,-0.476002,0.187238,-0.245279,0.691901,-1.117504,0.790991,-7.464455
1790543589.9347,-0.007325,0.013920,-0.468104,-0.005459,0.017081,-0.468104,0.579406,0.514774,0.462428,-0.542584,0.121751,-2.535434
1790543589.9487,-0.021338,0.002786,-0.465766,-0.016574,0.007074,-0.465766,0.773669,0.794027,0.578986,2.178703,1.385871,-9.405014
1790543589.9624,-0.035904,-0.006293,-0.459374,-0.030105,-0.002283,-0.459374,0.683822,0.889944,0.816957,1.182175,2.315371,-9.599070
1790543589.9760,-0.051215,-0.013449,-0.452942,-0.044882,-0.010099,-0.452942,0.591548,0.989504,0.915303,0.530599,2.984611,-8.861658
1790543589.9896,-0.055967,-0.016769,-0.442995,-0.052641,-0.014768,-0.442995,0.294083,0.256162,1.007578,-0.350944,3.393591,-9.987182
1790543590.0036,-0.052548,-0.018067,-0.430207,-0.052576,-0.017077,-0.430207,0.085250,-0.318127,0.969939,-0.695896,2.389731,-9.676693
1790543590.0176,-0.042008,-0.018184,-0.413024,-0.045178,-0.017852,-0.413024,-0.107798,-0.932483,1.025790,0.913879,0.865351,-13.441378
1790543590.0315,-0.034011,-0.010101,-0.400162,-0.037362,-0.012426,-0.400162,-0.629879,-0.847493,0.863095,2.945262,1.720491,-11.306763
1790543590.0454,-0.029178,-0.002683,-0.386312,-0.031633,-0.005606,-0.386312,-0.651734,-0.706653,0.857024,4.171758,0.196111,-10.220049
1790543590.0593,-0.022975,0.006982,-0.373696,-0.025572,0.003205,-0.373696,-0.793788,-0.750362,0.747751,2.370342,0.419191,-7.580888
1790543590.0732,-0.012324,0.017423,-0.365173,-0.016298,0.013157,-0.365173,-0.815643,-1.005332,0.461214,1.757095,0.790991,-7.115154
1790543590.0870,-0.006069,0.026596,-0.364200,-0.009138,0.022564,-0.364200,-0.652948,-0.654444,0.265737,2.293686,1.980751,-8.978091
1790543590.1010,-0.010182,0.023322,-0.373910,-0.009869,0.023095,-0.373910,0.277085,0.174815,-0.219920,5.014973,4.174371,-16.080539
1790543590.1148,-0.001555,0.021700,-0.390885,-0.004049,0.022119,-0.390885,0.179953,-0.343624,-1.105030,-1.347472,3.133331,-11.306763
1790543590.1288,0.013213,0.013478,-0.404390,0.008034,0.016070,-0.404390,0.603689,-0.704224,-1.193662,-1.692424,1.460231,-6.843476
1790543590.1429,0.013600,0.006152,-0.408730,0.011930,0.009128,-0.408730,0.466491,-0.019448,-0.550167,0.990535,0.642271,-6.765853
1790543590.1572,0.016839,-0.004813,-0.413450,0.015367,-0.000631,-0.413450,0.698392,-0.024305,-0.751714,-1.845736,0.939711,-13.751868
1790543590.1713,0.030130,-0.014862,-0.425630,0.025701,-0.010593,-0.425630,0.704463,-0.771002,-1.018825,-1.002520,2.575631,-15.964105
1790543590.1853,0.036143,-0.017305,-0.458586,0.033011,-0.015291,-0.458586,0.351147,-0.292630,-1.292007,0.453943,3.096151,-5.717951
1790543590.1991,0.036495,-0.018222,-0.479645,0.035449,-0.017343,-0.479645,0.101034,0.115322,-1.202161,0.300631,1.906391,-7.076343
1790543590.2127,0.039889,-0.019780,-0.498665,0.038557,-0.019049,-0.498665,0.148386,-0.085012,-1.091674,-0.235960,1.720491,-6.610609
1790543590.2267,0.043777,-0.025614,-0.513463,0.042211,-0.023644,-0.513463,0.393642,-0.061943,-0.975116,-1.577440,1.608951,-9.870749
1790543590.2405,0.049767,-0.033512,-0.528440,0.047500,-0.030552,-0.528440,0.607331,-0.254992,-0.791781,-1.462456,2.241011,-9.055714
1790543590.2545,0.036261,-0.033523,-0.543971,0.039633,-0.032631,-0.543971,0.171454,1.057496,-0.457892,-0.695896,5.438491,-11.112707
1790543590.2685,0.017890,-0.025827,-0.555446,0.024413,-0.027869,-0.555446,-0.558245,1.539510,-0.449393,-4.682006,2.687171,-17.632987
1790543590.2825,0.010225,-0.012292,-0.561778,0.014481,-0.016965,-0.561778,-0.983195,0.836522,-0.403255,-4.796990,1.683311,-12.199420
1790543590.2964,0.004649,-0.001180,-0.558233,0.007598,-0.005915,-0.558233,-0.893348,0.736962,-0.286698,-2.765607,-0.064149,-5.291028
1790543590.3104,-0.002851,0.014492,-0.563053,0.000284,0.008370,-0.563053,-0.975910,0.787956,-0.287912,-1.424128,1.869211,-4.049070
1790543590.3245,-0.011854,0.026968,-0.572319,-0.008213,0.021389,-0.572319,-0.894562,0.879017,-0.275771,-1.117504,0.716631,-4.049070
1790543590.3385,-0.011779,0.025554,-0.576369,-0.010709,0.024304,-0.576369,0.062182,0.055829,-0.173783,-0.465928,2.464091,-19.379490
1790543590.3523,-0.010015,0.021948,-0.563921,-0.010223,0.022655,-0.563921,0.246731,-0.329054,0.537705,2.025391,2.241011,-11.927742
1790543590.3663,-0.020648,0.018475,-0.543214,-0.017521,0.019729,-0.543214,0.186024,0.423714,0.920159,4.401726,1.534591,-13.751868
1790543590.3802,-0.018683,0.011876,-0.533756,-0.018334,0.014232,-0.533756,0.414283,-0.228281,0.740466,-0.350944,0.679451,-5.601518
1790543590.3945,-0.031864,0.002382,-0.520782,-0.027805,0.005937,-0.520782,0.811307,0.744247,0.614196,0.760567,1.869211,-3.855014
1790543590.4088,-0.048158,-0.010982,-0.510166,-0.042052,-0.005906,-0.510166,0.937578,0.967649,0.695543,1.757095,2.129471,-10.025993
1790543590.4225,-0.063852,-0.023299,-0.500850,-0.057312,-0.018081,-0.500850,0.913295,1.025928,0.852167,0.798895,2.241011,-9.443825
1790543590.4362,-0.080189,-0.032474,-0.490663,-0.073326,-0.028156,-0.490663,0.723889,1.065995,0.922588,0.990535,3.319231,-9.831937
1790543590.4498,-0.082149,-0.039740,-0.480961,-0.079502,-0.036265,-0.480961,0.608546,0.071613,0.973582,-0.044320,4.806431,-11.617252
1790543590.4638,-0.071142,-0.041843,-0.470714,-0.073650,-0.040170,-0.470714,0.090107,-0.852350,0.874022,-0.120976,2.017931,-12.121798
1790543590.4777,-0.060188,-0.040482,-0.455250,-0.064227,-0.040388,-0.455250,-0.235283,-0.933697,0.729539,1.603783,0.047391,-11.733686
1790543590.4915,-0.060166,-0.043259,-0.418796,-0.061384,-0.042398,-0.418796,-0.064089,-0.378834,0.767178,5.858189,-2.778288,-9.987182
1790543590.5056,-0.052346,-0.036641,-0.399515,-0.055057,-0.038368,-0.399515,-0.555817,-0.849921,0.795103,2.753622,0.642271,-7.270399
1790543590.5195,-0.043650,-0.027561,-0.383165,-0.047072,-0.030803,-0.383165,-0.812001,-0.832923,0.498852,3.098574,-0.807749,-11.384385
1790543590.5334,-0.029171,-0.011345,-0.372146,-0.034541,-0.017182,-0.372146,-1.230880,-1.237233,0.337371,3.098574,1.014071,-11.811308
1790543590.5473,-0.016074,0.009278,-0.366623,-0.021614,0.001340,-0.366623,-1.574482,-1.243303,0.138252,4.171758,0.344831,-8.473546
1790543590.5611,-0.001903,0.029770,-0.362503,-0.007817,0.021241,-0.362503,-1.544128,-1.334364,0.129753,3.060246,0.530731,-6.183686
1790543590.5751,-0.001176,0.035546,-0.368313,-0.003168,0.031255,-0.368313,-0.346984,-0.119008,0.045977,0.760567,2.315371,-7.192776
1790543590.5890,-0.016398,0.026972,-0.392218,-0.012429,0.028257,-0.392218,0.704463,1.370745,-0.535597,-2.458983,3.467951,-10.646972
1790543590.6029,-0.002511,0.021105,-0.413699,-0.005487,0.023251,-0.413699,0.453135,-0.598594,-1.140240,-4.567022,2.910251,-13.907112
1790543590.6169,0.004808,0.022122,-0.431714,0.001720,0.022461,-0.431714,0.036685,-0.397046,-0.893769,0.492271,2.575631,-6.804665
1790543590.6309,0.009423,0.014677,-0.443987,0.007112,0.017012,-0.443987,0.525984,-0.035232,-0.471247,-2.957247,1.348691,-8.007811
1790543590.6448,0.020993,0.004153,-0.461311,0.016829,0.008011,-0.461311,0.774883,-0.499034,-0.885270,-2.957247,1.943571,-8.900469
1790543590.6588,0.034584,-0.007600,-0.478574,0.029257,-0.002917,-0.478574,0.885370,-0.703010,-0.927765,-2.075704,2.389731,-8.706413
1790543590.6725,0.037970,-0.009577,-0.492136,0.035356,-0.007579,-0.492136,0.368145,-0.114151,-0.925337,-0.044320,4.211551,-6.455364
1790543590.6866,0.039557,-0.013777,-0.506024,0.038297,-0.011917,-0.506024,0.300154,0.040045,-0.852488,-0.657568,2.203831,-10.646972
1790543590.7005,0.050066,-0.019556,-0.521572,0.046535,-0.017264,-0.521572,0.382715,-0.518461,-0.791781,-2.497311,1.385871,-10.025993
1790543590.7145,0.030210,-0.025526,-0.529683,0.035107,-0.023047,-0.529683,0.288012,1.537082,-0.620587,-0.542584,-0.547489,-14.139979
1790543590.7286,0.013893,-0.013030,-0.544862,0.020257,-0.016035,-0.544862,-0.787718,1.454520,-0.419039,-6.406766,5.550031,-15.226693
1790543590.7425,0.010127,0.002233,-0.550949,0.013166,-0.003247,-0.550949,-1.139819,0.712680,-0.403255,-6.636734,0.790991,-8.706413
1790543590.7565,0.004644,0.013040,-0.560387,0.007200,0.008154,-0.560387,-0.938271,0.781886,-0.422682,-4.107087,-0.993649,-7.076343
1790543590.7705,-0.002699,0.023614,-0.571500,0.000271,0.018976,-0.571500,-0.795003,0.741819,-0.324336,-1.002520,0.530731,-4.281937
1790543590.7845,-0.008476,0.031641,-0.575372,-0.005852,0.027842,-0.575372,-0.504823,0.633760,-0.327979,-1.270816,1.646131,-5.213406
1790543590.7985,0.003252,0.029735,-0.580276,0.000521,0.029167,-0.580276,0.139887,-0.757647,-0.565950,0.453943,2.873071,-14.217602
1790543590.8124,-0.000040,0.027523,-0.552806,0.000128,0.028016,-0.552806,0.217592,-0.087440,0.629979,5.014973,4.248731,-14.101168
1790543590.8264,-0.008294,0.022872,-0.536952,-0.005767,0.024415,-0.536952,0.330507,0.350865,1.014863,1.412143,2.984611,-14.411658
1790543590.8403,-0.008558,0.010597,-0.527315,-0.007720,0.014743,-0.527315,0.740887,-0.159074,1.092568,-0.235960,-0.138509,-7.736133
1790543590.8543,-0.021115,-0.001743,-0.523987,-0.017097,0.003202,-0.523987,0.649826,0.784314,0.831527,-0.005993,-1.179549,-5.834385
1790543590.8682,-0.041247,-0.011662,-0.508736,-0.034002,-0.007203,-0.508736,0.720247,1.201979,0.865523,2.561982,2.129471,-9.987182
1790543590.8818,-0.050063,-0.023139,-0.497960,-0.045244,-0.018358,-0.497960,0.846517,0.577910,0.846097,-0.312616,2.389731,-10.841028
1790543590.8957,-0.062106,-0.029915,-0.480574,-0.057047,-0.026448,-0.480574,0.540554,0.695682,0.887378,1.680439,3.319231,-10.491728
1790543590.9097,-0.065935,-0.038675,-0.467433,-0.063269,-0.035007,-0.467433,0.600047,0.202740,1.000293,-0.389272,2.352551,-11.073895
1790543590.9240,-0.059363,-0.042934,-0.453631,-0.060535,-0.040556,-0.453631,0.215164,-0.598594,0.884949,1.182175,1.199971,-12.082986
1790543590.9381,-0.054801,-0.043977,-0.443451,-0.056521,-0.042951,-0.443451,-0.010667,-0.439541,0.690687,1.258831,0.790991,-12.277042
1790543590.9521,-0.050971,-0.047000,-0.425412,-0.052636,-0.045785,-0.425412,0.008759,-0.582810,0.679759,4.516709,-1.774428,-9.793126
1790543590.9659,-0.038592,-0.042442,-0.410127,-0.042805,-0.043445,-0.410127,-0.438045,-1.160742,0.660333,2.868606,0.084571,-8.318301
1790543590.9799,-0.029214,-0.036837,-0.398683,-0.033291,-0.038819,-0.398683,-0.593455,-0.898487,0.493996,2.791950,-1.476988,-9.210958
1790543590.9939,-0.023259,-0.023932,-0.389219,-0.026269,-0.028398,-0.389219,-1.037831,-0.734578,0.413862,4.861661,-0.324409,-10.258860
1790543591.0077,-0.010716,-0.005234,-0.383699,-0.015382,-0.012183,-0.383699,-1.429999,-1.118247,0.139466,3.098574,0.493551,-9.831937
1790543591.0215,0.003245,0.016459,-0.381662,-0.002343,0.007866,-0.381662,-1.620619,-1.199594,-0.086364,3.098574,0.902531,-9.405014
1790543591.0354,0.003963,0.030366,-0.378546,0.002071,0.023616,-0.378546,-1.141033,-0.160289,-0.174997,3.443526,-0.510309,-14.334035
1790543591.0493,-0.005260,0.026259,-0.385841,-0.003061,0.025466,-0.385841,0.227305,0.865661,-0.725003,-1.040848,1.423051,-18.603266
1790543591.0632,0.018261,0.022347,-0.396730,0.011864,0.023283,-0.396730,0.271014,-1.289441,-1.250727,-6.061814,3.207691,-18.253966
1790543591.0772,0.011836,0.019417,-0.414047,0.011844,0.020577,-0.414047,0.235804,0.389718,-0.570807,2.255358,1.683311,-6.921098
1790543591.0911,0.017178,0.014308,-0.417874,0.015578,0.016189,-0.417874,0.337792,-0.157860,-0.556237,-2.305671,1.497411,-10.375294
1790543591.1049,0.035846,0.002615,-0.424643,0.029766,0.006687,-0.424643,0.851374,-1.103677,-0.772355,-2.650623,2.241011,-10.879840
1790543591.1186,0.044704,-0.009195,-0.439426,0.040223,-0.004430,-0.439426,0.904796,-0.449254,-1.013969,-0.695896,1.869211,-6.688231
1790543591.1323,0.052898,-0.013364,-0.462790,0.049095,-0.010684,-0.462790,0.504129,-0.407974,-1.016397,-0.619240,3.207691,-5.213406
1790543591.1471,0.058415,-0.020232,-0.477111,0.055619,-0.017368,-0.477111,0.478632,-0.259848,-0.881627,-0.120976,2.203831,-8.551168
1790543591.1621,0.066623,-0.027106,-0.493545,0.063322,-0.024184,-0.493545,0.513843,-0.359408,-0.892555,-1.539112,2.798711,-8.434735
1790543591.1769,0.053262,-0.029146,-0.509974,0.056280,-0.027658,-0.509974,0.285584,1.038070,-0.618159,-1.500784,6.144910,-11.888930
1790543591.1919,0.034395,-0.015949,-0.527755,0.040961,-0.019462,-0.527755,-0.884849,1.577149,-0.612088,-7.134997,3.430771,-16.429840
1790543591.2072,0.026312,0.002748,-0.540035,0.030706,-0.003915,-0.540035,-1.279445,0.792813,-0.468819,-4.375383,1.051251,-12.160609
1790543591.2212,0.023747,0.013221,-0.547563,0.025834,0.008080,-0.547563,-0.911560,0.495348,-0.400827,-2.918919,-0.696209,-6.649420
1790543591.2351,0.014687,0.027142,-0.552023,0.018031,0.021424,-0.552023,-0.901847,0.899657,-0.393542,-1.232488,1.683311,-4.204315
1790543591.2492,0.000011,0.038840,-0.554638,0.005417,0.033615,-0.554638,-0.724582,1.097563,-0.395971,0.415615,1.906391,-4.708860
1790543591.2630,-0.006816,0.046181,-0.569338,-0.003146,0.042411,-0.569338,-0.605596,0.876589,-0.363189,-7.441621,1.051251,-14.605714
1790543591.2770,0.001627,0.036906,-0.568344,0.000195,0.038557,-0.568344,0.541768,-0.669014,0.336157,-0.542584,0.307651,-18.719700
1790543591.2910,-0.006516,0.032006,-0.556905,-0.004503,0.033971,-0.556905,0.317152,0.338724,0.870380,2.178703,2.501271,-15.731238
1790543591.3050,-0.011952,0.030149,-0.546554,-0.009717,0.031295,-0.546554,0.144743,0.237950,0.702828,0.262303,1.497411,-6.183686
1790543591.3190,-0.024751,0.017894,-0.534106,-0.020241,0.021915,-0.534106,0.844089,0.632546,0.716184,1.603783,0.828171,-5.291028
1790543591.3330,-0.038697,0.004224,-0.523282,-0.033160,0.009531,-0.523282,0.950934,0.767316,0.730753,1.872079,1.460231,-8.240679
1790543591.3467,-0.054176,-0.006748,-0.509245,-0.047871,-0.001864,-0.509245,0.835590,0.926369,0.949299,1.565455,2.761531,-9.482637
1790543591.3603,-0.069025,-0.017304,-0.494664,-0.062679,-0.012672,-0.494664,0.831948,0.928797,0.988151,0.952207,3.282051,-9.249770
1790543591.3744,-0.077007,-0.022373,-0.478223,-0.072709,-0.019463,-0.478223,0.397285,0.404287,1.030646,1.143847,3.467951,-9.987182
1790543591.3884,-0.061333,-0.025493,-0.463584,-0.064746,-0.023684,-0.463584,0.104677,-1.234804,1.035503,-0.159304,1.348691,-13.014455
1790543591.4025,-0.046932,-0.018148,-0.445700,-0.052277,-0.019809,-0.445700,-0.575243,-1.221449,0.926230,1.757095,2.055111,-12.044175
1790543591.4170,-0.046855,-0.016173,-0.423317,-0.048482,-0.017264,-0.423317,-0.419833,-0.380048,0.972368,4.171758,-2.592388,-8.706413
1790543591.4310,-0.039006,-0.011615,-0.407492,-0.041849,-0.013310,-0.407492,-0.470827,-0.790428,0.893448,1.987063,-0.026969,-10.996273
1790543591.4451,-0.024050,0.005006,-0.394801,-0.029390,-0.000489,-0.394801,-1.245449,-1.310081,0.572915,2.178703,0.976891,-8.357112
1790543591.4591,-0.015590,0.026586,-0.385925,-0.019730,0.018463,-0.385925,-1.568411,-0.979835,0.399292,5.704877,1.720491,-9.987182
1790543591.4731,-0.004479,0.042879,-0.374529,-0.009054,0.035554,-0.374529,-1.279445,-1.135245,0.309446,4.708349,0.196111,-9.909560
1790543591.4870,-0.012879,0.047806,-0.373072,-0.011732,0.044130,-0.373072,-0.340913,0.318083,0.398078,2.945262,1.869211,-7.425644
1790543591.5009,-0.016327,0.041391,-0.384134,-0.014948,0.042213,-0.384134,0.510200,0.475922,-0.466391,-2.305671,3.579491,-12.898021
1790543591.5150,-0.004691,0.034760,-0.395460,-0.007768,0.036996,-0.395460,0.464063,-0.557313,-1.004256,-1.347472,2.055111,-12.082986
1790543591.5291,-0.007236,0.035981,-0.419054,-0.007396,0.036285,-0.419054,0.143529,0.157817,-0.693435,1.910407,3.467951,-5.174595
1790543591.5429,-0.001375,0.030328,-0.421461,-0.003181,0.032115,-0.421461,0.343863,-0.213711,-0.421468,-2.267343,0.939711,-10.879840
1790543591.5570,0.017523,0.017769,-0.433742,0.011312,0.022073,-0.433742,0.886584,-0.974978,-0.918052,-3.953775,1.943571,-10.491728
1790543591.5709,0.035478,0.001661,-0.449418,0.028228,0.007785,-0.449418,1.187691,-0.973764,-1.060106,-2.305671,2.129471,-8.318301
1790543591.5845,0.044043,-0.003768,-0.465805,0.039298,-0.000302,-0.465805,0.612188,-0.474751,-0.982401,-0.235960,3.951291,-6.300119
1790543591.5982,0.046947,-0.008052,-0.481438,0.044652,-0.005727,-0.481438,0.332935,-0.040089,-1.055250,-0.350944,2.241011,-8.512357
1790543591.6121,0.053540,-0.013480,-0.496503,0.050874,-0.011154,-0.496503,0.374216,-0.270776,-0.938692,-1.462456,2.017931,-10.297672
1790543591.6260,0.055628,-0.016700,-0.509630,0.054202,-0.015036,-0.509630,0.374216,0.002406,-0.740787,-1.500784,6.033370,-12.471098
1790543591.6400,0.041686,-0.021781,-0.514704,0.045441,-0.019758,-0.514704,0.229733,1.052639,-0.689793,0.913879,-0.175689,-14.372847
1790543591.6540,0.036398,-0.007673,-0.532559,0.039111,-0.011299,-0.532559,-0.973482,0.693253,-0.580520,-5.486894,3.505131,-12.936833
1790543591.6685,0.025922,0.003841,-0.542054,0.029879,-0.000701,-0.542054,-0.977124,1.028356,-0.408112,-3.877119,-1.328269,-8.861658
1790543591.6825,0.021242,0.016898,-0.549161,0.023833,0.011618,-0.549161,-1.053615,0.696896,-0.341334,-3.877119,-0.212869,-6.882287
1790543591.6965,0.013230,0.029503,-0.559495,0.016411,0.024137,-0.559495,-0.956484,0.784314,-0.357118,-1.615768,0.753811,-7.037532
1790543591.7106,0.005555,0.044924,-0.562288,0.008812,0.038688,-0.562288,-1.043902,0.838950,-0.280627,-2.803935,2.241011,-6.959909
1790543591.7244,0.007609,0.046830,-0.570361,0.007970,0.044387,-0.570361,-0.282635,0.018190,-0.060867,-3.608823,-0.324409,-14.023546
1790543591.7384,0.005449,0.043152,-0.565298,0.006205,0.043522,-0.565298,0.173883,-0.013377,0.673689,0.530599,0.902531,-13.092077
1790543591.7523,-0.011330,0.034979,-0.548741,-0.006070,0.037542,-0.548741,0.653469,0.943367,0.728325,2.830278,3.765391,-11.345574
1790543591.7662,-0.014506,0.023356,-0.544058,-0.011975,0.027612,-0.544058,0.777311,0.199097,0.578986,-0.887536,0.939711,-7.619700
1790543591.7804,-0.027565,0.012264,-0.531928,-0.022888,0.016868,-0.531928,0.743315,0.645902,0.655476,2.753622,1.088431,-8.318301
1790543591.7943,-0.040953,0.000729,-0.519740,-0.035534,0.005571,-0.519740,0.825877,0.760031,0.844883,1.412143,1.869211,-8.745224
1790543591.8079,-0.052609,-0.009602,-0.500721,-0.047487,-0.005050,-0.500721,0.806451,0.616762,1.050073,1.527127,2.724351,-8.201867
1790543591.8216,-0.057148,-0.016969,-0.483038,-0.054250,-0.013393,-0.483038,0.550267,0.145675,1.087711,0.837223,2.464091,-8.706413
1790543591.8355,-0.066064,-0.024000,-0.465934,-0.062519,-0.020818,-0.465934,0.462849,0.445568,1.172701,0.875551,1.608951,-7.813756
1790543591.8495,-0.072111,-0.031341,-0.452440,-0.069233,-0.028184,-0.452440,0.447065,0.302300,1.059786,0.492271,1.274331,-9.366203
1790543591.8636,-0.056276,-0.034686,-0.434549,-0.060163,-0.032736,-0.434549,0.149600,-1.312509,1.024576,2.178703,2.352551,-17.982287
1790543591.8774,-0.044508,-0.024749,-0.421692,-0.049205,-0.027145,-0.421692,-0.828999,-1.053897,0.612981,3.060246,0.344831,-13.014455
1790543591.8913,-0.041451,-0.013029,-0.407125,-0.043777,-0.017264,-0.407125,-1.057257,-0.537887,0.526777,4.631693,-1.811608,-9.831937
1790543591.9059,-0.036727,0.004347,-0.395235,-0.038842,-0.002136,-0.395235,-1.290373,-0.655659,0.422361,4.440053,0.196111,-8.240679
1790543591.9204,-0.026159,0.022019,-0.386454,-0.029964,0.014772,-0.386454,-1.328011,-1.057540,0.218385,3.405198,0.121751,-6.144874
1790543591.9347,-0.016474,0.033263,-0.375834,-0.020521,0.027716,-0.375834,-0.887277,-1.062396,0.450286,3.941790,0.307651,-7.115154
1790543591.9487,-0.005473,0.046778,-0.377502,-0.009987,0.041059,-0.377502,-0.865423,-1.010188,0.229313,2.217030,2.947431,-7.192776
1790543591.9627,-0.014812,0.041861,-0.368915,-0.013364,0.041621,-0.368915,0.193309,0.582766,-0.063296,3.098574,-0.770569,-14.528091
1790543591.9767,-0.017528,0.038764,-0.387025,-0.016279,0.039621,-0.387025,0.345077,0.354508,-0.646084,-0.082648,5.029511,-12.548721
1790543591.9906,-0.010526,0.036912,-0.398127,-0.012252,0.037725,-0.398127,0.147172,-0.302343,-0.898625,-0.159304,1.794851,-8.745224
1790543592.0045,-0.014489,0.028788,-0.403746,-0.013818,0.031469,-0.403746,0.532055,0.313227,-0.667938,1.795423,0.790991,-8.434735
1790543592.0185,-0.001718,0.020162,-0.411979,-0.005348,0.023554,-0.411979,0.606117,-0.590095,-0.846417,-2.305671,1.274331,-8.124245
1790543592.0321,0.007796,0.008925,-0.424145,0.003853,0.013314,-0.424145,0.835590,-0.472323,-1.003042,-0.734224,1.571771,-8.434735
1790543592.0457,0.014063,0.001122,-0.440867,0.011000,0.004780,-0.440867,0.624329,-0.356980,-1.041894,0.952207,2.241011,-8.628791
1790543592.0593,0.023161,-0.003495,-0.458995,0.019513,-0.001013,-0.458995,0.413069,-0.471109,-1.023682,-0.619240,2.724351,-8.822846
1790543592.0732,0.034611,-0.007261,-0.474464,0.030082,-0.005387,-0.474464,0.305010,-0.596166,-0.949619,-1.424128,2.278191,-8.939280
1790543592.0872,0.040965,-0.011542,-0.489450,0.037700,-0.009695,-0.489450,0.345077,-0.279275,-0.852488,-1.155832,2.835891,-10.646972
1790543592.1012,0.025419,-0.011220,-0.505287,0.029104,-0.010763,-0.505287,-0.027665,1.346462,-0.765070,-2.650623,2.761531,-14.217602
1790543592.1152,0.017849,-0.001859,-0.517321,0.021225,-0.004530,-0.517321,-0.693015,0.855948,-0.660654,-5.333582,2.166651,-14.916203
1790543592.1292,0.011511,0.009314,-0.526904,0.014425,0.005161,-0.526904,-0.854496,0.786742,-0.609660,-3.877119,0.828171,-9.870749
1790543592.1431,0.006131,0.019911,-0.531896,0.008619,0.015486,-0.531896,-0.724582,0.779457,-0.291554,-2.650623,1.125611,-4.087881
1790543592.1570,-0.005794,0.033078,-0.537772,-0.001470,0.027800,-0.537772,-0.824142,1.046569,-0.244203,-1.232488,2.426911,-5.756762
1790543592.1714,-0.010690,0.040167,-0.543637,-0.007924,0.036457,-0.543637,-0.455043,0.529344,-0.171354,-1.769080,2.055111,-7.425644
1790543592.1853,-0.003168,0.036027,-0.542793,-0.004595,0.036156,-0.542793,0.222448,-0.553671,0.109113,-0.389272,1.348691,-15.187882
1790543592.1993,-0.008812,0.033659,-0.530646,-0.007547,0.034408,-0.530646,0.116818,0.142033,0.785390,2.446998,1.683311,-12.781588
1790543592.2132,-0.013537,0.025006,-0.519846,-0.011740,0.027826,-0.519846,0.511414,0.131105,0.870380,0.952207,0.382011,-11.267951
1790543592.2272,-0.029031,0.011454,-0.506884,-0.023844,0.016366,-0.506884,0.936364,0.746676,0.564416,3.251886,0.865351,-5.989630
1790543592.2412,-0.044265,0.000541,-0.499939,-0.038139,0.005288,-0.499939,0.822235,0.892373,0.563202,1.948735,2.241011,-7.930189
1790543592.2552,-0.060997,-0.012987,-0.490489,-0.054139,-0.007505,-0.490489,0.952148,1.008930,0.782961,2.140375,2.129471,-10.957462
1790543592.2688,-0.073713,-0.023860,-0.481407,-0.067841,-0.018953,-0.481407,0.812521,0.814667,0.881307,0.760567,2.798711,-10.452916
1790543592.2824,-0.085298,-0.032963,-0.470020,-0.080061,-0.028760,-0.470020,0.648612,0.699324,0.965083,1.373815,2.315371,-10.220049
1790543592.2962,-0.082239,-0.041725,-0.457604,-0.081585,-0.037835,-0.457604,0.527198,-0.275632,0.962654,-0.389272,1.125611,-10.957462
1790543592.3103,-0.073073,-0.045316,-0.445014,-0.075626,-0.043072,-0.445014,0.118032,-0.750362,0.734396,0.952207,0.158931,-12.238231
1790543592.3244,-0.070425,-0.049789,-0.427479,-0.071985,-0.047774,-0.427479,0.075537,-0.411616,0.810887,3.366870,-2.183408,-11.694875
1790543592.3384,-0.064305,-0.051251,-0.410757,-0.066609,-0.050208,-0.410757,-0.136938,-0.699368,0.795103,3.290214,-1.811608,-9.210958
1790543592.3523,-0.064742,-0.045476,-0.399802,-0.065302,-0.046895,-0.399802,-0.586170,-0.245279,0.674903,3.980118,-0.882109,-9.599070
1790543592.3663,-0.058489,-0.031722,-0.390766,-0.060533,-0.036274,-0.390766,-1.131320,-0.677513,0.473355,3.405198,-0.547489,-9.715504
1790543592.3802,-0.049969,-0.014552,-0.383036,-0.053138,-0.021069,-0.383036,-1.409359,-0.876632,0.355583,4.133430,-0.993649,-9.987182
1790543592.3940,-0.042063,0.005941,-0.384979,-0.045386,-0.002162,-0.384979,-1.572054,-0.840208,0.094543,4.133430,0.233291,-8.512357
1790543592.4081,-0.032411,0.029351,-0.386399,-0.036303,0.019897,-0.386399,-1.744462,-0.955552,0.010767,4.286742,0.344831,-8.318301
1790543592.4229,-0.016977,0.051014,-0.378623,-0.022775,0.041679,-0.378623,-1.568411,-1.152243,-0.071795,2.063719,0.642271,-10.530539
1790543592.4371,-0.023007,0.047053,-0.379265,-0.022937,0.045440,-0.379265,0.238232,0.492920,-0.287912,0.722239,2.278191,-16.391028
1790543592.4511,-0.024769,0.040301,-0.388767,-0.024219,0.041843,-0.388767,0.530841,0.349651,-0.692221,-1.500784,4.620531,-17.982287
1790543592.4650,-0.027147,0.040404,-0.401163,-0.026268,0.040836,-0.401163,0.023329,0.319298,-0.751714,0.530599,1.943571,-8.822846
1790543592.4790,-0.026102,0.049407,-0.421341,-0.026152,0.046836,-0.421341,-0.501180,0.099538,-0.674009,-0.082648,1.683311,-3.932637
1790543592.4927,-0.020697,0.042120,-0.399802,-0.022333,0.043535,-0.399802,0.319580,0.009691,-0.808779,-3.302199,-1.625708,-9.482637
1790543592.5064,-0.007071,0.034673,-0.419417,-0.011649,0.037332,-0.419417,0.698392,-0.710295,-0.979973,-1.040848,2.724351,-6.106063
1790543592.5201,-0.002831,0.026901,-0.439631,-0.005477,0.030030,-0.439631,0.658325,-0.115365,-1.021254,0.147319,2.389731,-7.153965
1790543592.5341,0.005101,0.022493,-0.462975,0.001928,0.024754,-0.462975,0.467705,-0.295058,-1.040680,-1.079176,3.505131,-7.619700
1790543592.5481,0.012460,0.014960,-0.483496,0.009300,0.017898,-0.483496,0.648612,-0.288988,-1.040680,-1.002520,4.211551,-10.996273
1790543592.5620,0.013226,0.012391,-0.510837,0.012049,0.014043,-0.510837,0.428853,0.186956,-0.893769,-1.347472,5.698751,-8.434735
1790543592.5760,-0.002463,0.010408,-0.522918,0.001891,0.011499,-0.522918,0.173883,1.260258,-0.510100,-0.465928,3.096151,-13.169700
1790543592.5899,-0.001644,0.018463,-0.524781,-0.000584,0.016374,-0.524781,-0.540033,0.241592,-0.267272,-5.793518,3.282051,-12.859210
1790543592.6037,-0.001010,0.023513,-0.518153,-0.000882,0.021371,-0.518153,-0.429546,0.195455,0.064189,-4.835318,0.902531,-10.996273
1790543592.6178,-0.004932,0.034443,-0.516598,-0.003717,0.030521,-0.516598,-0.689372,0.537843,0.118826,-3.340527,2.501271,-6.377742
1790543592.6317,-0.004820,0.045490,-0.515466,-0.004489,0.040999,-0.515466,-0.683302,0.251306,0.069046,-2.612295,2.203831,-4.980539
1790543592.6456,-0.002196,0.038650,-0.508812,-0.002884,0.039355,-0.508812,0.449493,-0.331483,0.383509,0.913879,1.348691,-9.249770
1790543592.6595,-0.008104,0.033630,-0.496875,-0.006538,0.035347,-0.496875,0.358432,0.179671,0.819386,1.872079,2.649991,-12.199420
1790543592.6739,-0.014732,0.026904,-0.484481,-0.012274,0.029437,-0.484481,0.366931,0.332653,1.000293,-1.232488,0.753811,-13.247322
1790543592.6879,-0.020097,0.017847,-0.473126,-0.017750,0.021324,-0.473126,0.529626,0.235522,0.916517,-0.120976,0.270471,-10.569350
1790543592.7019,-0.030806,0.008498,-0.463536,-0.026889,0.012346,-0.463536,0.529626,0.600978,0.846097,0.453943,-0.064149,-7.076343
1790543592.7158,-0.043670,0.000555,-0.452512,-0.038635,0.004092,-0.452512,0.585477,0.780672,0.909232,0.415615,2.129471,-8.357112
1790543592.7298,-0.053366,-0.008895,-0.440234,-0.048947,-0.004999,-0.440234,0.644970,0.583980,0.952941,-0.082648,1.385871,-7.076343
1790543592.7437,-0.062830,-0.015828,-0.427552,-0.058665,-0.012579,-0.427552,0.447065,0.518417,1.010006,1.105519,1.906391,-11.656063
1790543592.7576,-0.069436,-0.021193,-0.414380,-0.066205,-0.018609,-0.414380,0.312295,0.331439,1.001507,0.722239,1.608951,-10.996273
1790543592.7717,-0.074490,-0.025779,-0.401245,-0.072004,-0.023628,-0.401245,0.284370,0.237950,0.949299,0.530599,1.832031,-9.288581
1790543592.7857,-0.059959,-0.031668,-0.387847,-0.063573,-0.029256,-0.387847,0.188452,-1.101249,0.858238,-0.580912,-1.439808,-11.694875
1790543592.7996,-0.050005,-0.022098,-0.377042,-0.054075,-0.024246,-0.377042,-0.716083,-0.974978,0.678545,3.251886,1.906391,-10.064805
1790543592.8136,-0.040534,-0.015518,-0.366368,-0.044596,-0.018136,-0.366368,-0.623809,-0.932483,0.677331,3.711822,-0.473129,-12.859210
1790543592.8277,-0.034713,-0.003996,-0.358189,-0.037678,-0.008238,-0.358189,-0.940700,-0.778287,0.492781,4.440053,-0.212869,-7.697322
1790543592.8417,-0.023869,0.011979,-0.352980,-0.028012,0.005914,-0.352980,-1.222381,-1.030828,0.291234,2.638638,0.530731,-7.309210
1790543592.8557,-0.011693,0.028320,-0.346829,-0.016588,0.021598,-0.346829,-1.277017,-1.180168,0.184389,3.405198,0.047391,-6.921098
1790543592.8697,-0.016356,0.028264,-0.336306,-0.016425,0.026264,-0.336306,-0.225570,0.186956,0.018052,4.248414,-3.001368,-14.877392
1790543592.8837,-0.016176,0.024906,-0.341916,-0.016251,0.025313,-0.341916,0.326865,0.288944,-0.646084,-3.263871,3.839751,-11.694875
1790543592.8978,-0.004814,0.022769,-0.352768,-0.008245,0.023532,-0.352768,0.175097,-0.439541,-1.271367,-2.727279,2.575631,-12.781588
1790543592.9121,-0.009302,0.023535,-0.389366,-0.008985,0.023534,-0.389366,0.111962,0.165101,-0.784496,3.328542,2.575631,-4.902916
1790543592.9267,-0.004723,0.016624,-0.386802,-0.006001,0.018697,-0.386802,0.428853,-0.089868,-0.474890,-1.385800,0.642271,-6.183686
1790543592.9409,0.009885,0.001752,-0.388040,0.005119,0.006836,-0.388040,0.991000,-0.732150,-0.879199,-3.187215,0.902531,-12.277042
1790543592.9546,0.019435,-0.009909,-0.405823,0.015140,-0.004886,-0.405823,0.941221,-0.489321,-1.164523,-0.504256,2.873071,-8.900469
1790543592.9683,0.025439,-0.015485,-0.429529,0.022349,-0.012305,-0.429529,0.549053,-0.279275,-1.243442,0.262303,3.356411,-7.658511
1790543592.9822,0.030889,-0.021491,-0.444588,0.028327,-0.018736,-0.444588,0.394857,-0.219782,-1.162094,-0.159304,1.051251,-8.085434
1790543592.9961,0.037286,-0.028677,-0.459887,0.034598,-0.025695,-0.459887,0.527198,-0.258634,-1.100173,-1.002520,1.906391,-9.249770
1790543593.0101,0.030367,-0.035650,-0.477024,0.031636,-0.032663,-0.477024,0.478632,0.676255,-1.129312,-0.887536,2.501271,-16.041728
1790543593.0239,0.023852,-0.024518,-0.486781,0.026187,-0.026962,-0.486781,-0.819285,0.736962,-0.797852,-2.957247,1.683311,-11.035084
1790543593.0377,0.020896,-0.013147,-0.487164,0.022484,-0.017292,-0.487164,-1.024475,0.478350,-0.633942,-2.688951,-1.625708,-9.249770
1790543593.0516,0.017036,-0.003883,-0.485574,0.018670,-0.007906,-0.485574,-0.939486,0.632546,-0.470033,-3.302199,-2.257768,-6.222497
1790543593.0655,0.005592,0.015708,-0.487971,0.009515,0.008624,-0.487971,-1.345009,1.022286,-0.326764,-1.155832,1.608951,-5.291028
1790543593.0794,-0.008545,0.025371,-0.497416,-0.003127,0.020347,-0.497416,-0.871494,1.351318,-0.472462,-2.803935,-0.993649,-7.580888
1790543593.0932,-0.016213,0.026970,-0.502197,-0.012287,0.024983,-0.502197,-0.200073,0.767316,-0.366831,-1.500784,0.344831,-8.434735
1790543593.1071,-0.005165,0.022114,-0.496311,-0.007302,0.022975,-0.496311,0.332935,-0.852350,0.256024,0.032335,2.873071,-15.847672
1790543593.1211,-0.008981,0.019476,-0.493146,-0.008477,0.020526,-0.493146,0.132602,0.048544,0.744109,1.565455,1.199971,-10.375294
1790543593.1350,-0.011142,0.014196,-0.484000,-0.010342,0.016095,-0.484000,0.305010,-0.024305,0.874022,0.415615,0.828171,-9.676693
1790543593.1490,-0.023542,0.006372,-0.497675,-0.019582,0.009289,-0.497675,0.719033,0.501419,0.534062,1.680439,1.385871,-2.496623
1790543593.1630,-0.039225,-0.002699,-0.496409,-0.033332,0.000897,-0.496409,0.646184,0.885088,0.672474,2.446998,1.832031,-9.016902
1790543593.1780,-0.052806,-0.017284,-0.487316,-0.046964,-0.011830,-0.487316,0.946077,0.752746,0.842454,1.182175,1.757671,-10.336483
1790543593.1918,-0.068431,-0.025832,-0.474787,-0.061991,-0.021631,-0.474787,0.689893,1.031999,0.929873,0.262303,3.579491,-9.793126
1790543593.2055,-0.075060,-0.031481,-0.459641,-0.071139,-0.028526,-0.459641,0.453135,0.390932,1.001507,0.108991,3.653851,-10.802217
1790543593.2198,-0.076608,-0.040491,-0.444168,-0.074967,-0.036902,-0.444168,0.592762,0.019404,0.979652,0.147319,2.389731,-11.578441
1790543593.2356,-0.064020,-0.040816,-0.430141,-0.067304,-0.039642,-0.430141,-0.043449,-0.909414,0.779319,1.067191,1.943571,-13.907112
1790543593.2502,-0.053836,-0.033768,-0.420235,-0.057876,-0.035530,-0.420235,-0.575243,-0.888774,0.716184,2.600310,0.865351,-12.199420
1790543593.2644,-0.049477,-0.027479,-0.410446,-0.051997,-0.029895,-0.410446,-0.608025,-0.605879,0.789032,3.443526,-0.621849,-8.939280
1790543593.2789,-0.044246,-0.018481,-0.402953,-0.046571,-0.021905,-0.402953,-0.778005,-0.673871,0.563202,3.865134,-0.696209,-8.201867
1790543593.2933,-0.031879,-0.006216,-0.396112,-0.036287,-0.010923,-0.396112,-0.934629,-0.968907,0.317945,0.952207,0.530731,-8.279490
1790543593.3073,-0.025076,0.009056,-0.396304,-0.028439,0.003062,-0.396304,-1.176243,-0.754004,0.190460,4.018446,0.456371,-9.405014
1790543593.3211,-0.016202,0.027767,-0.400920,-0.019873,0.020356,-0.400920,-1.353508,-0.893630,0.042335,4.555037,2.129471,-10.569350
1790543593.3353,-0.026158,0.031608,-0.406657,-0.024273,0.028232,-0.406657,-0.336057,0.660471,-0.355904,4.133430,1.125611,-16.391028
1790543593.3493,-0.020941,0.027152,-0.401065,-0.021941,0.027476,-0.401065,0.284370,0.080112,-1.188805,-4.030431,1.088431,-12.277042
1790543593.3634,-0.001707,0.021215,-0.401880,-0.007777,0.023093,-0.401880,0.556338,-0.847493,-1.236157,-4.068759,3.058971,-6.959909
1790543593.3774,-0.015434,0.012753,-0.419548,-0.013137,0.015855,-0.419548,0.629186,1.015001,-0.648512,1.182175,1.274331,-6.144874
1790543593.3913,-0.001055,0.008595,-0.421163,-0.004680,0.010773,-0.421163,0.306224,-0.692083,-0.916838,-3.033903,1.720491,-9.793126
1790543593.4052,0.012821,-0.001278,-0.430334,0.007571,0.002338,-0.430334,0.715390,-0.743077,-1.073462,-1.960720,2.426911,-13.829490
1790543593.4191,0.020318,-0.010928,-0.447645,0.016494,-0.006948,-0.447645,0.812521,-0.210068,-1.328432,-1.615768,2.910251,-7.309210
1790543593.4334,0.029877,-0.012281,-0.470533,0.025862,-0.010681,-0.470533,0.347505,-0.421329,-1.159666,-0.734224,2.984611,-4.049070
1790543593.4476,0.033536,-0.020358,-0.485950,0.031234,-0.017455,-0.485950,0.557552,-0.159074,-1.017611,0.453943,1.162791,-6.571797
1790543593.4616,0.042809,-0.028192,-0.498260,0.039337,-0.024971,-0.498260,0.603689,-0.393404,-0.994543,-2.458983,2.464091,-9.210958
1790543593.4756,0.027072,-0.032258,-0.512747,0.030751,-0.030072,-0.512747,0.260087,1.238403,-0.853702,0.108991,2.538451,-18.525644
1790543593.4897,0.021737,-0.017766,-0.524135,0.024442,-0.021458,-0.524135,-0.934629,0.628904,-0.720147,-3.915447,5.066691,-14.528091
1790543593.5038,0.013245,-0.008187,-0.532598,0.016604,-0.012168,-0.532598,-0.864209,0.803740,-0.432395,-2.037376,-1.402628,-9.288581
1790543593.5178,0.012880,0.002852,-0.538475,0.013997,-0.001654,-0.538475,-0.949199,0.512346,-0.397185,-4.183743,-0.844929,-4.398371
1790543593.5318,-0.002188,0.012427,-0.547196,0.002668,0.008202,-0.547196,-0.725797,1.188623,-0.359546,-0.197632,0.456371,-4.204315
1790543593.5458,-0.008179,0.021207,-0.542004,-0.004925,0.017306,-0.542004,-0.458685,0.704181,-0.306124,-1.500784,2.017931,-3.932637
1790543593.5597,-0.001680,0.019918,-0.538993,-0.002654,0.019134,-0.538993,0.116818,-0.426186,-0.009873,-1.462456,4.992331,-21.281238
1790543593.5735,0.003283,0.018228,-0.531464,0.001502,0.018500,-0.531464,0.093749,-0.462610,0.555917,-0.159304,1.832031,-12.160609
1790543593.5875,-0.003105,0.014222,-0.522864,-0.001723,0.015505,-0.522864,0.222448,0.188170,1.046430,1.872079,1.237151,-13.519000
1790543593.6015,-0.003846,0.005018,-0.519929,-0.003209,0.008164,-0.519929,0.491988,-0.122650,0.869165,0.300631,-0.696209,-8.706413
1790543593.6153,-0.014410,-0.001740,-0.514920,-0.011050,0.001231,-0.514920,0.477418,0.535415,0.734396,1.565455,1.274331,-7.542077
1790543593.6293,-0.030450,-0.013312,-0.509402,-0.024630,-0.008949,-0.509402,0.779740,1.006502,0.716184,0.837223,1.051251,-9.327392
1790543593.6431,-0.044214,-0.022843,-0.497246,-0.038338,-0.018675,-0.497246,0.711748,0.886302,0.872808,0.415615,2.315371,-9.948371
1790543593.6568,-0.056754,-0.029992,-0.483544,-0.051229,-0.026597,-0.483544,0.534483,0.770958,0.979652,1.028863,2.835891,-11.656063
1790543593.6705,-0.062846,-0.034166,-0.468082,-0.059361,-0.031895,-0.468082,0.309867,0.331439,0.969939,0.453943,2.687171,-10.802217
1790543593.6850,-0.053042,-0.035219,-0.452160,-0.054937,-0.034222,-0.452160,0.057325,-0.823210,0.887378,1.182175,2.798711,-12.626343
1790543593.6991,-0.044699,-0.032719,-0.445537,-0.047771,-0.033170,-0.445537,-0.272922,-0.750362,0.609339,1.948735,0.493551,-11.500819
1790543593.7131,-0.038634,-0.027840,-0.443280,-0.041375,-0.029439,-0.443280,-0.525463,-0.712723,0.665190,3.443526,-1.030829,-9.560259
1790543593.7272,-0.031086,-0.020226,-0.439845,-0.034173,-0.022990,-0.439845,-0.710013,-0.874204,0.637264,3.826806,-0.844929,-8.318301
1790543593.7412,-0.022125,-0.011554,-0.435399,-0.025739,-0.014984,-0.435399,-0.784075,-0.904558,0.473355,2.676966,-0.770569,-7.813756
1790543593.7553,-0.013853,0.003737,-0.433832,-0.017419,-0.001879,-0.433832,-1.139819,-0.808640,0.332515,2.408670,0.865351,-8.473546
1790543593.7691,-0.003084,0.022977,-0.432855,-0.007385,0.015520,-0.432855,-1.459138,-1.045398,0.207458,3.788478,0.865351,-10.142427
1790543593.7830,0.001614,0.036152,-0.434332,-0.001085,0.029962,-0.434332,-1.003835,-0.528174,0.028979,4.095102,1.423051,-13.441378
1790543593.7970,-0.001607,0.033073,-0.439698,-0.001451,0.032140,-0.439698,0.115604,0.343580,-0.667938,1.067191,0.419191,-17.012007
1790543593.8110,0.017773,0.027635,-0.439212,0.012006,0.028986,-0.439212,0.406998,-1.021115,-1.073462,-2.650623,2.092291,-8.745224
1790543593.8250,0.013244,0.025273,-0.468239,0.012873,0.026387,-0.468239,0.349933,0.139604,-0.791781,2.025391,1.646131,-2.613056
1790543593.8388,0.010154,0.016584,-0.472423,0.010969,0.019525,-0.472423,0.569693,0.262233,-0.394756,0.415615,0.642271,-6.416553
1790543593.8529,0.023870,0.012448,-0.471436,0.020000,0.014571,-0.471436,0.284370,-0.739434,-0.657011,-2.918919,2.278191,-12.548721
1790543593.8669,0.028288,0.000528,-0.479704,0.025801,0.004741,-0.479704,0.760313,-0.112937,-1.023682,-0.619240,0.530731,-10.608161
1790543593.8805,0.035784,-0.005183,-0.491879,0.032790,-0.002206,-0.491879,0.465277,-0.307200,-1.021254,-1.194160,2.203831,-7.619700
1790543593.8942,0.040476,-0.005117,-0.508968,0.038170,-0.004243,-0.508968,0.127745,-0.146933,-0.993328,-0.657568,2.947431,-6.455364
1790543593.9082,0.042511,-0.008648,-0.518787,0.041208,-0.007327,-0.518787,0.257659,0.075255,-0.836704,-1.577440,1.980751,-8.822846
1790543593.9225,0.048570,-0.013961,-0.525690,0.046361,-0.011971,-0.525690,0.348719,-0.195499,-0.797852,-2.535639,1.906391,-11.306763
1790543593.9371,0.050796,-0.015740,-0.536505,0.049466,-0.014609,-0.536505,0.211521,-0.091083,-0.528312,-0.159304,4.806431,-13.324944
1790543593.9512,0.033242,-0.009203,-0.546194,0.038109,-0.010825,-0.546194,-0.423475,1.367102,-0.419039,-1.309144,3.914111,-14.372847
1790543593.9652,0.030097,0.001033,-0.544633,0.032501,-0.002525,-0.544633,-0.737938,0.479564,-0.273342,-5.295254,2.426911,-13.713056
1790543593.9792,0.024506,0.008916,-0.540209,0.026904,0.005484,-0.540209,-0.629879,0.732106,-0.242989,-4.260399,0.493551,-7.852567
1790543593.9931,0.016703,0.020945,-0.537594,0.019764,0.016306,-0.537594,-0.746437,0.747890,0.005910,-1.539112,1.906391,-4.553616
1790543594.0071,0.010196,0.032250,-0.535327,0.013066,0.027467,-0.535327,-0.684516,0.699324,0.015624,-1.807408,1.869211,-4.126693
1790543594.0210,0.011526,0.025257,-0.530942,0.011988,0.025920,-0.530942,0.465277,-0.178501,0.375010,0.070663,2.389731,-17.632987
1790543594.0349,0.007621,0.022955,-0.518413,0.008931,0.023844,-0.518413,0.149600,0.027903,1.005149,1.220503,2.017931,-12.354665
1790543594.0489,-0.000086,0.015252,-0.504001,0.002619,0.017830,-0.504001,0.472562,0.240378,1.295329,1.527127,0.753811,-12.315854
1790543594.0627,-0.004267,0.008939,-0.490082,-0.002201,0.011606,-0.490082,0.366931,0.150532,1.131420,-0.504256,0.344831,-6.649420
1790543594.0767,-0.018861,0.002817,-0.474845,-0.013863,0.005454,-0.474845,0.575764,0.835308,1.045216,0.377287,1.608951,-3.544525
1790543594.0905,-0.033798,-0.006544,-0.461778,-0.027817,-0.002945,-0.461778,0.706891,0.849878,1.040360,1.488799,2.649991,-9.754315
1790543594.1042,-0.047993,-0.016516,-0.448005,-0.041941,-0.012445,-0.448005,0.702035,0.809811,1.142347,1.488799,1.757671,-9.482637
1790543594.1178,-0.059970,-0.024746,-0.433089,-0.054561,-0.021056,-0.433089,0.624329,0.710251,1.145990,0.760567,2.798711,-9.715504
1790543594.1318,-0.062371,-0.031872,-0.417012,-0.060028,-0.028627,-0.417012,0.489560,0.020619,1.120493,0.645583,2.612811,-11.073895
1790543594.1458,-0.055051,-0.033289,-0.402011,-0.056544,-0.031891,-0.402011,-0.002168,-0.700582,0.991794,1.565455,1.088431,-13.092077
1790543594.1598,-0.051201,-0.031216,-0.390244,-0.052804,-0.031418,-0.390244,-0.288705,-0.475966,0.827885,2.446998,-0.101329,-12.587532
1790543594.1737,-0.047428,-0.032587,-0.381355,-0.049041,-0.032237,-0.381355,-0.185503,-0.672657,0.844883,5.589893,-3.075728,-9.249770
1790543594.1881,-0.036711,-0.026489,-0.368740,-0.040410,-0.028214,-0.368740,-0.598312,-0.977406,0.745323,2.293686,-0.844929,-8.978091
1790543594.2022,-0.029966,-0.016639,-0.359215,-0.033099,-0.020111,-0.359215,-0.910346,-0.826853,0.716184,3.558510,-1.365448,-7.736133
1790543594.2162,-0.022074,-0.002134,-0.352976,-0.025381,-0.007527,-0.352976,-1.137391,-0.864491,0.595983,3.405198,0.270471,-9.288581
1790543594.2300,-0.010089,0.017845,-0.349680,-0.014677,0.010234,-0.349680,-1.512561,-1.137673,0.350727,3.251886,0.865351,-9.482637
1790543594.2440,0.000345,0.041196,-0.349468,-0.004162,0.031908,-0.349468,-1.739605,-1.018687,0.089686,3.865134,0.753811,-9.016902
1790543594.2579,-0.012562,0.044828,-0.350007,-0.010042,0.040952,-0.350007,-0.378552,0.942152,-0.320694,2.906934,0.307651,-19.069001
1790543594.2719,0.000874,0.023623,-0.346951,-0.002401,0.028821,-0.346951,1.468158,-0.588881,-0.977545,-5.793518,2.203831,-19.418301
1790543594.2860,-0.001208,0.027956,-0.376228,-0.001566,0.028216,-0.376228,0.041541,0.469851,-0.672795,-2.458983,5.587211,-5.174595
1790543594.2999,-0.003184,0.024552,-0.374811,-0.002699,0.025651,-0.374811,0.187238,0.381219,-0.479746,-2.075704,0.902531,-9.521448
1790543594.3139,0.011953,0.023232,-0.372165,0.007557,0.023958,-0.372165,0.014830,-0.841422,-0.632728,-2.765607,0.716631,-11.927742
1790543594.3279,0.016860,0.012834,-0.382866,0.014069,0.016171,-0.382866,0.682608,-0.121436,-1.044322,-0.734224,1.088431,-11.112707
1790543594.3416,0.027633,0.006074,-0.398810,0.023564,0.009103,-0.398810,0.678966,-0.472323,-1.024896,-1.730752,3.282051,-5.873196
1790543594.3553,0.030362,0.006107,-0.416863,0.028323,0.007006,-0.416863,0.118032,-0.030375,-0.998185,-0.082648,2.389731,-5.523895
1790543594.3694,0.029412,0.003341,-0.430976,0.029085,0.004440,-0.430976,0.238232,0.229451,-0.864629,-0.274288,2.092291,-7.386832
1790543594.3832,0.037606,-0.001405,-0.441080,0.035050,0.000349,-0.441080,0.365717,-0.349695,-0.841561,-2.075704,2.389731,-9.793126
1790543594.3972,0.043049,-0.006116,-0.450154,0.040650,-0.004176,-0.450154,0.362075,-0.176072,-0.711648,-2.382327,2.835891,-11.462007
1790543594.4112,0.031607,-0.004016,-0.459078,0.034320,-0.004064,-0.459078,-0.025237,0.888730,-0.354690,-0.312616,4.397451,-10.414105
1790543594.4254,0.022504,0.002473,-0.466994,0.026049,0.000512,-0.466994,-0.450186,0.889944,-0.395971,-4.337055,2.687171,-13.286133
1790543594.4403,0.016708,0.012318,-0.471569,0.019511,0.008776,-0.471569,-0.654162,0.632546,-0.184710,-4.107087,2.203831,-10.491728
1790543594.4543,0.010611,0.022264,-0.472447,0.013281,0.018218,-0.472447,-0.682087,0.774601,0.100614,-3.838791,1.311511,-5.252217
1790543594.4683,0.000174,0.036697,-0.463976,0.004106,0.031154,-0.463976,-0.807144,0.928797,0.247525,-1.999048,3.021791,-4.359560
1790543594.4823,0.005246,0.030162,-0.464952,0.004904,0.030459,-0.464952,0.343863,-0.384905,0.472141,-2.152360,0.010211,-15.770049
1790543594.4963,-0.000384,0.025621,-0.449050,0.001202,0.027072,-0.449050,0.300154,0.021833,1.101067,3.213558,1.794851,-11.035084
1790543594.5103,-0.008654,0.018162,-0.436042,-0.005697,0.020835,-0.436042,0.421568,0.299871,1.279545,1.182175,0.344831,-12.005364
1790543594.5245,-0.017963,0.012453,-0.420557,-0.014283,0.014967,-0.420557,0.428853,0.462566,1.056143,0.262303,1.906391,-7.192776
1790543594.5386,-0.028482,0.002374,-0.405788,-0.024222,0.006152,-0.405788,0.716604,0.500205,1.027004,1.412143,1.943571,-8.706413
1790543594.5524,-0.042342,-0.007899,-0.390671,-0.036906,-0.003684,-0.390671,0.738459,0.744247,1.075570,1.910407,2.166651,-9.599070
1790543594.5665,-0.057592,-0.017025,-0.374207,-0.051386,-0.013022,-0.374207,0.641327,0.847449,1.161774,1.565455,2.092291,-8.706413
1790543594.5807,-0.067641,-0.025877,-0.358106,-0.062765,-0.022021,-0.358106,0.607331,0.546342,1.139919,0.760567,2.538451,-10.375294
1790543594.5948,-0.072126,-0.031677,-0.341273,-0.069317,-0.028780,-0.341273,0.419139,0.155388,1.076784,0.990535,2.873071,-9.715504
1790543594.6088,-0.062104,-0.036720,-0.327180,-0.064268,-0.034338,-0.327180,0.254016,-0.828067,0.994222,0.300631,1.385871,-14.566903
1790543594.6230,-0.054659,-0.034157,-0.314752,-0.057542,-0.034211,-0.314752,-0.302061,-0.733364,0.733182,2.945262,0.270471,-12.626343
1790543594.6370,-0.054260,-0.032234,-0.304998,-0.055244,-0.032827,-0.304998,-0.356697,-0.354551,0.671260,5.244941,-2.071868,-10.724595
1790543594.6510,-0.037001,-0.021261,-0.293198,-0.042474,-0.024731,-0.293198,-0.960126,-1.523770,0.605697,2.638638,-0.621849,-7.076343
1790543594.6650,-0.031950,-0.008229,-0.285254,-0.035107,-0.013179,-0.285254,-1.133748,-0.774645,0.576557,4.133430,-1.216729,-6.144874
1790543594.6790,-0.024779,0.007231,-0.274989,-0.027877,0.001108,-0.274989,-1.238164,-0.785572,0.540133,2.791950,-0.212869,-8.395923
1790543594.6934,-0.012808,0.023795,-0.272498,-0.017329,0.016989,-0.272498,-1.229666,-1.186239,0.308232,4.823333,0.642271,-8.861658
1790543594.7074,-0.019133,0.036344,-0.270426,-0.018591,0.030537,-0.270426,-0.979552,0.223380,0.178319,5.091629,0.828171,-13.635434
1790543594.7214,-0.026519,0.036079,-0.269652,-0.024140,0.034416,-0.269652,-0.085944,0.625261,-0.455464,0.837223,0.196111,-16.468651
1790543594.7355,-0.016530,0.035042,-0.290446,-0.018813,0.034854,-0.290446,0.234590,-0.607093,-0.716504,0.683911,4.211551,-9.055714
1790543594.7495,-0.020067,0.027260,-0.289157,-0.019691,0.029539,-0.289157,0.473776,0.399431,-0.451821,-0.350944,0.344831,-7.115154
1790543594.7636,-0.009388,0.017800,-0.283704,-0.012479,0.021322,-0.283704,0.581834,-0.523317,-0.523456,-1.922392,0.233291,-8.589979
1790543594.7776,0.004398,0.006094,-0.286676,-0.000665,0.010663,-0.286676,0.795524,-0.800141,-0.714076,-1.117504,1.162791,-10.763406
1790543594.7913,0.009453,-0.004264,-0.301009,0.006418,0.000214,-0.301009,0.765170,-0.227066,-0.995757,0.300631,1.497411,-8.318301
1790543594.8049,0.017438,-0.009720,-0.316839,0.014132,-0.006740,-0.316839,0.461634,-0.380048,-1.029753,-0.619240,2.017931,-7.348021
1790543594.8186,0.025705,-0.014432,-0.328790,0.022233,-0.012125,-0.328790,0.343863,-0.417687,-0.987258,-0.695896,1.534591,-8.667602
1790543594.8326,0.031442,-0.020046,-0.339293,0.028679,-0.017670,-0.339293,0.394857,-0.259848,-0.814850,-0.695896,1.646131,-9.676693
1790543594.8466,0.041631,-0.026236,-0.345940,0.037745,-0.023666,-0.345940,0.445851,-0.512390,-0.660654,-2.573967,1.906391,-10.414105
1790543594.8614,0.027410,-0.023411,-0.352463,0.030510,-0.023487,-0.352463,-0.198859,1.006502,-0.278199,-0.197632,2.166651,-14.062357
1790543594.8756,0.021381,-0.009508,-0.352365,0.024120,-0.013702,-0.352365,-0.994122,0.624047,-0.090007,-5.410238,2.575631,-16.740329
1790543594.8896,0.015168,0.003915,-0.356401,0.017853,-0.001370,-0.356401,-1.149532,0.835308,0.054476,-4.988630,-1.514168,-5.562707
1790543594.9035,0.011734,0.013963,-0.353058,0.013570,0.009363,-0.353058,-0.881207,0.506275,0.050834,-2.458983,-0.547489,-5.174595
