t,imu_roll,imu_pitch,imu_yaw,lpf_roll,lpf_pitch,lpf_yaw,gyro_x,gyro_y,gyro_z,acc_x,acc_y,acc_z
1790543629.6749,0.016414,-0.044404,-0.008593,0.011490,-0.031082,-0.008593,0.025669,0.016047,-0.001034,-0.082648,1.274331,-9.909560
1790543629.6902,0.001309,-0.053421,-0.010520,0.004363,-0.046720,-0.010520,-0.008327,-0.004593,-0.002248,0.262303,1.088431,-10.025993
1790543629.7040,0.008547,-0.054067,-0.010872,0.007292,-0.051863,-0.010872,-0.027753,-0.007021,-0.003462,-0.120976,1.162791,-10.064805
1790543629.7177,0.003822,-0.051593,-0.010047,0.004863,-0.051674,-0.010047,-0.028968,-0.004593,0.001394,0.223975,1.274331,-10.064805
1790543629.7317,0.002877,-0.052588,-0.010300,0.003473,-0.052313,-0.010300,-0.048394,0.035474,0.013536,0.108991,1.199971,-10.685784
1790543629.7456,-0.000867,-0.049759,-0.009601,0.000435,-0.050526,-0.009601,-0.099388,0.082825,0.040247,0.262303,1.348691,-10.414105
1790543629.7600,0.000691,-0.049490,-0.009120,0.000614,-0.049801,-0.009120,-0.121242,0.139890,0.075457,-0.120976,1.162791,-10.258860
1790543629.7746,0.003272,-0.046305,-0.007154,0.002475,-0.047354,-0.007154,-0.198948,0.087682,0.131308,-0.197632,1.199971,-9.405014
1790543629.7886,0.003365,-0.044497,-0.005280,0.003098,-0.045354,-0.005280,-0.207446,0.080397,0.192015,-0.044320,1.162791,-9.793126
1790543629.8026,0.000316,-0.041910,-0.001475,0.001151,-0.042943,-0.001475,-0.198948,-0.009450,0.297645,0.338959,1.237151,-9.637881
1790543629.8165,-0.001994,-0.039632,0.004155,-0.001051,-0.040625,0.004155,-0.207446,-0.099296,0.436057,0.415615,1.237151,-9.754315
1790543629.8306,-0.005191,-0.036094,0.011904,-0.003949,-0.037453,0.011904,-0.168594,-0.140577,0.563542,0.607255,1.460231,-9.715504
1790543629.8446,-0.000151,-0.031575,0.020370,-0.001291,-0.033339,0.020370,-0.101816,-0.043446,0.647318,-0.465928,1.460231,-8.085434
1790543629.8586,0.000344,-0.022271,0.030609,-0.000147,-0.025591,0.030609,-0.168594,0.031831,0.570827,-0.159304,2.352551,-9.599070
1790543629.8729,0.004648,-0.024305,0.030680,0.003209,-0.024691,0.030680,-0.135812,-0.170931,0.414203,-0.350944,1.014071,-10.918651
1790543629.8868,0.003112,-0.025289,0.033592,0.003141,-0.025109,0.033592,-0.140669,-0.093225,0.298859,0.453943,1.125611,-10.957462
1790543629.9008,0.004464,-0.025901,0.036909,0.004067,-0.025663,0.036909,-0.028968,-0.138149,0.270934,0.070663,1.311511,-10.064805
1790543629.9147,0.006434,-0.026240,0.039977,0.005724,-0.026067,0.039977,-0.025325,-0.203712,0.223582,0.108991,1.274331,-9.482637
1790543629.9283,0.002591,-0.023163,0.043836,0.003531,-0.024034,0.043836,-0.082390,0.017261,0.165304,0.568927,1.534591,-8.279490
1790543629.9420,0.004963,-0.019972,0.045340,0.004533,-0.021191,0.045340,-0.044751,-0.115080,0.097312,-0.120976,1.869211,-9.210958
1790543629.9559,0.003301,-0.016536,0.049568,0.003671,-0.017933,0.049568,-0.145525,-0.096868,0.080314,0.645583,1.832031,-9.909560
1790543629.9699,0.004239,-0.011862,0.053168,0.004068,-0.013683,0.053168,-0.195305,-0.220710,0.107025,0.492271,2.129471,-10.491728
1790543629.9839,0.006040,-0.007147,0.058865,0.005448,-0.009108,0.058865,-0.222016,-0.355480,0.117952,0.722239,2.129471,-10.530539
1790543629.9979,0.010590,0.000402,0.059605,0.009047,-0.002451,0.059605,-0.376212,-0.406474,0.063316,0.223975,2.278191,-10.025993
1790543630.0120,0.004675,0.002423,0.071227,0.005986,0.000961,0.071227,-0.078747,0.009977,0.003823,1.718767,2.352551,-11.772497
1790543630.0263,-0.000033,-0.007067,0.056651,0.001773,-0.004659,0.056651,0.745655,0.578195,-0.208652,-0.772552,2.464091,-12.820399
1790543630.0403,0.005959,0.003515,-0.015808,0.004703,0.001063,-0.015808,0.564748,0.353579,-0.551040,-1.692424,4.769251,-5.873196
1790543630.0543,0.012490,-0.000301,-0.036689,0.010154,0.000108,-0.036689,0.422693,-0.186714,-0.881287,-0.389272,1.869211,-8.124245
1790543630.0682,0.027059,-0.001930,-0.052107,0.021988,-0.001319,-0.052107,0.306136,-0.795000,-0.933495,-0.427600,1.943571,-7.774944
1790543630.0822,0.034719,-0.004106,-0.096517,0.030899,-0.003270,-0.096517,0.103374,-0.021591,-1.227317,-1.654096,1.869211,-11.656063
1790543630.0961,0.024408,-0.008701,-0.112166,0.026356,-0.007071,-0.112166,-0.043537,0.863518,-1.193321,0.262303,0.233291,-12.393476
1790543630.1101,0.033575,-0.006666,-0.150356,0.031409,-0.006788,-0.150356,-0.273010,-0.134506,-1.285596,-1.730752,1.423051,-11.500819
1790543630.1240,0.032357,-0.006219,-0.169114,0.032073,-0.006390,-0.169114,-0.021683,0.341437,-1.240673,-0.389272,1.720491,-9.366203
1790543630.1379,0.027891,-0.004225,-0.192985,0.029146,-0.004874,-0.192985,-0.133384,0.655900,-1.407010,-0.542584,1.757671,-9.405014
1790543630.1514,0.024670,0.002777,-0.196780,0.026012,0.000481,-0.196780,-0.393210,0.364506,-1.337804,0.262303,2.203831,-9.210958
1790543630.1651,0.016792,0.002025,-0.206973,0.019558,0.001562,-0.206973,-0.198948,0.600050,-1.241887,0.990535,0.679451,-11.345574
1790543630.1791,0.019088,0.000916,-0.228769,0.019229,0.001109,-0.228769,-0.106673,0.067041,-0.984489,-0.350944,0.865351,-10.064805
1790543630.1929,0.017028,0.001652,-0.227297,0.017688,0.001489,-0.227297,-0.018040,0.093752,-0.744089,0.683911,1.571771,-8.124245
1790543630.2068,0.014653,0.004676,-0.229814,0.015563,0.003720,-0.229814,-0.106673,0.235807,-0.617818,0.185647,2.389731,-10.064805
1790543630.2207,0.008655,0.012602,-0.227026,0.010727,0.009937,-0.227026,-0.302150,0.524773,-0.661527,0.147319,3.170511,-9.482637
1790543630.2346,0.017437,0.007991,-0.244816,0.015424,0.008575,-0.244816,0.278210,-0.362765,-0.609319,-1.270816,2.092291,-13.635434
1790543630.2484,0.019171,0.003917,-0.203714,0.018047,0.005314,-0.203714,0.746869,-0.359123,-0.164943,0.952207,3.430771,-7.658511
1790543630.2626,0.014651,-0.000029,-0.141123,0.015670,0.001574,-0.141123,0.802720,-0.269276,0.374136,1.948735,3.393591,-6.416553
1790543630.2771,0.007916,-0.004283,-0.114057,0.010242,-0.002526,-0.114057,0.259998,0.160530,0.327999,1.565455,1.646131,-10.996273
1790543630.2911,0.001178,-0.006900,-0.090155,0.003897,-0.005588,-0.090155,0.023241,0.212738,0.825797,1.028863,0.902531,-12.471098
1790543630.3049,0.005734,-0.011823,-0.104997,0.005183,-0.009952,-0.104997,0.175008,-0.197642,1.089266,-1.615768,0.530731,-9.715504
1790543630.3189,0.011117,-0.013258,-0.119477,0.009337,-0.012266,-0.119477,0.096089,-0.234066,1.209466,-1.040848,0.828171,-5.174595
1790543630.3328,0.013773,-0.017155,-0.122518,0.012442,-0.015688,-0.122518,0.008671,-0.164860,0.964209,-1.270816,-0.175689,-11.811308
1790543630.3467,0.004533,-0.022622,-0.106004,0.006906,-0.020542,-0.106004,0.053594,0.402145,1.006704,0.875551,-0.770569,-11.306763
1790543630.3606,0.000843,-0.029466,-0.096051,0.002662,-0.026789,-0.096051,0.338917,0.182385,1.078338,-0.427600,0.605091,-12.548721
1790543630.3746,-0.006993,-0.039869,-0.082981,-0.004097,-0.035945,-0.082981,0.595101,0.422785,1.125690,0.108991,0.456371,-10.569350
1790543630.3882,-0.013506,-0.042599,-0.072937,-0.010683,-0.040603,-0.072937,0.276996,0.464066,1.012775,-0.389272,1.534591,-7.852567
1790543630.4018,-0.012108,-0.039953,-0.068874,-0.011681,-0.040148,-0.068874,-0.007113,0.102251,0.897431,-1.385800,1.980751,-6.998721
1790543630.4158,-0.010619,-0.038592,-0.059559,-0.010938,-0.039059,-0.059559,-0.069034,-0.145434,0.774803,-0.235960,1.757671,-10.530539
1790543630.4296,-0.013528,-0.039916,-0.047827,-0.012751,-0.039659,-0.047827,0.053594,0.056114,0.660674,0.837223,1.311511,-11.694875
1790543630.4435,-0.008639,-0.039032,-0.040965,-0.009872,-0.039220,-0.040965,0.008671,-0.357908,0.473696,-0.274288,2.389731,-12.277042
1790543630.4574,-0.000773,-0.031598,-0.026675,-0.003503,-0.033884,-0.026675,-0.544978,-0.759789,0.363209,1.258831,1.608951,-11.617252
1790543630.4713,0.001547,-0.023670,-0.006014,0.000032,-0.026734,-0.006014,-0.739241,-0.546100,0.184730,3.788478,0.233291,-13.984735
1790543630.4853,0.004424,-0.012274,0.012289,0.003107,-0.016612,0.012289,-1.002710,-0.690583,-0.031387,3.098574,0.084571,-7.930189
1790543630.4992,0.009899,-0.001331,0.019322,0.007861,-0.005915,0.019322,-0.886152,-0.763432,-0.247505,1.987063,0.567911,-6.183686
1790543630.5132,0.001171,-0.001962,0.020337,0.003178,-0.003148,0.020337,-0.072677,0.511417,-0.436911,1.795423,0.865351,-10.996273
1790543630.5274,0.000043,-0.005676,0.008148,0.000984,-0.004917,0.008148,0.267283,0.213952,-0.858218,0.262303,2.129471,-12.898021
1790543630.5415,0.014205,-0.010707,-0.009401,0.010239,-0.008970,-0.009401,0.267283,-0.631090,-1.272241,-1.577440,0.902531,-10.918651
1790543630.5554,0.002260,-0.010033,-0.054333,0.004654,-0.009714,-0.054333,0.161653,0.431284,-0.971133,3.520182,2.092291,-5.989630
1790543630.5694,0.001362,-0.011733,-0.051722,0.002349,-0.011127,-0.051722,0.063307,-0.161217,-0.785370,2.906934,1.088431,-9.443825
1790543630.5834,0.014645,-0.019917,-0.060561,0.010956,-0.017280,-0.060561,0.478544,-0.610450,-1.034269,-1.500784,0.567911,-9.366203
1790543630.5974,0.017844,-0.030043,-0.083993,0.015778,-0.026214,-0.083993,0.800291,-0.098082,-1.221247,0.300631,1.869211,-8.900469
1790543630.6110,0.030098,-0.032688,-0.122715,0.025802,-0.030746,-0.122715,0.376556,-0.557028,-1.158111,-1.117504,1.869211,-6.300119
1790543630.6246,0.032586,-0.034090,-0.136698,0.030551,-0.033087,-0.136698,0.181079,-0.204927,-1.017271,1.105519,2.129471,-9.521448
1790543630.6382,0.040079,-0.043815,-0.138071,0.037221,-0.040596,-0.138071,0.624241,-0.512104,-0.831507,0.300631,0.865351,-11.811308
1790543630.6521,0.050384,-0.048476,-0.174074,0.046435,-0.046112,-0.174074,0.541679,-0.515747,-0.785370,-1.424128,3.021791,-9.366203
1790543630.6660,0.037967,-0.050257,-0.173969,0.040508,-0.049013,-0.173969,0.113087,0.825880,-0.520687,1.297159,1.794851,-13.635434
1790543630.6799,0.022303,-0.038809,-0.190437,0.027764,-0.041870,-0.190437,-0.814518,1.312751,-0.411414,-1.922392,2.315371,-15.925294
1790543630.6938,0.022423,-0.031629,-0.187488,0.024026,-0.034701,-0.187488,-0.807233,0.573339,-0.315497,-4.375383,-1.253909,-7.580888
1790543630.7077,0.011617,-0.022359,-0.191939,0.015339,-0.026061,-0.191939,-0.871582,1.072351,-0.256004,-1.155832,-0.212869,-4.980539
1790543630.7216,0.005455,-0.015916,-0.194417,0.008420,-0.018959,-0.194417,-0.708887,0.847735,-0.141874,-1.615768,-0.398769,-4.475993
1790543630.7356,-0.006241,-0.010253,-0.195905,-0.001843,-0.012865,-0.195905,-0.506125,0.881731,0.036605,-0.274288,1.125611,-16.779140
1790543630.7505,0.006788,-0.021190,-0.190895,0.004199,-0.018692,-0.190895,0.587817,-0.790143,0.207799,-2.305671,0.121751,-18.874945
1790543630.7659,-0.000283,-0.019623,-0.177664,0.001062,-0.019344,-0.177664,-0.076319,0.295300,0.895003,0.530599,2.166651,-11.578441
1790543630.7812,-0.002418,-0.025739,-0.166123,-0.001374,-0.023821,-0.166123,0.272140,-0.089583,0.795443,1.067191,0.158931,-8.201867
1790543630.7956,-0.001877,-0.035737,-0.155149,-0.001726,-0.032162,-0.155149,0.380198,-0.117508,0.555043,0.070663,-0.956469,-5.368651
1790543630.8109,-0.018669,-0.040425,-0.155435,-0.013586,-0.037946,-0.155435,0.375342,0.910870,0.429987,1.527127,1.757671,-8.201867
1790543630.8248,-0.027688,-0.048775,-0.147888,-0.023457,-0.045526,-0.147888,0.609671,0.657114,0.496764,-0.312616,1.720491,-11.656063
1790543630.8383,-0.039791,-0.053533,-0.143703,-0.034891,-0.051131,-0.143703,0.484614,0.780957,0.540474,0.952207,2.389731,-8.784035
1790543630.8520,-0.048854,-0.059134,-0.137388,-0.044665,-0.056733,-0.137388,0.467617,0.585480,0.598752,0.798895,2.129471,-10.646972
1790543630.8656,-0.053125,-0.064309,-0.132456,-0.050587,-0.062036,-0.132456,0.471259,0.262518,0.459126,0.683911,2.315371,-10.103616
1790543630.8796,-0.053253,-0.070650,-0.126923,-0.052453,-0.068066,-0.126923,0.405695,-0.004593,0.371708,0.453943,0.902531,-11.617252
1790543630.8936,-0.045010,-0.071385,-0.119536,-0.047243,-0.070389,-0.119536,-0.032610,-0.662658,0.419059,1.143847,0.567911,-13.557812
1790543630.9076,-0.035047,-0.068237,-0.111122,-0.038706,-0.068883,-0.111122,-0.383497,-0.912771,0.366851,2.676966,-0.510309,-12.548721
1790543630.9215,-0.029253,-0.062433,-0.103331,-0.032089,-0.064368,-0.103331,-0.610542,-0.763432,0.278219,3.520182,-0.844929,-8.861658
1790543630.9354,-0.024742,-0.054358,-0.097222,-0.026946,-0.057361,-0.097222,-0.807233,-0.723365,0.175017,3.788478,-1.068009,-8.046623
1790543630.9492,-0.014833,-0.041619,-0.094864,-0.018467,-0.046341,-0.094864,-1.070702,-0.994119,0.066958,2.753622,-0.287229,-8.667602
1790543630.9631,-0.005625,-0.024933,-0.105207,-0.009478,-0.031356,-0.105207,-1.252823,-1.000190,-0.001034,3.443526,0.716631,-8.900469
1790543630.9770,0.005506,-0.006895,-0.112436,0.001011,-0.014233,-0.112436,-1.348740,-1.234519,-0.015604,3.635166,0.716631,-7.192776
1790543630.9910,-0.000193,0.000860,-0.121169,0.000169,-0.003668,-0.121169,-0.574117,0.187241,-0.145517,3.098574,1.497411,-10.608161
1790543631.0050,-0.011741,-0.004358,-0.134893,-0.008168,-0.004151,-0.134893,0.382627,0.892658,-0.679739,1.258831,2.278191,-14.139979
1790543631.0191,0.005812,-0.007379,-0.141586,0.001618,-0.006410,-0.141586,0.324348,-0.839923,-0.997844,-3.455511,3.393591,-11.694875
1790543631.0334,-0.002362,-0.007894,-0.181800,-0.001168,-0.007449,-0.181800,0.250285,0.328082,-0.606891,2.830278,2.426911,-6.028441
1790543631.0473,0.008121,-0.018070,-0.167929,0.005334,-0.014884,-0.167929,0.687376,-0.442898,-0.569252,-2.573967,1.274331,-10.220049
1790543631.0613,0.027199,-0.029908,-0.169436,0.020639,-0.025401,-0.169436,0.870712,-0.989262,-0.950493,-2.765607,1.683311,-8.978091
1790543631.0750,0.036633,-0.038240,-0.203147,0.031835,-0.034388,-0.203147,0.790578,-0.523032,-1.022127,-0.542584,2.649991,-7.658511
1790543631.0885,0.040724,-0.041580,-0.235070,0.038057,-0.039423,-0.235070,0.443334,-0.193999,-0.875216,-0.197632,2.798711,-7.580888
1790543631.1023,0.045107,-0.050933,-0.240700,0.042992,-0.047480,-0.240700,0.587817,-0.152718,-0.963849,-0.772552,0.567911,-9.133336
1790543631.1168,0.055499,-0.059868,-0.256315,0.051747,-0.056151,-0.256315,0.658237,-0.538816,-0.733162,-1.615768,1.832031,-9.715504
1790543631.1308,0.031031,-0.056984,-0.267716,0.037246,-0.056734,-0.267716,-0.218374,1.845759,-0.515830,-1.117504,2.575631,-20.466203
1790543631.1448,0.029958,-0.042328,-0.248196,0.032144,-0.046650,-0.248196,-1.070702,0.525987,-0.578965,-6.483422,1.646131,-12.432287
1790543631.1590,0.026497,-0.031918,-0.204120,0.028191,-0.036338,-0.204120,-1.054918,0.659543,-0.398058,-2.727279,-1.476988,-5.523895
1790543631.1729,0.017442,-0.019202,-0.200288,0.020667,-0.024343,-0.200288,-1.142336,0.953365,-0.325210,-1.922392,-0.807749,-6.183686
1790543631.1868,0.009935,-0.005467,-0.204186,0.013154,-0.011130,-0.204186,-0.971142,0.778529,-0.339779,-1.807408,1.646131,-8.551168
1790543631.2006,0.000904,0.006857,-0.207030,0.004579,0.001461,-0.207030,-1.008780,0.933939,-0.280287,-2.114032,0.233291,-8.201867
1790543631.2146,0.007267,0.008885,-0.207362,0.006461,0.006658,-0.207362,-0.292436,-0.177001,-0.133375,-4.988630,-0.138509,-15.537182
1790543631.2286,0.009668,0.006981,-0.203473,0.008705,0.006884,-0.203473,0.011099,-0.281417,0.552615,0.108991,0.456371,-15.886483
1790543631.2424,0.003166,0.005617,-0.205156,0.004828,0.005997,-0.205156,0.065735,0.143532,0.886504,2.638638,1.720491,-12.160609
1790543631.2563,-0.001482,0.004543,-0.193156,0.000411,0.004979,-0.193156,0.195649,0.251591,0.729880,-0.159304,1.423051,-4.165504
1790543631.2704,-0.009001,0.000174,-0.190083,-0.006178,0.001616,-0.190083,0.344988,0.360864,0.574470,0.837223,1.608951,-6.998721
1790543631.2849,-0.023021,-0.011118,-0.193353,-0.017968,-0.007298,-0.193353,0.817289,0.670470,0.654603,3.213558,2.538451,-10.724595
1790543631.2986,-0.039197,-0.022085,-0.190534,-0.032829,-0.017649,-0.190534,0.884067,0.930296,0.858579,1.872079,2.501271,-8.473546
1790543631.3129,-0.049087,-0.027830,-0.180608,-0.044209,-0.024776,-0.180608,0.548964,0.612191,0.921714,-0.005993,3.393591,-8.240679
1790543631.3268,-0.054385,-0.033948,-0.169162,-0.051333,-0.031196,-0.169162,0.432406,0.227308,0.952068,0.913879,1.943571,-9.560259
1790543631.3410,-0.061184,-0.039563,-0.158422,-0.058229,-0.037053,-0.158422,0.377770,0.313512,0.902288,1.297159,1.720491,-9.366203
1790543631.3552,-0.061049,-0.045467,-0.149626,-0.060203,-0.042943,-0.149626,0.428764,-0.118722,0.723809,0.952207,2.166651,-10.064805
1790543631.3693,-0.048848,-0.046679,-0.138800,-0.052255,-0.045558,-0.138800,0.032954,-1.014759,0.644890,2.217030,1.943571,-15.964105
1790543631.3833,-0.039635,-0.039069,-0.124052,-0.043421,-0.041016,-0.124052,-0.645752,-1.002618,0.569613,5.398253,0.530731,-12.820399
1790543631.3975,-0.037227,-0.030382,-0.104476,-0.039085,-0.033572,-0.104476,-0.798734,-0.666301,0.463983,5.628221,-0.844929,-7.542077
1790543631.4116,-0.026642,-0.016830,-0.101133,-0.030375,-0.021853,-0.101133,-1.031849,-1.046327,0.246651,2.600310,0.530731,-6.804665
1790543631.4255,-0.013008,-0.002192,-0.102813,-0.018218,-0.008090,-0.102813,-1.087700,-1.326794,0.128879,3.021918,0.828171,-6.532986
1790543631.4394,0.002511,0.014337,-0.116123,-0.003708,0.007609,-0.116123,-1.071916,-1.342578,0.192015,1.795423,2.464091,-7.270399
1790543631.4534,0.000295,0.012397,-0.089109,-0.000906,0.010960,-0.089109,-0.045966,-0.028876,0.023249,4.133430,-0.510309,-15.614805
1790543631.4672,-0.006883,0.008598,-0.101919,-0.005090,0.009307,-0.101919,0.310992,0.663185,-0.605677,-0.197632,2.984611,-14.023546
1790543631.4812,0.006573,0.008758,-0.108561,0.003074,0.008923,-0.108561,0.024455,-0.493892,-0.974776,-4.030431,2.055111,-9.172147
1790543631.4951,0.000698,0.005196,-0.120118,0.001411,0.006314,-0.120118,0.238144,0.365720,-0.616604,1.603783,0.939711,-6.532986
1790543631.5090,0.006598,-0.007493,-0.112456,0.005042,-0.003351,-0.112456,0.831859,-0.163646,-0.582608,-1.960720,0.605091,-9.249770
1790543631.5233,0.020208,-0.021026,-0.123484,0.015658,-0.015724,-0.123484,0.958130,-0.677228,-0.977204,-1.999048,1.832031,-10.569350
1790543631.5372,0.028900,-0.033555,-0.146399,0.024927,-0.028206,-0.146399,0.944774,-0.508462,-1.139899,0.338959,1.906391,-8.978091
1790543631.5508,0.036505,-0.037347,-0.190561,0.033032,-0.034604,-0.190561,0.479758,-0.538816,-1.128972,1.143847,3.170511,-7.464455
1790543631.5648,0.044265,-0.044513,-0.207374,0.040895,-0.041541,-0.207374,0.502827,-0.451397,-1.109546,0.147319,1.571771,-10.375294
1790543631.5788,0.056576,-0.053536,-0.229740,0.051871,-0.049937,-0.229740,0.667950,-0.674800,-1.153255,-1.347472,1.906391,-9.482637
1790543631.5926,0.048309,-0.057863,-0.247915,0.049378,-0.055485,-0.247915,0.298851,0.676541,-1.034269,0.377287,2.426911,-15.770049
1790543631.6065,0.040614,-0.043923,-0.248372,0.043243,-0.047392,-0.248372,-1.047633,0.967935,-0.759873,-7.020013,1.460231,-13.596623
1790543631.6205,0.041644,-0.031602,-0.227818,0.042124,-0.036339,-0.227818,-1.125338,0.317155,-0.640887,-3.800463,-1.439808,-7.736133
1790543631.6346,0.032040,-0.016124,-0.231908,0.035065,-0.022189,-0.231908,-1.245538,1.082064,-0.594749,-2.152360,-0.175689,-4.514804
1790543631.6484,0.017795,0.000539,-0.246372,0.022976,-0.006279,-0.246372,-1.132623,1.146414,-0.578965,-0.159304,2.278191,-7.930189
1790543631.6624,-0.000931,0.012578,-0.251688,0.006241,0.006921,-0.251688,-0.991782,1.541010,-0.509759,-0.887536,0.010211,-8.473546
1790543631.6763,0.008326,0.012515,-0.253517,0.007700,0.010836,-0.253517,-0.056893,-0.497535,-0.475763,-1.769080,1.385871,-14.489280
1790543631.6902,0.011510,0.011718,-0.251509,0.010367,0.011454,-0.251509,0.047523,-0.270490,0.113096,0.223975,1.646131,-9.599070
1790543631.7043,0.008015,0.012962,-0.243959,0.008721,0.012509,-0.243959,-0.178307,0.143532,0.477338,0.338959,0.642271,-10.802217
1790543631.7184,0.007257,0.007914,-0.236827,0.007696,0.009293,-0.236827,0.320705,-0.059229,0.495550,0.300631,1.088431,-8.395923
1790543631.7323,-0.001773,0.001273,-0.251574,0.001068,0.003679,-0.251574,0.442120,0.343866,0.222368,1.527127,0.419191,-3.660958
1790543631.7462,-0.015467,-0.008730,-0.249890,-0.010507,-0.005007,-0.249890,0.699518,0.821024,0.500407,1.872079,1.646131,-11.694875
1790543631.7598,-0.025646,-0.020267,-0.242481,-0.021104,-0.015689,-0.242481,0.829431,0.624333,0.716524,0.722239,1.794851,-11.578441
1790543631.7738,-0.040574,-0.025954,-0.240507,-0.034733,-0.022875,-0.240507,0.499184,0.949723,0.868292,0.415615,2.798711,-8.473546
1790543631.7881,-0.046131,-0.029676,-0.232661,-0.042712,-0.027636,-0.232661,0.327990,0.374219,0.834296,-0.810880,2.724351,-8.822846
1790543631.8023,-0.049801,-0.034913,-0.222777,-0.047674,-0.032730,-0.222777,0.363200,0.152031,0.870720,0.377287,1.720491,-8.551168
1790543631.8162,-0.045934,-0.037436,-0.214362,-0.046456,-0.036024,-0.214362,0.217503,-0.400403,0.873148,0.875551,3.728211,-13.907112
1790543631.8302,-0.036262,-0.033245,-0.201422,-0.039320,-0.034079,-0.201422,-0.344645,-0.876347,0.861007,1.833751,1.980751,-13.519000
1790543631.8442,-0.029994,-0.026157,-0.178354,-0.032792,-0.028533,-0.178354,-0.670035,-0.774359,0.927785,3.290214,-0.287229,-10.220049
1790543631.8582,-0.023976,-0.017699,-0.158697,-0.026621,-0.020949,-0.158697,-0.767166,-0.827781,0.811227,3.481854,-0.324409,-7.658511
1790543631.8721,-0.013849,-0.004783,-0.148855,-0.017680,-0.009633,-0.148855,-1.030635,-1.091250,0.568399,3.098574,0.233291,-7.153965
1790543631.8861,0.002794,0.011797,-0.143735,-0.003348,0.005368,-0.143735,-1.220041,-1.429996,0.374136,1.642111,1.051251,-7.115154
1790543631.9000,0.003580,0.023698,-0.149440,0.001501,0.018199,-0.149440,-0.840015,-0.328769,0.244223,3.711822,2.241011,-10.724595
1790543631.9140,-0.011526,0.012636,-0.141082,-0.007618,0.014305,-0.141082,0.698304,1.039569,-0.032602,2.293686,0.976891,-17.904665
1790543631.9279,-0.002290,0.007366,-0.149929,-0.003888,0.009448,-0.149929,0.400839,-0.405260,-0.961420,-1.347472,2.203831,-11.345574
1790543631.9417,-0.006932,0.010657,-0.240179,-0.006019,0.010294,-0.240179,0.216289,-0.064086,-0.883715,3.405198,2.389731,-0.866553
1790543631.9556,-0.006800,0.007585,-0.244586,-0.006566,0.008398,-0.244586,0.394768,-0.184286,-0.334923,1.642111,1.869211,-3.971448
1790543631.9694,0.003639,-0.004798,-0.232775,0.000578,-0.000839,-0.232775,0.820932,-0.542458,-0.568038,-2.114032,0.902531,-12.005364
1790543631.9834,0.019203,-0.019118,-0.258459,0.013615,-0.013635,-0.258459,1.119611,-0.929769,-0.966277,-0.695896,2.910251,-10.414105
1790543631.9970,0.028661,-0.024706,-0.287122,0.024147,-0.021385,-0.287122,0.572033,-0.634733,-1.068265,0.952207,2.947431,-7.542077
1790543632.0106,0.032614,-0.028069,-0.301525,0.030074,-0.026064,-0.301525,0.279424,-0.238923,-1.029412,1.105519,2.092291,-9.599070
1790543632.0246,0.038708,-0.035860,-0.319559,0.036118,-0.032921,-0.319559,0.550178,-0.202498,-1.063408,-1.577440,1.571771,-9.987182
1790543632.0393,0.037481,-0.042354,-0.346158,0.037072,-0.039524,-0.346158,0.516182,0.269803,-0.829079,-1.309144,2.464091,-9.249770
1790543632.0533,0.016550,-0.038986,-0.360481,0.022707,-0.039147,-0.360481,-0.251156,1.666066,-0.668812,-2.152360,2.538451,-18.991378
1790543632.0674,0.015551,-0.027180,-0.330421,0.017697,-0.030770,-0.330421,-0.937146,0.456781,-0.648172,-6.330110,0.456371,-12.354665
1790543632.0813,0.008043,-0.013503,-0.307061,0.010940,-0.018683,-0.307061,-1.169047,0.868375,-0.588679,-2.382327,-0.621849,-6.532986
1790543632.0952,-0.003573,-0.002285,-0.295640,0.000781,-0.007204,-0.295640,-0.968714,0.981290,-0.458765,-0.504256,-0.435949,-6.106063
1790543632.1092,-0.022315,0.009850,-0.313267,-0.015387,0.004734,-0.313267,-0.782950,1.486373,-0.518258,-0.082648,2.017931,-7.153965
1790543632.1231,-0.031890,0.019550,-0.316004,-0.026939,0.015105,-0.316004,-0.752596,0.913298,-0.542541,-2.037376,1.162791,-16.507462
1790543632.1370,-0.018108,0.013473,-0.309747,-0.020757,0.013963,-0.309747,0.359558,-0.917628,-0.181941,-1.079176,1.385871,-18.913756
1790543632.1510,-0.016227,0.014814,-0.303077,-0.017586,0.014559,-0.303077,-0.115172,-0.124793,0.483409,-1.385800,1.980751,-10.957462
1790543632.1649,-0.018884,0.011095,-0.289204,-0.018495,0.012134,-0.289204,0.229645,-0.096868,0.783302,1.910407,1.237151,-7.580888
1790543632.1788,-0.021340,0.001206,-0.281548,-0.020486,0.004484,-0.281548,0.672807,0.148389,0.444556,-0.312616,1.088431,-8.007811
1790543632.1928,-0.032916,-0.007888,-0.282594,-0.029187,-0.004176,-0.282594,0.715301,0.705680,0.485837,0.760567,1.720491,-6.028441
1790543632.2068,-0.049312,-0.017892,-0.281483,-0.043275,-0.013778,-0.281483,0.784508,0.964292,0.684956,2.370342,2.947431,-9.637881
1790543632.2204,-0.065750,-0.026379,-0.276078,-0.059007,-0.022598,-0.276078,0.635168,1.046854,0.890146,1.335487,2.203831,-9.366203
1790543632.2340,-0.075877,-0.033058,-0.273485,-0.070816,-0.029920,-0.273485,0.525895,0.637688,0.979993,0.568927,3.021791,-10.220049
1790543632.2476,-0.078857,-0.035425,-0.271827,-0.076445,-0.033774,-0.271827,0.223574,0.127748,0.909573,0.492271,3.207691,-9.831937
1790543632.2616,-0.076080,-0.040302,-0.267510,-0.076189,-0.038343,-0.267510,0.348631,-0.247422,0.800300,-0.005993,2.687171,-11.190329
1790543632.2756,-0.065786,-0.042284,-0.252954,-0.068907,-0.041102,-0.252954,0.025669,-0.788929,0.726237,0.108991,0.753811,-12.703965
1790543632.2900,-0.059716,-0.039249,-0.232243,-0.062474,-0.039805,-0.232243,-0.349501,-0.561884,0.710453,1.335487,0.121751,-9.948371
1790543632.3040,-0.050868,-0.033036,-0.206682,-0.054350,-0.035067,-0.206682,-0.591115,-0.862992,0.657031,2.217030,0.010211,-8.279490
1790543632.3180,-0.040257,-0.023629,-0.182899,-0.044485,-0.027060,-0.182899,-0.808447,-0.992905,0.545330,2.332014,0.010211,-8.085434
1790543632.3320,-0.022433,-0.008883,-0.168527,-0.029049,-0.014336,-0.168527,-1.128980,-1.490703,0.388706,2.370342,0.976891,-9.793126
1790543632.3459,-0.010131,0.007587,-0.154570,-0.015806,0.001010,-0.154570,-1.264964,-1.233305,0.192015,4.555037,0.456371,-8.240679
1790543632.3599,-0.002702,0.020769,-0.162569,-0.006634,0.014841,-0.162569,-0.876439,-0.699082,0.060887,1.718767,2.092291,-6.959909
1790543632.3738,-0.012215,0.014236,-0.168661,-0.010541,0.014418,-0.168661,0.472473,0.885373,-0.304569,-2.190688,2.203831,-12.471098
1790543632.3878,-0.006724,0.008293,-0.193824,-0.007869,0.010130,-0.193824,0.523467,0.000263,-1.008772,-4.413711,3.988471,-13.286133
1790543632.4018,0.007357,0.004206,-0.216072,0.002789,0.005983,-0.216072,0.386269,-0.727008,-1.011200,-1.999048,3.430771,-11.267951
1790543632.4157,0.007954,-0.003638,-0.222767,0.006404,-0.000752,-0.222767,0.540465,0.079183,-0.650600,-0.120976,1.311511,-9.909560
1790543632.4296,0.015811,-0.016111,-0.225202,0.012989,-0.011504,-0.225202,0.805148,-0.328769,-0.836364,-1.922392,0.270471,-11.462007
1790543632.4436,0.031207,-0.028890,-0.239530,0.025742,-0.023674,-0.239530,0.908350,-0.805927,-1.053695,-2.612295,1.460231,-9.987182
1790543632.4572,0.042441,-0.035995,-0.268171,0.037431,-0.032299,-0.268171,0.665522,-0.663872,-1.302594,-0.082648,2.538451,-6.222497
1790543632.4708,0.044755,-0.040952,-0.291260,0.042558,-0.038356,-0.291260,0.470045,-0.075013,-1.187251,0.453943,2.501271,-7.037532
1790543632.4847,0.052018,-0.048712,-0.305755,0.049180,-0.045605,-0.305755,0.502827,-0.365193,-1.141113,-0.619240,0.939711,-9.366203
1790543632.4986,0.041335,-0.055724,-0.310542,0.043689,-0.052688,-0.310542,0.431192,0.767601,-0.952921,2.255358,1.014071,-14.722147
1790543632.5126,0.025080,-0.047082,-0.325737,0.030663,-0.048764,-0.325737,-0.653037,1.347961,-0.841220,-2.497311,1.943571,-19.030189
1790543632.5266,0.026965,-0.032381,-0.333563,0.028075,-0.037296,-0.333563,-1.136265,0.203025,-0.738018,-6.215126,0.196111,-14.838581
1790543632.5409,0.017384,-0.012946,-0.340500,0.020591,-0.020251,-0.340500,-1.476225,0.926654,-0.736804,-1.117504,-0.138509,-4.708860
1790543632.5550,0.003622,0.004991,-0.344312,0.008713,-0.002582,-0.344312,-1.422803,1.210763,-0.557111,-0.849208,-0.250049,-4.631238
1790543632.5690,-0.013027,0.018799,-0.356834,-0.006505,0.012385,-0.356834,-1.020922,1.449949,-0.725877,-0.925864,0.679451,-6.377742
1790543632.5830,-0.021516,0.027774,-0.370583,-0.017013,0.023157,-0.370583,-0.585045,0.872017,-0.687024,-1.922392,3.096151,-12.277042
1790543632.5970,-0.011676,0.020404,-0.367882,-0.013277,0.021230,-0.367882,0.440905,-0.654159,-0.061741,-1.194160,1.274331,-21.281238
1790543632.6109,-0.018932,0.021043,-0.362107,-0.017235,0.021099,-0.362107,-0.005899,0.319583,0.494336,2.025391,2.612811,-9.327392
1790543632.6249,-0.014785,0.017498,-0.350007,-0.015520,0.018579,-0.350007,0.204148,-0.418616,0.761447,-0.159304,1.125611,-7.542077
1790543632.6389,-0.016609,0.007653,-0.343029,-0.016282,0.010931,-0.343029,0.595101,0.262518,0.386277,-2.190688,0.121751,-7.386832
1790543632.6527,-0.029739,-0.000745,-0.337888,-0.025702,0.002758,-0.337888,0.580532,0.743318,0.500407,2.293686,1.348691,-9.094525
1790543632.6666,-0.045952,-0.015052,-0.329811,-0.039877,-0.009709,-0.329811,0.986055,0.974005,0.739593,1.987063,1.423051,-10.452916
1790543632.6802,-0.061707,-0.022813,-0.323380,-0.055158,-0.018882,-0.323380,0.652166,1.006787,0.893789,1.067191,3.058971,-8.512357
1790543632.6938,-0.071952,-0.026995,-0.315697,-0.066914,-0.024561,-0.315697,0.374128,0.658328,0.941140,0.338959,3.467951,-9.676693
1790543632.7075,-0.076853,-0.032409,-0.305156,-0.073871,-0.030055,-0.305156,0.364414,0.261304,0.930213,0.415615,2.129471,-10.142427
1790543632.7214,-0.071104,-0.033620,-0.295867,-0.071934,-0.032550,-0.295867,0.110659,-0.503605,0.766304,0.607255,3.170511,-10.763406
1790543632.7353,-0.058454,-0.030832,-0.283614,-0.062498,-0.031347,-0.283614,-0.265725,-1.036614,0.709239,1.067191,1.534591,-10.918651
1790543632.7493,-0.054455,-0.027787,-0.261002,-0.056868,-0.028855,-0.261002,-0.376212,-0.609236,0.748092,4.095102,-0.287229,-9.637881
1790543632.7633,-0.049774,-0.025090,-0.242258,-0.051902,-0.026220,-0.242258,-0.377426,-0.582525,0.652175,2.715294,-0.733389,-8.861658
1790543632.7775,-0.038101,-0.015201,-0.230393,-0.042241,-0.018507,-0.230393,-0.762309,-1.008689,0.585397,1.642111,0.976891,-8.512357
1790543632.7920,-0.026200,-0.003128,-0.220120,-0.031012,-0.007742,-0.220120,-0.906792,-1.028115,0.385063,2.370342,0.790991,-9.172147
1790543632.8060,-0.014996,0.009557,-0.214394,-0.019801,0.004367,-0.214394,-0.980855,-1.015973,0.093669,3.635166,0.790991,-10.918651
1790543632.8199,-0.000859,0.025304,-0.218954,-0.006542,0.019023,-0.218954,-1.104697,-1.165313,-0.178299,2.638638,2.203831,-9.210958
1790543632.8351,-0.015834,0.024678,-0.218306,-0.013046,0.022982,-0.218306,-0.082390,0.987361,-0.541327,3.328542,-0.473129,-13.208511
1790543632.8497,-0.012384,0.018078,-0.231218,-0.012582,0.019549,-0.231218,0.446976,0.081611,-1.179966,-1.040848,1.125611,-8.240679
1790543632.8643,-0.003156,0.013637,-0.261887,-0.005984,0.015411,-0.261887,0.449404,-0.498749,-1.141113,0.913879,2.649991,-6.649420
1790543632.8786,-0.003927,0.004212,-0.279759,-0.004544,0.007571,-0.279759,0.721372,0.057328,-0.787798,2.446998,2.501271,-9.637881
1790543632.8935,0.010002,-0.004515,-0.299544,0.005638,-0.000889,-0.299544,0.636382,-0.654159,-1.110760,-1.999048,2.724351,-11.423196
1790543632.9074,0.023086,-0.012180,-0.328691,0.017852,-0.008793,-0.328691,0.677663,-0.659016,-1.268598,-1.385800,3.319231,-8.900469
1790543632.9209,0.027277,-0.019870,-0.351358,0.024449,-0.016547,-0.351358,0.585388,-0.048302,-1.458004,-0.657568,1.720491,-8.589979
1790543632.9346,0.031316,-0.026249,-0.372167,0.029256,-0.023338,-0.372167,0.477330,-0.123579,-1.381513,0.223975,1.497411,-7.348021
1790543632.9487,0.040494,-0.038016,-0.380294,0.037123,-0.033613,-0.380294,0.739584,-0.510890,-1.176323,-0.044320,0.233291,-8.822846
1790543632.9627,0.032472,-0.047137,-0.397503,0.033867,-0.043080,-0.397503,0.667950,0.685040,-0.899499,-0.120976,2.910251,-15.304315
1790543632.9766,0.012243,-0.038041,-0.414642,0.018730,-0.039553,-0.414642,-0.666392,1.802050,-0.899499,-5.448566,1.794851,-14.295224
1790543632.9905,0.020766,-0.019879,-0.420416,0.020156,-0.025781,-0.420416,-1.385164,-0.200070,-0.864289,-8.936412,0.456371,-16.623896
1790543633.0044,0.018679,-0.004292,-0.423295,0.019122,-0.010739,-0.423295,-1.292890,0.626761,-0.855790,-3.340527,-0.733389,-5.291028
1790543633.0183,0.005594,0.010768,-0.429310,0.009652,0.004316,-0.429310,-1.260108,1.150056,-0.512188,-0.657568,-0.435949,-4.165504
1790543633.0323,-0.016061,0.027291,-0.446662,-0.008347,0.020398,-0.446662,-1.090128,1.590790,-0.835149,1.105519,1.348691,-4.243126
1790543633.0465,-0.023417,0.033014,-0.458703,-0.018896,0.029229,-0.458703,-0.442990,0.739676,-0.846077,-0.350944,1.460231,-15.653616
1790543633.0605,-0.013380,0.024475,-0.459027,-0.015035,0.025901,-0.459027,0.603600,-0.774359,-0.167371,2.868606,3.616671,-19.379490
1790543633.0743,-0.020839,0.024055,-0.455742,-0.019098,0.024609,-0.455742,0.087590,0.308656,0.495550,4.210086,4.917971,-15.498371
1790543633.0883,-0.018995,0.022658,-0.443064,-0.019026,0.023243,-0.443064,0.040238,-0.192785,0.782088,-1.309144,1.497411,-10.685784
1790543633.1021,-0.014500,0.018807,-0.430809,-0.015858,0.020138,-0.430809,0.167723,-0.428329,0.602395,-0.044320,0.344831,-7.619700
1790543633.1159,-0.023554,0.016634,-0.433952,-0.021245,0.017685,-0.433952,0.207790,0.121678,0.415417,3.558510,1.014071,-3.001168
1790543633.1298,-0.041494,0.005875,-0.423803,-0.035420,0.009418,-0.423803,0.727443,0.912084,0.739593,4.976645,1.274331,-9.405014
1790543633.1434,-0.051407,-0.004990,-0.416840,-0.046611,-0.000667,-0.416840,0.795435,0.625547,0.816084,0.262303,2.166651,-9.870749
1790543633.1569,-0.062874,-0.008719,-0.414462,-0.057995,-0.006304,-0.414462,0.330418,0.691110,0.921714,0.913879,3.207691,-9.405014
1790543633.1709,-0.061673,-0.011119,-0.404617,-0.060570,-0.009674,-0.404617,0.154368,-0.156361,0.970280,-0.772552,2.798711,-11.151518
1790543633.1849,-0.061115,-0.008900,-0.395193,-0.060951,-0.009132,-0.395193,-0.172236,-0.181858,0.928999,0.530599,2.241011,-8.861658
1790543633.1989,-0.057039,-0.010239,-0.384891,-0.058213,-0.009907,-0.384891,0.077877,-0.430757,0.942355,0.415615,2.501271,-10.103616
1790543633.2129,-0.050469,-0.004784,-0.369555,-0.052792,-0.006321,-0.369555,-0.466059,-0.626234,0.969066,0.530599,1.720491,-11.073895
1790543633.2268,-0.045513,0.002195,-0.347837,-0.047697,-0.000360,-0.347837,-0.644538,-0.601951,0.824583,2.485326,0.419191,-11.617252
1790543633.2408,-0.038952,0.011197,-0.326316,-0.041576,0.007730,-0.326316,-0.793877,-0.736721,0.629106,2.945262,0.084571,-10.142427
1790543633.2546,-0.028720,0.023661,-0.317942,-0.032577,0.018881,-0.317942,-0.944431,-0.996547,0.371708,2.408670,1.274331,-7.464455
1790543633.2684,-0.017634,0.033812,-0.309415,-0.022117,0.029333,-0.309415,-0.786592,-1.014759,0.216298,2.102047,1.088431,-7.503266
1790543633.2825,-0.024055,0.028007,-0.305586,-0.023473,0.028405,-0.305586,0.354701,0.371791,-0.036244,2.370342,1.237151,-11.772497
1790543633.2969,-0.021628,0.019660,-0.316135,-0.022182,0.022283,-0.316135,0.614528,0.130177,-0.779299,-2.918919,2.835891,-13.402567
1790543633.3109,-0.009111,0.013228,-0.328353,-0.013032,0.015944,-0.328353,0.472473,-0.566741,-1.239459,-1.500784,1.460231,-9.327392
1790543633.3249,-0.019873,0.013420,-0.366212,-0.017820,0.014177,-0.366212,0.172580,0.523559,-0.693095,3.558510,2.055111,-3.777392
1790543633.3388,-0.007853,0.007586,-0.364822,-0.010843,0.009564,-0.364822,0.383841,-0.516961,-0.727091,-3.225543,0.939711,-8.978091
1790543633.3527,0.004046,-0.009758,-0.367757,-0.000421,-0.003962,-0.367757,1.179104,-0.631090,-0.994202,-1.232488,0.419191,-12.160609
1790543633.3668,0.016866,-0.020186,-0.399684,0.011680,-0.015319,-0.399684,0.913207,-0.622591,-1.230960,-1.270816,2.984611,-6.610609
1790543633.3806,0.029132,-0.023355,-0.418516,0.023896,-0.020944,-0.418516,0.270925,-0.785286,-1.237030,0.722239,1.757671,-7.464455
1790543633.3943,0.029520,-0.029722,-0.433725,0.027833,-0.027089,-0.433725,0.456689,0.067041,-1.121687,0.837223,1.534591,-9.366203
1790543633.4082,0.029866,-0.042066,-0.442250,0.029256,-0.037573,-0.442250,0.823360,0.196954,-0.867931,-2.573967,0.790991,-13.713056
1790543633.4222,0.011707,-0.040434,-0.455603,0.016972,-0.039576,-0.455603,-0.146739,1.486373,-0.859432,-1.960720,1.832031,-18.564455
1790543633.4362,0.006758,-0.030101,-0.465982,0.009822,-0.032943,-0.465982,-0.764738,0.680183,-0.833935,-4.107087,1.162791,-11.811308
1790543633.4501,0.007839,-0.021450,-0.452298,0.008434,-0.024898,-0.452298,-0.849728,0.375433,-0.628745,-4.183743,-1.848788,-5.717951
1790543633.4639,-0.003610,-0.004643,-0.458750,0.000003,-0.010719,-0.458750,-1.300174,1.001931,-0.563182,-0.504256,0.084571,-4.902916
1790543633.4779,-0.014750,0.015300,-0.470604,-0.010324,0.007494,-0.470604,-1.408233,1.056567,-0.724663,-1.040848,1.199971,-6.300119
1790543633.4917,-0.027905,0.029434,-0.482566,-0.022630,0.022852,-0.482566,-1.109554,1.320036,-0.739232,-1.807408,-0.026969,-6.028441
1790543633.5056,-0.028519,0.031221,-0.488498,-0.026752,0.028710,-0.488498,-0.181950,0.252805,-0.508545,-2.152360,1.385871,-17.244875
1790543633.5195,-0.022281,0.024667,-0.489049,-0.023622,0.025880,-0.489049,0.404481,-0.440470,-0.096951,0.722239,1.794851,-21.087182
1790543633.5334,-0.026265,0.028155,-0.486346,-0.025472,0.027473,-0.486346,-0.249941,0.156888,0.388706,1.642111,2.798711,-12.509909
1790543633.5477,-0.027326,0.019056,-0.476533,-0.026770,0.021581,-0.476533,0.531966,-0.011878,0.627892,-0.197632,0.530731,-9.133336
1790543633.5617,-0.030197,0.007324,-0.469060,-0.029169,0.011601,-0.469060,0.840358,0.411858,0.274576,-2.267343,1.088431,-5.717951
1790543633.5756,-0.044368,0.000267,-0.468709,-0.039808,0.003667,-0.468709,0.493113,0.920583,0.348639,1.488799,1.794851,-10.802217
1790543633.5895,-0.056849,-0.012470,-0.464249,-0.051737,-0.007629,-0.464249,0.899851,0.795527,0.517405,1.297159,2.092291,-11.772497
1790543633.6030,-0.072378,-0.023382,-0.459949,-0.066186,-0.018656,-0.459949,0.858570,0.959436,0.725023,2.293686,2.947431,-9.560259
1790543633.6167,-0.080490,-0.026552,-0.449420,-0.076199,-0.024183,-0.449420,0.296422,0.527201,0.800300,0.223975,3.207691,-8.900469
1790543633.6306,-0.080072,-0.030479,-0.437165,-0.078910,-0.028590,-0.437165,0.266069,-0.101724,0.799086,0.223975,2.389731,-9.948371
1790543633.6446,-0.072045,-0.031470,-0.425211,-0.074104,-0.030606,-0.425211,0.018384,-0.661444,0.733522,0.530599,1.980751,-11.500819
1790543633.6585,-0.060425,-0.029307,-0.416307,-0.064529,-0.029697,-0.416307,-0.302150,-0.926127,0.642461,0.645583,0.010211,-11.500819
1790543633.6722,-0.055402,-0.026720,-0.415900,-0.058140,-0.027613,-0.415900,-0.362857,-0.688155,0.688599,3.865134,-0.621849,-8.667602
1790543633.6861,-0.049573,-0.023205,-0.410076,-0.052143,-0.024527,-0.410076,-0.428420,-0.644446,0.621821,2.217030,-0.584669,-8.279490
1790543633.7000,-0.039227,-0.013884,-0.403078,-0.043101,-0.017077,-0.403078,-0.763524,-0.883632,0.479766,1.527127,0.679451,-10.957462
1790543633.7139,-0.029489,0.000086,-0.404355,-0.033573,-0.005063,-0.404355,-1.090128,-0.947982,0.256364,4.133430,0.530731,-11.035084
1790543633.7278,-0.014338,0.017582,-0.406760,-0.020108,0.010788,-0.406760,-1.322029,-1.297654,0.001394,3.865134,1.051251,-11.345574
1790543633.7417,-0.003091,0.036293,-0.413983,-0.008196,0.028642,-0.413983,-1.352382,-1.030543,-0.163729,3.673494,1.571771,-8.434735
1790543633.7556,-0.011228,0.031894,-0.414267,-0.010319,0.030918,-0.414267,0.199291,0.710537,-0.560753,0.530599,-0.064149,-13.208511
1790543633.7696,-0.000488,0.022890,-0.420151,-0.003437,0.025298,-0.420151,0.693447,-0.337268,-1.271026,-4.183743,3.579491,-13.790679
1790543633.7837,0.005384,0.019598,-0.459168,0.002738,0.021308,-0.459168,0.448190,-0.467181,-1.170253,3.060246,3.393591,-5.446273
1790543633.7984,0.005730,0.014480,-0.475542,0.004833,0.016529,-0.475542,0.378984,0.025760,-0.821794,1.450471,1.757671,-7.580888
1790543633.8126,0.019368,0.006552,-0.478458,0.015007,0.009545,-0.478458,0.480972,-0.693012,-1.094976,-1.654096,0.642271,-11.656063
1790543633.8265,0.031718,-0.004904,-0.492058,0.026705,-0.000569,-0.492058,0.854928,-0.609236,-1.164182,-1.500784,2.203831,-8.861658
1790543633.8400,0.038099,-0.012943,-0.513199,0.034681,-0.009231,-0.513199,0.682520,-0.247422,-1.230960,-0.580912,2.649991,-7.464455
1790543633.8536,0.038359,-0.018756,-0.537526,0.037255,-0.015899,-0.537526,0.552606,0.133819,-1.218818,0.223975,2.910251,-6.882287
1790543633.8676,0.051336,-0.028823,-0.550102,0.047112,-0.024945,-0.550102,0.655809,-0.672371,-1.260099,-1.462456,0.865351,-8.589979
1790543633.8815,0.048715,-0.035665,-0.569894,0.048234,-0.032449,-0.569894,0.636382,0.271017,-0.932281,0.377287,3.616671,-7.930189
1790543633.8954,0.018240,-0.024577,-0.581341,0.027238,-0.026939,-0.581341,-0.846085,2.218501,-0.775656,2.676966,1.832031,-17.322497
1790543633.9094,0.019593,-0.006215,-0.576275,0.021887,-0.012433,-0.576275,-1.413090,0.239449,-0.657885,-6.713389,0.158931,-16.158161
1790543633.9234,0.011167,0.014443,-0.583003,0.014383,0.006381,-0.583003,-1.485938,0.933939,-0.656671,-2.650623,1.274331,-7.386832
1790543633.9372,0.004277,0.027390,-0.539610,0.007309,0.021087,-0.539610,-1.170261,1.193765,-0.558325,-2.037376,-0.919289,0.026105
1790543633.9512,-0.005218,0.036655,-0.557514,-0.001460,0.031985,-0.557514,-0.759881,1.011644,-0.736804,-1.730752,0.196111,-6.804665
1790543633.9651,0.008683,0.022432,-0.564319,0.005640,0.025297,-0.564319,0.966629,-0.814426,-0.622675,-2.037376,1.646131,-16.779140
1790543633.9791,-0.000181,0.019203,-0.568446,0.001565,0.021032,-0.568446,0.338917,0.414286,0.392348,4.056774,5.735931,-14.295224
1790543633.9930,-0.006183,0.011796,-0.566966,-0.003858,0.014567,-0.566966,0.411766,0.535700,0.456698,-4.413711,-0.212869,-15.343126
1790543634.0070,-0.010027,0.007278,-0.556990,-0.008177,0.009464,-0.556990,0.262426,0.150817,0.819726,-0.197632,1.460231,-13.868301
1790543634.0209,-0.014932,0.002931,-0.551384,-0.012905,0.004891,-0.551384,0.185936,0.314726,0.671601,-0.695896,-0.064149,-7.037532
1790543634.0350,-0.027438,-0.001305,-0.552115,-0.023078,0.000554,-0.552115,0.286709,0.570910,0.856150,2.638638,1.423051,-7.464455
1790543634.0491,-0.038968,-0.015134,-0.541596,-0.034201,-0.010428,-0.541596,0.925348,0.627975,1.000633,0.760567,0.939711,-7.076343
1790543634.0627,-0.051710,-0.024632,-0.525988,-0.046457,-0.020371,-0.525988,0.705588,0.817381,1.091694,0.108991,2.501271,-10.142427
1790543634.0763,-0.056652,-0.026840,-0.506271,-0.053594,-0.024899,-0.506271,0.227216,0.362078,1.000633,-1.807408,3.914111,-10.763406
1790543634.0902,-0.053262,-0.028844,-0.487352,-0.053361,-0.027661,-0.487352,0.099731,-0.281417,1.090480,-1.385800,1.943571,-10.103616
1790543634.1040,-0.046880,-0.027095,-0.472226,-0.048824,-0.027264,-0.472226,-0.220802,-0.625020,1.091694,0.722239,1.274331,-11.772497
1790543634.1179,-0.040894,-0.020517,-0.462816,-0.043273,-0.022541,-0.462816,-0.580188,-0.699082,1.024916,2.830278,0.976891,-12.238231
1790543634.1316,-0.036738,-0.014165,-0.460845,-0.038699,-0.016678,-0.460845,-0.614184,-0.643232,0.936284,3.903462,-0.175689,-10.608161
1790543634.1455,-0.031373,-0.003108,-0.457937,-0.033570,-0.007179,-0.457937,-0.933503,-0.722151,0.806371,3.443526,-0.026969,-9.094525
1790543634.1594,-0.021566,0.009175,-0.454570,-0.025168,0.004269,-0.454570,-0.988140,-0.939483,0.490694,2.102047,0.344831,-8.163056
1790543634.1734,-0.012856,0.020189,-0.454755,-0.016549,0.015413,-0.454755,-0.914077,-0.852064,0.223582,2.332014,-0.064149,-7.386832
1790543634.1873,-0.002191,0.030757,-0.455022,-0.006499,0.026154,-0.455022,-0.833944,-0.893345,0.047532,1.718767,0.828171,-9.715504
1790543634.2012,-0.009547,0.028113,-0.463153,-0.008632,0.027525,-0.463153,0.096089,0.477421,-0.309426,3.711822,0.493551,-16.662707
1790543634.2152,-0.005572,0.017695,-0.464425,-0.006490,0.020644,-0.464425,0.746869,0.074326,-1.071907,-2.842263,1.943571,-12.393476
1790543634.2292,0.006465,0.009495,-0.481927,0.002579,0.012839,-0.481927,0.640025,-0.578882,-1.453148,-0.389272,2.612811,-10.452916
1790543634.2430,0.001325,0.012876,-0.510309,0.001701,0.012865,-0.510309,-0.094531,0.171458,-0.717378,4.631693,3.207691,-6.494175
1790543634.2568,0.014520,0.005174,-0.508622,0.010674,0.007481,-0.508622,0.522253,-0.724579,-0.700380,-1.845736,1.199971,-9.870749
1790543634.2707,0.032518,-0.009964,-0.513378,0.025965,-0.004730,-0.513378,1.074688,-1.030543,-1.023341,-2.229015,1.832031,-11.462007
1790543634.2850,0.044934,-0.016748,-0.530142,0.039243,-0.013142,-0.530142,0.785722,-0.707581,-1.084049,-0.197632,4.100011,-4.359560
1790543634.2989,0.051580,-0.018388,-0.546390,0.047879,-0.016814,-0.546390,0.353487,-0.312985,-1.053695,-0.427600,4.583351,-6.532986
1790543634.3127,0.054769,-0.026730,-0.561443,0.052702,-0.023755,-0.561443,0.659451,-0.078656,-0.973562,-0.504256,2.464091,-8.085434
1790543634.3266,0.050005,-0.034782,-0.576680,0.050814,-0.031474,-0.576680,0.552606,0.505347,-0.991774,-1.040848,2.389731,-14.023546
1790543634.3405,0.041931,-0.034837,-0.587965,0.044596,-0.033828,-0.587965,-0.032610,0.751817,-0.745303,-2.382327,2.166651,-17.438931
1790543634.3544,0.037318,-0.028680,-0.589261,0.039502,-0.030224,-0.589261,-0.610542,0.608549,-0.604462,-3.877119,-1.291089,-11.190329
1790543634.3684,0.038309,-0.016234,-0.585584,0.038666,-0.020431,-0.585584,-1.006352,0.339009,-0.500046,-4.835318,-0.435949,-6.998721
1790543634.3826,0.031511,0.002094,-0.593261,0.033658,-0.004664,-0.593261,-1.426445,0.674112,-0.429626,-1.615768,-0.212869,-7.580888
1790543634.3965,0.024009,0.014505,-0.600318,0.026904,0.008754,-0.600318,-1.081629,0.812525,-0.394416,-2.995575,-1.179549,-8.745224
1790543634.4105,0.013710,0.024901,-0.604860,0.017668,0.020057,-0.604860,-0.882509,1.080850,-0.438125,-3.110559,-0.361589,-7.231588
1790543634.4244,-0.000118,0.039486,-0.607830,0.005218,0.033657,-0.607830,-1.132623,1.239903,-0.194082,-2.727279,0.456371,-8.939280
1790543634.4383,0.003585,0.040885,-0.611278,0.004075,0.038717,-0.611278,-0.241442,-0.251064,0.199300,-1.769080,-0.212869,-17.516553
1790543634.4522,-0.003945,0.033461,-0.616643,-0.001539,0.035037,-0.616643,0.442120,0.250377,0.766304,3.673494,1.125611,-15.575993
1790543634.4661,-0.010670,0.028139,-0.609673,-0.007931,0.030209,-0.609673,0.380198,0.037902,1.262888,2.561982,1.683311,-7.076343
1790543634.4800,-0.008420,0.024745,-0.551609,-0.008273,0.026384,-0.551609,0.348631,0.087682,0.689813,-3.608823,1.906391,-4.670049
1790543634.4939,-0.017275,0.021875,-0.555363,-0.014575,0.023228,-0.555363,0.202934,0.390003,0.538045,2.983590,2.278191,-10.530539
1790543634.5078,-0.032603,0.009251,-0.558103,-0.027195,0.013444,-0.558103,0.865855,0.881731,0.642461,2.485326,1.460231,-10.336483
1790543634.5214,-0.047856,-0.002920,-0.549354,-0.041657,0.001989,-0.549354,0.967843,0.855019,0.901074,2.676966,3.467951,-9.482637
1790543634.5351,-0.058498,-0.008590,-0.528755,-0.053446,-0.005416,-0.528755,0.562320,0.675326,0.847651,0.147319,3.951291,-7.542077
1790543634.5498,-0.061460,-0.015974,-0.513755,-0.059056,-0.012807,-0.513755,0.459118,0.102251,0.895003,0.032335,1.906391,-10.181238
1790543634.5637,-0.069895,-0.020508,-0.501514,-0.066643,-0.018198,-0.501514,0.327990,0.425213,0.863435,1.527127,2.203831,-8.512357
1790543634.5778,-0.063306,-0.020203,-0.483750,-0.064307,-0.019602,-0.483750,0.077877,-0.593452,0.749306,1.105519,5.475671,-12.160609
1790543634.5917,-0.048578,-0.014829,-0.470415,-0.053296,-0.016261,-0.470415,-0.435705,-1.165313,0.733522,0.377287,2.426911,-13.713056
1790543634.6056,-0.045061,-0.005473,-0.473575,-0.047532,-0.008709,-0.473575,-0.816946,-0.580096,0.669173,4.976645,-0.138509,-11.500819
1790543634.6194,-0.033879,0.004696,-0.473799,-0.037975,0.000674,-0.473799,-0.860655,-1.077895,0.426344,3.405198,0.121751,-9.599070
1790543634.6334,-0.020597,0.018819,-0.472703,-0.025810,0.013376,-0.472703,-1.020922,-1.240590,0.272148,2.600310,1.237151,-5.989630
1790543634.6474,-0.007152,0.031042,-0.470111,-0.012750,0.025742,-0.470111,-0.932289,-1.278228,0.289146,2.293686,0.642271,-5.213406
1790543634.6613,0.006395,0.043467,-0.467348,0.000651,0.038149,-0.467348,-0.821802,-1.199309,0.238152,1.872079,2.389731,-6.727042
1790543634.6753,-0.007256,0.035410,-0.473891,-0.004884,0.036232,-0.473891,0.559891,0.991003,-0.234149,2.063719,3.207691,-18.448022
1790543634.6893,-0.010470,0.035571,-0.488572,-0.008794,0.035769,-0.488572,0.111873,0.453138,-0.864289,-0.619240,5.475671,-13.713056
1790543634.7033,-0.006591,0.039392,-0.501193,-0.007252,0.038305,-0.501193,-0.262083,0.041544,-1.070693,-1.654096,2.241011,-11.423196
1790543634.7174,0.000218,0.030226,-0.507173,-0.002023,0.032650,-0.507173,0.609671,-0.297201,-0.653028,-0.465928,0.605091,-5.213406
1790543634.7312,0.006739,0.015800,-0.513112,0.004110,0.020855,-0.513112,0.983627,-0.292345,-0.650600,-0.810880,0.790991,-9.055714
1790543634.7452,0.024407,-0.000283,-0.522120,0.018318,0.006058,-0.522120,1.120825,-1.020830,-1.012414,-1.385800,1.125611,-9.210958
1790543634.7588,0.035372,-0.008196,-0.537756,0.030256,-0.003920,-0.537756,0.640025,-0.697868,-1.154469,0.990535,2.947431,-9.870749
1790543634.7724,0.039684,-0.012984,-0.554292,0.036855,-0.010264,-0.554292,0.412980,-0.193999,-1.156897,0.683911,3.096151,-9.870749
1790543634.7867,0.043600,-0.018218,-0.570964,0.041577,-0.015832,-0.570964,0.386269,-0.146648,-1.128972,0.377287,2.017931,-8.085434
1790543634.8013,0.030451,-0.023008,-0.585798,0.033789,-0.020855,-0.585798,0.201719,1.065066,-1.013628,-0.274288,-0.287229,-15.731238
1790543634.8153,0.020028,-0.019519,-0.598693,0.024156,-0.019920,-0.598693,-0.279081,0.937581,-0.869145,-2.114032,2.649991,-21.281238
1790543634.8292,0.020304,-0.006692,-0.600863,0.021460,-0.010661,-0.600863,-0.929861,0.507775,-0.833935,-5.678534,1.088431,-6.649420
1790543634.8431,0.015026,0.006615,-0.613758,0.016956,0.001432,-0.613758,-1.110768,0.765173,-0.752588,-2.573967,-0.547489,-5.756762
1790543634.8571,0.010577,0.019870,-0.624836,0.012491,0.014338,-0.624836,-1.126552,0.685040,-0.561967,-3.148887,-0.993649,-6.765853
1790543634.8713,0.000579,0.031601,-0.641446,0.004153,0.026422,-0.641446,-0.955358,0.834379,-0.537685,-0.005993,-0.064149,-6.998721
1790543634.8852,-0.008045,0.042569,-0.645156,-0.004385,0.037725,-0.645156,-0.762309,0.841664,-0.518258,-1.654096,2.835891,-11.772497
1790543634.8991,-0.002243,0.035939,-0.649316,-0.002886,0.036474,-0.649316,0.349845,-0.423472,0.074243,-0.427600,0.158931,-21.281238
1790543634.9135,-0.008225,0.028823,-0.644989,-0.006623,0.031118,-0.644989,0.459118,0.172672,0.786944,1.833751,1.794851,-10.918651
1790543634.9288,-0.008922,0.020939,-0.624991,-0.008232,0.023993,-0.624991,0.525895,-0.022805,0.808799,-0.810880,1.385871,-5.679140
1790543634.9436,-0.008834,0.016333,-0.597476,-0.008654,0.018631,-0.597476,0.395982,0.311084,0.126451,-4.145415,2.055111,-5.873196
1790543634.9579,-0.024942,0.006697,-0.602817,-0.020055,0.010277,-0.602817,0.642453,0.970363,0.391134,2.332014,1.497411,-10.879840
1790543634.9724,-0.040980,-0.008062,-0.597516,-0.034703,-0.002560,-0.597516,1.003053,0.929082,0.705597,2.025391,2.241011,-11.888930
1790543634.9864,-0.055872,-0.012198,-0.576407,-0.049521,-0.009306,-0.576407,0.451833,0.932725,0.841581,0.798895,4.248731,-8.201867
1790543634.9999,-0.062561,-0.016096,-0.556104,-0.058649,-0.014059,-0.556104,0.358344,0.448282,0.920500,-0.657568,3.244871,-8.784035
1790543635.0137,-0.057716,-0.020972,-0.539687,-0.057996,-0.018898,-0.539687,0.355915,-0.362765,0.820940,-1.040848,2.129471,-8.240679
1790543635.0277,-0.047000,-0.022791,-0.533025,-0.050299,-0.021623,-0.533025,0.000172,-0.929769,0.834296,1.450471,0.567911,-13.713056
1790543635.0420,-0.035302,-0.020624,-0.531055,-0.039801,-0.020924,-0.531055,-0.292436,-0.966194,0.689813,1.220503,-0.064149,-12.509909
1790543635.0561,-0.031702,-0.016237,-0.542474,-0.034131,-0.017643,-0.542474,-0.474558,-0.609236,0.689813,4.516709,-0.659029,-9.443825
1790543635.0700,-0.024596,-0.007928,-0.539676,-0.027456,-0.010843,-0.539676,-0.665178,-0.799856,0.641247,2.025391,0.567911,-5.873196
1790543635.0840,-0.015451,-0.000750,-0.537569,-0.019053,-0.003778,-0.537569,-0.588687,-0.895773,0.482195,2.370342,0.679451,-8.589979
1790543635.0979,-0.006374,0.008412,-0.537708,-0.010178,0.004755,-0.537708,-0.729528,-0.845994,0.263649,2.906934,0.902531,-11.966553
1790543635.1117,0.007240,0.024934,-0.540674,0.002015,0.018880,-0.540674,-1.239467,-1.195666,-0.053242,3.558510,1.274331,-10.258860
1790543635.1257,0.012104,0.040940,-0.546666,0.009077,0.034322,-0.546666,-1.162976,-0.533959,-0.276644,3.596838,1.683311,-8.784035
1790543635.1395,-0.004644,0.032824,-0.558223,-0.000528,0.033273,-0.558223,0.438477,1.186480,-0.712521,4.133430,-0.770569,-11.345574
1790543635.1534,0.012557,0.024793,-0.543983,0.008632,0.027337,-0.543983,0.631526,-0.689369,-1.268598,-6.521750,3.133331,-11.073895
1790543635.1672,0.007611,0.024609,-0.575010,0.007917,0.025428,-0.575010,0.266069,0.240664,-1.043982,3.213558,3.356411,-4.010259
1790543635.1812,0.007783,0.013527,-0.586418,0.007823,0.017097,-0.586418,0.745655,0.068255,-0.768372,1.527127,1.460231,-13.363756
1790543635.1952,0.022730,0.005694,-0.595287,0.018258,0.009115,-0.595287,0.597530,-0.803499,-1.014842,-2.075704,2.984611,-11.888930
1790543635.2088,0.033674,-0.004453,-0.610112,0.029050,-0.000382,-0.610112,0.789364,-0.565527,-1.235816,-0.810880,2.389731,-8.978091
1790543635.2224,0.036439,-0.011494,-0.629606,0.034222,-0.008160,-0.629606,0.637596,-0.088369,-1.223675,0.683911,2.501271,-5.873196
1790543635.2360,0.040450,-0.013954,-0.647524,0.038582,-0.012216,-0.647524,0.274568,-0.112652,-1.203035,-0.159304,2.761531,-7.348021
1790543635.2499,0.050996,-0.020142,-0.661458,0.047272,-0.017764,-0.661458,0.470045,-0.519389,-1.076764,-1.500784,2.203831,-8.589979
1790543635.2639,0.029511,-0.026518,-0.676067,0.034839,-0.023892,-0.676067,0.523467,1.661210,-0.734376,-0.197632,4.508991,-14.489280
1790543635.2779,0.015545,-0.020406,-0.684239,0.021333,-0.021452,-0.684239,-0.413851,1.341890,-0.634816,-6.790045,3.319231,-15.731238
1790543635.2920,0.008931,-0.005796,-0.689717,0.012652,-0.010493,-0.689717,-1.121695,0.737248,-0.434483,-5.601878,0.121751,-16.701518
1790543635.3063,0.009062,0.010610,-0.687967,0.010139,0.004279,-0.687967,-1.288033,0.439783,-0.484262,-4.950302,-0.882109,-6.494175
1790543635.3203,-0.006177,0.029341,-0.692062,-0.001282,0.021823,-0.692062,-1.199401,1.114846,-0.468479,0.683911,1.757671,-3.816203
1790543635.3342,-0.012808,0.039675,-0.703128,-0.009350,0.034320,-0.703128,-0.784164,0.925440,-0.474549,-2.573967,0.419191,-4.126693
1790543635.3482,-0.020864,0.045598,-0.710854,-0.017410,0.042215,-0.710854,-0.391996,0.812525,-0.492761,-1.922392,2.910251,-12.005364
1790543635.3621,-0.018250,0.042919,-0.711001,-0.017998,0.042708,-0.711001,0.170152,-0.212211,0.037819,0.837223,3.133331,-16.934385
1790543635.3762,-0.021672,0.037159,-0.702715,-0.020570,0.038824,-0.702715,0.360772,0.124106,0.738379,-0.312616,2.315371,-13.868301
1790543635.3903,-0.025261,0.031152,-0.694153,-0.023853,0.033453,-0.694153,0.308564,-0.007021,1.016417,1.028863,0.567911,-8.279490
1790543635.4043,-0.025079,0.015116,-0.694585,-0.024711,0.020617,-0.694585,0.877997,-0.113866,0.782088,-0.389272,-1.365448,-6.416553
1790543635.4183,-0.040213,0.002582,-0.685014,-0.035562,0.007992,-0.685014,0.898637,0.712965,0.793015,2.485326,1.125611,-4.902916
1790543635.4321,-0.055994,-0.010796,-0.672931,-0.049864,-0.005160,-0.672931,0.976342,1.100276,0.751734,-0.427600,2.092291,-8.978091
1790543635.4457,-0.063577,-0.023085,-0.657635,-0.059463,-0.017707,-0.657635,0.925348,0.500490,0.808799,-0.235960,2.761531,-10.297672
1790543635.4593,-0.073681,-0.033558,-0.641848,-0.069415,-0.028803,-0.641848,0.767510,0.610977,0.977565,0.837223,2.389731,-9.599070
1790543635.4732,-0.067047,-0.039823,-0.628091,-0.067757,-0.036517,-0.628091,0.354701,-0.575240,0.944783,0.300631,1.534591,-13.945924
1790543635.4870,-0.062430,-0.038514,-0.619192,-0.064028,-0.037915,-0.619192,-0.207446,-0.529102,0.810013,2.561982,0.679451,-12.005364
1790543635.5010,-0.061416,-0.040521,-0.615782,-0.062200,-0.039739,-0.615782,-0.096960,-0.360337,0.812441,4.171758,-2.034688,-10.802217
1790543635.5149,-0.053563,-0.035883,-0.608338,-0.056154,-0.037040,-0.608338,-0.517053,-0.861777,0.802728,3.290214,-0.659029,-8.706413
1790543635.5288,-0.045254,-0.029472,-0.602083,-0.048524,-0.031742,-0.602083,-0.645752,-0.811998,0.612108,2.408670,-0.956469,-9.016902
1790543635.5427,-0.040805,-0.018690,-0.596613,-0.043121,-0.022606,-0.596613,-0.920148,-0.640804,0.552615,4.056774,-0.435949,-8.589979
1790543635.5572,-0.030900,-0.002204,-0.594854,-0.034566,-0.008325,-0.594854,-1.209114,-0.896988,0.273362,3.366870,0.828171,-10.491728
1790543635.5713,-0.018570,0.018445,-0.594847,-0.023369,0.010414,-0.594847,-1.533290,-1.083965,0.009893,3.481854,0.642271,-9.327392
1790543635.5855,-0.006855,0.039561,-0.594341,-0.011809,0.030817,-0.594341,-1.579427,-1.017188,-0.062955,3.021918,0.605091,-9.055714
1790543635.5995,-0.018098,0.040316,-0.591077,-0.016212,0.037466,-0.591077,-0.201376,0.865947,-0.292428,1.220503,-0.956469,-19.107812
1790543635.6135,-0.020488,0.024075,-0.583509,-0.019205,0.028092,-0.583509,1.148750,0.575767,-0.923782,-4.375383,1.869211,-14.139979
1790543635.6275,0.004490,0.022332,-0.555022,-0.002618,0.024060,-0.555022,0.569604,-1.195666,-1.016057,-5.448566,5.884650,-0.633685
1790543635.6415,-0.000189,0.023860,-0.577541,-0.000918,0.023920,-0.577541,-0.086032,0.241878,-0.534042,2.370342,1.497411,-6.532986
1790543635.6555,0.008697,0.012797,-0.579547,0.005812,0.016134,-0.579547,0.733514,-0.378549,-0.598392,-3.072231,0.976891,-12.238231
1790543635.6691,0.031416,-0.001654,-0.583861,0.023735,0.003682,-0.583861,1.169391,-1.281871,-0.857004,-3.953775,2.984611,-7.736133
1790543635.6828,0.038077,-0.009075,-0.604002,0.033775,-0.005248,-0.604002,0.800291,-0.445327,-0.903141,0.875551,3.876931,-5.368651
1790543635.6963,0.040916,-0.013985,-0.616506,0.038773,-0.011364,-0.616506,0.516182,-0.082298,-0.882501,-0.082648,3.691031,-7.658511
1790543635.7103,0.049897,-0.020958,-0.628321,0.046560,-0.018080,-0.628321,0.518610,-0.458682,-0.960206,-1.155832,2.278191,-9.831937
1790543635.7241,0.033955,-0.027985,-0.639124,0.037736,-0.025013,-0.639124,0.592673,1.286040,-0.631174,-1.117504,4.806431,-14.178791
1790543635.7381,0.017551,-0.025753,-0.650340,0.023607,-0.025531,-0.650340,-0.180735,1.338248,-0.551040,-2.535639,2.612811,-20.310959
1790543635.7520,0.010865,-0.014034,-0.673210,0.014687,-0.017483,-0.673210,-1.014851,0.875660,-0.462408,-5.793518,-1.625708,-9.405014
1790543635.7659,0.007970,0.000562,-0.684603,0.009985,-0.004852,-0.684603,-1.190902,0.675326,-0.432054,-5.371910,-0.919289,-6.416553
1790543635.7799,-0.001523,0.016098,-0.694085,0.001929,0.009813,-0.694085,-1.188473,0.808882,-0.249933,-0.695896,0.344831,-6.338930
1790543635.7940,-0.013461,0.028238,-0.708386,-0.008844,0.022711,-0.708386,-0.951716,0.959436,-0.381060,-0.082648,0.270471,-7.153965
1790543635.8084,-0.013919,0.035180,-0.707426,-0.012397,0.031439,-0.707426,-0.498841,0.252805,-0.259646,-2.842263,1.720491,-10.802217
1790543635.8226,-0.008927,0.029896,-0.712651,-0.009968,0.030359,-0.712651,0.226002,-0.333626,0.189586,-1.500784,-0.473129,-15.964105
1790543635.8364,-0.013661,0.028614,-0.713177,-0.012553,0.029137,-0.713177,-0.008327,0.090110,0.752948,2.217030,0.790991,-11.656063
1790543635.8504,-0.005617,0.025062,-0.707078,-0.007698,0.026285,-0.707078,0.062093,-0.679656,0.788159,-0.695896,-0.621849,-7.076343
1790543635.8644,-0.016148,0.017039,-0.707021,-0.013613,0.019813,-0.707021,0.562320,0.496848,0.528332,1.067191,0.679451,-3.466902
1790543635.8783,-0.028548,0.009009,-0.701634,-0.024067,0.012250,-0.701634,0.592673,0.748175,0.565971,1.258831,2.241011,-9.637881
1790543635.8922,-0.038862,-0.003701,-0.694609,-0.034423,0.001084,-0.694609,0.885281,0.550270,0.797872,1.757095,2.017931,-11.500819
1790543635.9058,-0.056193,-0.010662,-0.680536,-0.049662,-0.007138,-0.680536,0.553821,1.077208,0.933856,1.642111,2.910251,-9.482637
1790543635.9195,-0.062603,-0.016339,-0.657268,-0.058721,-0.013579,-0.657268,0.432406,0.416714,0.979993,-0.695896,2.575631,-9.133336
1790543635.9333,-0.061283,-0.021760,-0.638385,-0.060515,-0.019306,-0.638385,0.359558,-0.178215,0.942355,-0.235960,1.869211,-8.784035
1790543635.9473,-0.066163,-0.024249,-0.624308,-0.064468,-0.022766,-0.624308,0.172580,0.165387,0.868292,1.718767,2.315371,-9.482637
1790543635.9612,-0.058126,-0.028111,-0.605923,-0.060029,-0.026508,-0.605923,0.295208,-0.621377,0.694670,-0.389272,3.319231,-12.393476
1790543635.9753,-0.049235,-0.023526,-0.589707,-0.052473,-0.024420,-0.589707,-0.304578,-0.838709,0.755377,2.983590,3.914111,-13.751868
1790543635.9893,-0.042191,-0.015144,-0.586713,-0.045276,-0.017927,-0.586713,-0.730742,-0.754933,0.644890,4.171758,0.047391,-13.751868
1790543636.0033,-0.037851,-0.003012,-0.583265,-0.040078,-0.007486,-0.583265,-0.954144,-0.660230,0.488265,4.210086,0.419191,-7.697322
1790543636.0173,-0.023729,0.014031,-0.579423,-0.028634,0.007575,-0.579423,-1.222469,-1.246660,0.188372,2.332014,1.348691,-6.377742
1790543636.0312,-0.003162,0.030086,-0.574600,-0.010804,0.023333,-0.574600,-1.161762,-1.705606,0.153162,1.565455,1.051251,-5.058161
1790543636.0456,-0.005131,0.033118,-0.575136,-0.006833,0.030182,-0.575136,-0.214731,-0.015520,0.082742,2.753622,2.166651,-10.646972
1790543636.0600,-0.017189,0.023380,-0.585938,-0.014082,0.025421,-0.585938,0.698304,0.943652,-0.541327,1.182175,4.174371,-19.806413
1790543636.0739,-0.000558,0.019241,-0.595800,-0.004615,0.021095,-0.595800,0.329204,-0.870276,-1.196964,-2.267343,2.687171,-12.742777
1790543636.0879,-0.007341,0.014793,-0.612346,-0.006523,0.016684,-0.612346,0.284281,0.420357,-1.226103,4.056774,0.605091,-6.727042
1790543636.1019,0.000947,0.005216,-0.618799,-0.001294,0.008657,-0.618799,0.575675,-0.499963,-0.731947,0.453943,-0.138509,-7.115154
1790543636.1158,0.009343,-0.003507,-0.629582,0.006152,0.000142,-0.629582,0.631526,-0.478109,-0.841220,0.185647,1.497411,-8.861658
1790543636.1297,0.024248,-0.016682,-0.638102,0.018819,-0.011635,-0.638102,0.960558,-0.831424,-1.012414,-1.807408,1.980751,-10.879840
1790543636.1440,0.035066,-0.025424,-0.653787,0.030192,-0.021288,-0.653787,0.700732,-0.552171,-1.222461,-0.734224,3.096151,-9.094525
1790543636.1578,0.038884,-0.029389,-0.671186,0.036276,-0.026958,-0.671186,0.360772,-0.145434,-1.188465,0.300631,2.761531,-8.551168
1790543636.1716,0.043366,-0.031921,-0.685583,0.041239,-0.030432,-0.685583,0.230859,-0.196428,-1.012414,-0.120976,2.501271,-9.210958
1790543636.1856,0.027857,-0.032157,-0.698159,0.031872,-0.031640,-0.698159,-0.141883,1.261757,-0.966277,-0.389272,-1.142369,-14.372847
1790543636.1996,0.021114,-0.020215,-0.701288,0.024341,-0.023642,-0.701288,-0.960215,0.788242,-0.695523,-4.835318,-0.212869,-13.868301
1790543636.2137,0.016886,-0.007981,-0.700116,0.019122,-0.012679,-0.700116,-1.064631,0.619476,-0.451481,-4.222071,-1.923148,-9.405014
1790543636.2279,0.012398,0.005531,-0.700062,0.014416,0.000068,-0.700062,-1.036706,0.614619,-0.377418,-3.187215,0.158931,-7.852567
1790543636.2418,0.005399,0.018798,-0.703877,0.008104,0.013179,-0.703877,-1.045205,0.767601,-0.379846,-2.229015,0.158931,-7.231588
1790543636.2558,0.009147,0.026081,-0.702776,0.008834,0.022210,-0.702776,-0.574117,0.125320,-0.422341,-4.298727,0.605091,-7.309210
1790543636.2699,0.007827,0.020064,-0.707891,0.008129,0.020708,-0.707891,0.264855,0.158102,0.236938,-2.267343,-0.956469,-12.199420
1790543636.2841,-0.004150,0.014919,-0.709597,-0.000466,0.016656,-0.709597,0.327990,0.591551,0.761447,2.906934,1.943571,-13.441378
1790543636.2981,-0.009160,0.005762,-0.703586,-0.006552,0.009030,-0.703586,0.565962,0.093752,1.084409,1.565455,0.865351,-12.315854
1790543636.3127,-0.016120,-0.001039,-0.690714,-0.013250,0.001982,-0.690714,0.527109,0.405787,0.559900,-0.005993,1.237151,-4.126693
1790543636.3270,-0.034172,-0.007779,-0.692696,-0.027895,-0.004851,-0.692696,0.450619,1.044426,0.648532,2.561982,1.534591,-9.599070
1790543636.3414,-0.047737,-0.024230,-0.687614,-0.041785,-0.018416,-0.687614,1.084401,0.791884,0.767518,1.373815,1.088431,-10.569350
1790543636.3553,-0.060653,-0.032461,-0.666248,-0.054993,-0.028247,-0.666248,0.718944,0.784599,0.958138,0.837223,3.802571,-8.007811
1790543636.3689,-0.073103,-0.037669,-0.645048,-0.067670,-0.034842,-0.645048,0.467617,0.812525,1.033415,0.377287,3.467951,-8.667602
1790543636.3826,-0.077043,-0.045670,-0.627692,-0.074231,-0.042422,-0.627692,0.527109,0.201811,1.067411,0.108991,1.757671,-10.103616
1790543636.3965,-0.080966,-0.051121,-0.609725,-0.078946,-0.048511,-0.609725,0.426336,0.215167,0.859793,0.377287,3.207691,-10.569350
1790543636.4104,-0.065091,-0.057313,-0.601655,-0.069248,-0.054672,-0.601655,0.239358,-1.153172,0.854936,-1.270816,-1.216729,-14.566903
1790543636.4243,-0.054512,-0.054348,-0.594265,-0.058933,-0.054445,-0.594265,-0.298507,-0.892131,0.687385,1.872079,0.902531,-12.975644
1790543636.4382,-0.046685,-0.050167,-0.601103,-0.050360,-0.051451,-0.601103,-0.520695,-0.860563,0.744449,3.596838,-1.514168,-8.900469
1790543636.4522,-0.046390,-0.043547,-0.606526,-0.047581,-0.045918,-0.606526,-0.668820,-0.402832,0.630320,5.436581,-1.551348,-8.512357
1790543636.4661,-0.034680,-0.028997,-0.605407,-0.038550,-0.034074,-0.605407,-1.153263,-1.019616,0.394776,1.987063,0.047391,-8.395923
1790543636.4800,-0.027397,-0.009220,-0.608213,-0.030743,-0.016676,-0.608213,-1.472583,-0.802284,0.190801,4.899989,1.014071,-10.452916
1790543636.4938,-0.017456,0.012004,-0.611668,-0.021442,0.003400,-0.611668,-1.575785,-0.952838,-0.035030,4.171758,1.051251,-9.637881
1790543636.5077,-0.004370,0.032790,-0.611070,-0.009492,0.023973,-0.611070,-1.492009,-1.247875,-0.128519,3.366870,1.162791,-5.407462
1790543636.5217,-0.007153,0.034582,-0.602277,-0.007855,0.031399,-0.602277,-0.326432,0.077969,-0.105450,3.251886,-1.588528,-11.694875
1790543636.5355,0.003000,0.024100,-0.573855,-0.000257,0.026290,-0.573855,0.853714,-0.212211,-0.889786,-6.943357,4.025651,-10.375294
1790543636.5495,0.005173,0.015840,-0.583398,0.003544,0.018975,-0.583398,0.687376,0.139890,-1.006343,-2.037376,4.211551,-11.927742
1790543636.5638,0.005584,0.019031,-0.600563,0.004972,0.019015,-0.600563,-0.151596,0.073112,-0.842434,0.875551,2.649991,-8.473546
1790543636.5778,0.012437,0.014583,-0.603289,0.010198,0.015912,-0.603289,0.292780,-0.244993,-0.739232,-1.730752,1.348691,-9.443825
1790543636.5914,0.026783,0.004949,-0.601467,0.021807,0.008238,-0.601467,0.750512,-0.637161,-0.877644,-2.842263,1.460231,-5.562707
1790543636.6050,0.034542,-0.005198,-0.611254,0.030722,-0.001167,-0.611254,0.845215,-0.365193,-0.926210,-0.772552,2.538451,-6.804665
1790543636.6189,0.039769,-0.008959,-0.624038,0.037055,-0.006621,-0.624038,0.432406,-0.151504,-0.984489,-1.079176,3.616671,-6.998721
1790543636.6328,0.046253,-0.012889,-0.634240,0.043493,-0.011008,-0.634240,0.335275,-0.247422,-0.948065,-1.730752,3.170511,-10.646972
1790543636.6467,0.042752,-0.017297,-0.647152,0.042975,-0.015411,-0.647152,0.370485,0.410643,-0.929853,-0.504256,3.058971,-9.987182
1790543636.6605,0.035722,-0.013960,-0.658342,0.037898,-0.014395,-0.658342,-0.098174,0.708108,-0.745303,-1.807408,5.215411,-11.190329
1790543636.6744,0.022754,-0.006004,-0.667024,0.027297,-0.008521,-0.667024,-0.591115,1.067494,-0.468479,-1.539112,2.724351,-17.671798
1790543636.6882,0.021528,0.004599,-0.681510,0.023259,0.000663,-0.681510,-0.809661,0.456781,-0.377418,-6.100142,1.125611,-10.569350
1790543636.7022,0.019991,0.013053,-0.692114,0.020971,0.009336,-0.692114,-0.696746,0.432498,-0.185583,-5.026958,0.233291,-9.327392
1790543636.7160,0.018698,0.028206,-0.688961,0.019380,0.022545,-0.688961,-0.871582,0.578195,-0.220794,-3.378855,2.203831,-2.419000
1790543636.7299,0.020213,0.033630,-0.704223,0.019963,0.030304,-0.704223,-0.485485,0.178742,-0.164943,-3.417183,0.382011,-7.309210
1790543636.7438,0.025705,0.030722,-0.713522,0.023982,0.030597,-0.713522,0.094875,-0.310557,0.057245,-2.535639,0.307651,-13.480189
1790543636.7578,0.014765,0.026757,-0.715631,0.017530,0.027909,-0.715631,0.222360,0.490777,0.654603,3.481854,1.125611,-11.927742
1790543636.7718,0.011777,0.019255,-0.704301,0.013503,0.021851,-0.704301,0.545322,0.210310,0.581754,-1.654096,1.869211,-9.094525
1790543636.7859,0.003122,0.009136,-0.705964,0.006236,0.012950,-0.705964,0.654594,0.529629,0.456698,0.262303,0.828171,-10.258860
1790543636.8001,-0.008722,-0.001930,-0.699361,-0.004235,0.002534,-0.699361,0.773580,0.768815,0.548973,-0.120976,1.348691,-7.736133
1790543636.8145,-0.023707,-0.015205,-0.689640,-0.017865,-0.009883,-0.689640,0.916849,0.845306,0.830653,1.297159,1.423051,-7.930189
1790543636.8283,-0.036916,-0.023327,-0.669965,-0.031201,-0.019294,-0.669965,0.649738,0.774886,0.949639,1.067191,2.389731,-7.891378
1790543636.8419,-0.044235,-0.031270,-0.653371,-0.040325,-0.027677,-0.653371,0.553821,0.407001,1.094122,0.185647,1.869211,-10.375294
1790543636.8559,-0.051809,-0.038813,-0.635932,-0.048364,-0.035472,-0.635932,0.505255,0.373005,1.137831,0.913879,1.683311,-9.443825
1790543636.8698,-0.058374,-0.045039,-0.618324,-0.055371,-0.042169,-0.618324,0.432406,0.360864,1.007918,0.415615,1.832031,-9.055714
1790543636.8837,-0.042279,-0.051141,-0.617555,-0.046207,-0.048450,-0.617555,0.216289,-1.155600,0.915643,-2.190688,-1.774428,-14.256413
1790543636.8976,-0.029700,-0.044955,-0.609622,-0.034652,-0.046004,-0.609622,-0.492770,-1.079109,0.590253,2.715294,1.423051,-13.596623
1790543636.9116,-0.021395,-0.032662,-0.604662,-0.025372,-0.036665,-0.604662,-0.967499,-0.867848,0.643676,3.903462,0.456371,-11.306763
1790543636.9255,-0.017092,-0.017289,-0.601143,-0.019576,-0.023102,-0.601143,-1.218827,-0.654159,0.559900,3.750150,-0.138509,-7.542077
1790543636.9395,-0.006491,0.002674,-0.602783,-0.010417,-0.005059,-0.602783,-1.562429,-1.005046,0.176231,3.098574,-0.361589,-8.318301
1790543636.9533,0.005861,0.022241,-0.595333,0.000978,0.014051,-0.595333,-1.476225,-1.263658,0.087599,3.865134,0.419191,-5.795574
1790543636.9673,0.023979,0.042221,-0.585415,0.017079,0.033770,-0.585415,-1.337813,-1.604832,0.239366,1.833751,1.757671,-4.437182
1790543636.9812,0.024919,0.046430,-0.582838,0.022567,0.042632,-0.582838,-0.288794,-0.198856,0.238152,1.220503,2.501271,-10.569350
1790543636.9953,0.025705,0.031492,-0.587700,0.024763,0.034834,-0.587700,0.992126,-0.015520,-0.321567,0.568927,1.720491,-19.340679
1790543637.0102,0.024415,0.030083,-0.597836,0.024520,0.031508,-0.597836,0.167723,0.195740,-0.679739,0.568927,4.769251,-13.092077
1790543637.0248,0.017568,0.028227,-0.609707,0.019653,0.029211,-0.609707,0.040238,0.613405,-0.728305,0.223975,0.753811,-11.927742
1790543637.0396,0.027401,0.023345,-0.604289,0.025077,0.025105,-0.604289,0.302493,-0.310557,-0.643315,-2.650623,0.865351,-5.717951
1790543637.0542,0.034176,0.017531,-0.614133,0.031447,0.019803,-0.614133,0.421479,-0.387048,-0.707665,0.377287,1.423051,-5.523895
1790543637.0690,0.033710,0.011581,-0.625780,0.033031,0.014048,-0.625780,0.445762,0.101037,-0.738018,0.875551,2.575631,-8.667602
1790543637.0828,0.039396,0.006787,-0.635347,0.037487,0.008965,-0.635347,0.375342,-0.231638,-0.843648,-0.925864,2.835891,-10.879840
1790543637.0970,0.047627,0.002903,-0.645003,0.044585,0.004722,-0.645003,0.326776,-0.389476,-0.904356,-1.040848,3.058971,-9.676693
1790543637.1109,0.043018,-0.000485,-0.655773,0.043488,0.001077,-0.655773,0.317063,0.403359,-0.785370,0.837223,3.467951,-9.793126
1790543637.1248,0.026107,0.000638,-0.661704,0.031321,0.000770,-0.661704,0.103374,1.386814,-0.475763,-1.769080,6.293630,-11.267951
1790543637.1388,0.011732,0.001865,-0.673965,0.017609,0.001536,-0.673965,-0.168594,1.205907,-0.602034,-1.539112,0.790991,-16.274595
1790543637.1527,0.007779,0.010763,-0.684607,0.010728,0.007995,-0.684607,-0.747740,0.666827,-0.680953,-3.723807,-0.101329,-8.395923
1790543637.1666,0.005757,0.019344,-0.691623,0.007248,0.015939,-0.691623,-0.728313,0.445854,-0.390773,-2.842263,-0.101329,-7.425644
1790543637.1806,0.005710,0.028135,-0.690579,0.006171,0.024476,-0.690579,-0.655465,0.362078,-0.268145,-3.493839,0.828171,-6.144874
1790543637.1946,0.006302,0.026421,-0.690339,0.006263,0.025838,-0.690339,0.138584,-0.050730,-0.045957,0.377287,2.612811,-11.578441
1790543637.2085,0.002928,0.023300,-0.686663,0.003929,0.024061,-0.686663,0.193220,-0.017949,0.553829,2.140375,1.199971,-7.969000
1790543637.2222,-0.001886,0.014972,-0.682644,-0.000141,0.017699,-0.682644,0.494328,0.164173,0.763876,0.990535,0.270471,-12.160609
1790543637.2362,-0.011243,0.005439,-0.679556,-0.007912,0.009117,-0.679556,0.607243,0.602478,0.534403,-0.082648,0.493551,-7.309210
1790543637.2502,-0.022571,-0.002184,-0.675031,-0.018174,0.001207,-0.675031,0.534394,0.689896,0.527118,0.990535,1.608951,-9.482637
1790543637.2640,-0.032960,-0.013229,-0.666954,-0.028524,-0.008898,-0.666954,0.808790,0.638902,0.635177,0.760567,1.980751,-9.637881
1790543637.2779,-0.047339,-0.022048,-0.653480,-0.041695,-0.018103,-0.653480,0.689805,0.865947,0.840367,1.297159,2.761531,-8.900469
1790543637.2915,-0.058124,-0.028530,-0.637076,-0.053196,-0.025402,-0.637076,0.522253,0.682611,0.961781,0.377287,2.910251,-9.443825
1790543637.3055,-0.065277,-0.035235,-0.621065,-0.061652,-0.032285,-0.621065,0.466402,0.400930,0.996991,0.300631,2.092291,-8.939280
1790543637.3205,-0.072507,-0.043688,-0.608568,-0.069251,-0.040267,-0.608568,0.490685,0.386361,0.904716,0.492271,1.125611,-9.599070
1790543637.3346,-0.062092,-0.046639,-0.593091,-0.064240,-0.044728,-0.593091,0.181079,-0.786501,0.824583,-0.350944,2.910251,-14.450469
1790543637.3490,-0.048203,-0.042877,-0.585639,-0.053014,-0.043432,-0.585639,-0.391996,-1.085180,0.663102,1.182175,0.010211,-12.160609
1790543637.3630,-0.036857,-0.036343,-0.581341,-0.041704,-0.038470,-0.581341,-0.653037,-1.046327,0.689813,3.060246,-1.216729,-10.646972
1790543637.3770,-0.030788,-0.026382,-0.577990,-0.034063,-0.030008,-0.577990,-0.893437,-0.782858,0.536831,4.976645,-1.365448,-9.133336
1790543637.3918,-0.020900,-0.007649,-0.574268,-0.024849,-0.014357,-0.574268,-1.357239,-0.904272,0.353496,2.715294,0.344831,-8.085434
1790543637.4055,-0.012479,0.011616,-0.572335,-0.016190,0.003824,-0.572335,-1.454370,-0.884846,0.184730,3.443526,0.828171,-8.085434
1790543637.4195,0.000417,0.029375,-0.568873,-0.004565,0.021710,-0.568873,-1.325671,-1.221163,0.126451,3.941790,0.939711,-8.395923
1790543637.4334,0.010453,0.044269,-0.568954,0.005947,0.037501,-0.568954,-1.079201,-0.920056,0.013536,2.753622,1.832031,-8.978091
1790543637.4476,-0.003748,0.036561,-0.576755,-0.000839,0.036843,-0.576755,0.501612,1.078422,-0.395630,1.220503,2.501271,-18.952567
1790543637.4616,0.008482,0.033071,-0.580681,0.005685,0.034203,-0.580681,0.365629,-0.530317,-0.886143,-3.915447,5.252591,-12.548721
1790543637.4756,0.010584,0.027288,-0.591918,0.009115,0.029363,-0.591918,0.353487,-0.003379,-0.893428,0.645583,1.162791,-12.005364
1790543637.4895,0.008377,0.020018,-0.602316,0.008599,0.022821,-0.602316,0.505255,0.274660,-0.693095,0.377287,1.460231,-9.016902
1790543637.5035,0.022107,0.012754,-0.603326,0.018055,0.015774,-0.603326,0.535608,-0.644446,-0.835149,-2.573967,1.608951,-7.309210
1790543637.5171,0.028863,0.005124,-0.615482,0.025620,0.008319,-0.615482,0.613314,-0.305700,-0.956564,-0.389272,1.943571,-6.688231
1790543637.5309,0.035968,-0.002668,-0.628023,0.032864,0.000629,-0.628023,0.638811,-0.348195,-0.939566,-0.350944,2.464091,-7.503266
1790543637.5454,0.044796,-0.006775,-0.642071,0.041217,-0.004554,-0.642071,0.351059,-0.448969,-0.997844,-0.350944,3.096151,-9.172147
1790543637.5594,0.052550,-0.010534,-0.654662,0.049150,-0.008740,-0.654662,0.314635,-0.397975,-0.929853,-0.580912,2.910251,-9.715504
1790543637.5737,0.039560,-0.017212,-0.664178,0.042437,-0.014670,-0.664178,0.646095,1.051711,-0.513402,-1.194160,5.326951,-9.754315
1790543637.5876,0.014365,-0.007774,-0.674722,0.022786,-0.009843,-0.674722,-0.582616,2.145653,-0.502475,-5.026958,4.100011,-11.151518
1790543637.6016,0.007076,0.007847,-0.685140,0.011789,0.002540,-0.685140,-1.181188,0.879302,-0.570466,-5.065286,0.790991,-11.578441
1790543637.6155,0.002473,0.017110,-0.694920,0.005268,0.012739,-0.694920,-0.816946,0.731177,-0.541327,-4.183743,-0.844929,-7.891378
1790543637.6299,-0.006174,0.030909,-0.695959,-0.002742,0.025458,-0.695959,-0.781736,0.678969,-0.540113,0.415615,2.426911,-4.592427
1790543637.6442,-0.012229,0.039274,-0.707391,-0.009383,0.035129,-0.707391,-0.654251,0.773672,-0.361634,-2.727279,0.419191,-6.028441
1790543637.6581,-0.015180,0.032359,-0.708867,-0.013441,0.033190,-0.708867,0.483400,0.239449,-0.002248,-0.159304,2.724351,-14.760958
1790543637.6721,-0.011161,0.027074,-0.701364,-0.011845,0.028909,-0.701364,0.309778,-0.497535,0.620607,1.948735,1.497411,-12.898021
1790543637.6863,-0.019918,0.020286,-0.691805,-0.017496,0.022873,-0.691805,0.398410,0.352365,0.945997,2.446998,1.237151,-13.286133
1790543637.7004,-0.025484,0.004992,-0.688548,-0.023088,0.010356,-0.688548,0.897423,0.380290,0.660674,-0.772552,-0.584669,-5.679140
1790543637.7143,-0.042351,-0.007166,-0.680087,-0.036572,-0.001909,-0.680087,0.902279,0.936367,0.616964,3.021918,1.906391,-7.658511
1790543637.7282,-0.059480,-0.023305,-0.671757,-0.052608,-0.016886,-0.671757,1.166962,1.096634,0.694670,1.220503,1.832031,-8.589979
1790543637.7419,-0.079875,-0.036256,-0.659192,-0.071695,-0.030445,-0.659192,0.952059,1.347961,0.936284,1.143847,2.241011,-8.978091
1790543637.7556,-0.093125,-0.046735,-0.643106,-0.086696,-0.041848,-0.643106,0.780865,0.935153,0.976351,-0.427600,3.058971,-10.414105
1790543637.7697,-0.087563,-0.054939,-0.624912,-0.087303,-0.051011,-0.624912,0.522253,-0.439256,1.089266,-0.580912,2.352551,-11.190329
1790543637.7840,-0.077671,-0.057052,-0.612742,-0.080561,-0.055240,-0.612742,-0.024111,-0.809569,0.976351,1.067191,-0.064149,-12.199420
1790543637.7980,-0.071270,-0.061437,-0.602318,-0.074057,-0.059578,-0.602318,0.049952,-0.654159,1.083195,2.370342,-1.960328,-11.656063
1790543637.8121,-0.067815,-0.063072,-0.589998,-0.069688,-0.062024,-0.589998,-0.138240,-0.538816,1.109906,3.635166,-1.737248,-9.560259
1790543637.8269,-0.061756,-0.058170,-0.577681,-0.064136,-0.059326,-0.577681,-0.547406,-0.696654,0.952068,4.325070,-1.588528,-10.763406
1790543637.8406,-0.056070,-0.046712,-0.569723,-0.058490,-0.050496,-0.569723,-0.997853,-0.677228,0.683742,3.596838,-0.621849,-9.754315
1790543637.8537,-0.048520,-0.030117,-0.563533,-0.051511,-0.036231,-0.563533,-1.403376,-0.826567,0.534403,3.290214,-0.212869,-9.637881
1790543637.8668,-0.037258,-0.009855,-0.557688,-0.041534,-0.017768,-0.557688,-1.649847,-1.200523,0.417845,4.670021,0.382011,-9.327392
1790543637.8805,-0.029942,0.014809,-0.551982,-0.033419,0.005036,-0.551982,-1.855037,-0.909129,0.302502,5.321597,0.902531,-8.279490
1790543637.8945,-0.016407,0.040035,-0.548382,-0.021511,0.029535,-0.548382,-1.842896,-1.239376,0.238152,2.485326,1.088431,-6.455364
1790543637.9085,-0.020137,0.038664,-0.544509,-0.020549,0.035925,-0.544509,0.026883,0.256447,0.036605,0.683911,1.348691,-14.295224
1790543637.9224,-0.019752,0.029212,-0.547992,-0.019991,0.031226,-0.547992,0.740798,0.142318,-0.402915,-1.999048,5.178231,-17.671798
1790543637.9363,-0.023065,0.029273,-0.563308,-0.022143,0.029859,-0.563308,0.107016,0.385147,-0.756230,0.837223,5.550031,-15.808861
1790543637.9502,-0.027916,0.037136,-0.580888,-0.026184,0.034953,-0.580888,-0.407780,0.340223,-0.649386,1.718767,2.501271,-5.446273
1790543637.9642,-0.015219,0.034163,-0.562491,-0.018509,0.034400,-0.562491,0.109445,-0.535173,-0.644529,-3.570495,0.010211,-8.589979
1790543637.9778,0.000496,0.018877,-0.554283,-0.005205,0.023534,-0.554283,1.038263,-0.686941,-0.914069,-4.145415,0.196111,-8.085434
1790543637.9914,0.014487,0.011838,-0.568642,0.008579,0.015347,-0.568642,0.760225,-0.713652,-1.059766,-1.577440,3.914111,-5.912007
1790543638.0054,0.021188,0.009437,-0.584052,0.017405,0.011210,-0.584052,0.343774,-0.248636,-1.025770,-0.887536,4.248731,-8.201867
1790543638.0192,0.026295,0.006701,-0.599038,0.023628,0.008054,-0.599038,0.324348,-0.101724,-1.059766,-1.577440,4.285911,-9.831937
1790543638.0333,0.032290,0.003597,-0.614974,0.029691,0.004934,-0.614974,0.405695,-0.185500,-1.084049,-1.270816,5.550031,-9.715504
1790543638.0473,0.033154,-0.001878,-0.626983,0.032115,0.000166,-0.626983,0.558677,0.182385,-0.719806,-2.420655,5.103871,-9.599070
1790543638.0611,0.026071,-0.001237,-0.637467,0.027884,-0.000816,-0.637467,-0.004685,0.699609,-0.553468,-2.497311,4.211551,-15.925294
1790543638.0755,0.024467,0.006712,-0.645626,0.025492,0.004453,-0.645626,-0.530408,0.354793,-0.223222,-4.796990,2.910251,-12.548721
1790543638.0896,0.024660,0.016136,-0.652627,0.024910,0.012631,-0.652627,-0.666392,0.329296,-0.071454,-6.061814,1.832031,-9.016902
1790543638.1035,0.016958,0.028499,-0.650672,0.019344,0.023738,-0.650672,-0.773237,0.761531,0.087599,-1.577440,1.646131,-3.855014
1790543638.1174,0.012371,0.040674,-0.650576,0.014463,0.035593,-0.650576,-0.725885,0.597621,-0.172228,-2.229015,2.575631,-5.019350
1790543638.1314,0.014948,0.030421,-0.654283,0.014803,0.031973,-0.654283,0.620598,-0.244993,0.198085,0.262303,0.233291,-10.996273
1790543638.1453,0.006631,0.024705,-0.634820,0.009083,0.026885,-0.634820,0.445762,0.271017,0.744449,4.746677,3.691031,-14.489280
1790543638.1592,-0.001761,0.014277,-0.630038,0.001492,0.018059,-0.630038,0.686162,0.513846,0.856150,-1.155832,1.237151,-13.519000
1790543638.1732,-0.013268,0.003962,-0.625402,-0.008840,0.008191,-0.625402,0.641239,0.699609,0.848866,-0.082648,0.493551,-10.957462
1790543638.1879,-0.026168,-0.011752,-0.618549,-0.020969,-0.005769,-0.618549,0.990912,0.739676,0.818512,0.415615,0.382011,-6.610609
1790543638.2017,-0.044648,-0.025527,-0.600444,-0.037544,-0.019599,-0.600444,0.998197,1.075993,1.061340,1.795423,1.497411,-7.076343
1790543638.2153,-0.061748,-0.036223,-0.583710,-0.054487,-0.031236,-0.583710,0.807576,1.147628,1.143902,-0.005993,1.906391,-6.765853
1790543638.2294,-0.073229,-0.045258,-0.563541,-0.067606,-0.041051,-0.563541,0.687376,0.776100,1.272601,-1.194160,3.616671,-9.870749
1790543638.2434,-0.065878,-0.054860,-0.555930,-0.066396,-0.050717,-0.555930,0.415408,-0.571597,1.462007,-2.152360,-1.700068,-14.605714
1790543638.2577,-0.054687,-0.051385,-0.534388,-0.058200,-0.051185,-0.534388,-0.336146,-0.974693,1.278672,2.063719,2.092291,-16.274595
1790543638.2717,-0.051690,-0.047286,-0.515289,-0.053643,-0.048455,-0.515289,-0.563190,-0.597094,1.151187,5.091629,-2.480848,-9.909560
1790543638.2857,-0.047365,-0.040521,-0.500160,-0.049248,-0.042901,-0.500160,-0.739241,-0.649303,0.992134,3.903462,-1.997508,-8.900469
1790543638.2996,-0.032559,-0.025415,-0.486959,-0.037566,-0.030661,-0.486959,-1.229754,-1.290370,0.847651,1.258831,-0.064149,-6.106063
1790543638.3138,-0.029314,-0.002958,-0.470293,-0.031790,-0.011269,-0.470293,-1.663203,-0.609236,0.813655,3.481854,0.642271,-6.959909
1790543638.3283,-0.019250,0.018909,-0.456151,-0.023012,0.009856,-0.456151,-1.687486,-1.020830,0.694670,3.558510,-0.807749,-9.676693
1790543638.3426,-0.011621,0.040377,-0.445347,-0.015038,0.031221,-0.445347,-1.635278,-0.858135,0.518619,3.558510,-0.175689,-8.900469
1790543638.3568,-0.015790,0.047517,-0.434560,-0.015564,0.042628,-0.434560,-0.751382,0.094967,0.473696,3.711822,-3.670608,-18.564455
1790543638.3708,-0.002520,0.039981,-0.424475,-0.006433,0.040775,-0.424475,0.527109,-0.741577,0.017178,-6.560078,3.393591,-16.779140
1790543638.3852,-0.009909,0.034583,-0.432809,-0.008866,0.036441,-0.432809,0.478544,0.661971,-0.464836,-0.504256,4.323091,-11.423196
1790543638.3992,-0.010695,0.032128,-0.443762,-0.010146,0.033422,-0.443762,0.102160,0.064613,-0.588679,2.178703,0.605091,-10.297672
1790543638.4132,-0.009024,0.035600,-0.452067,-0.009360,0.034947,-0.452067,-0.105459,0.147175,-0.691881,-1.002520,2.203831,-4.902916
1790543638.4272,-0.006789,0.023145,-0.461588,-0.007561,0.026685,-0.461588,0.745655,0.008762,-0.753802,-0.082648,-0.547489,-7.891378
1790543638.4408,0.008930,0.010580,-0.468689,0.003983,0.015412,-0.468689,1.023694,-0.702725,-1.107117,-3.072231,2.278191,-6.455364
1790543638.4544,0.019439,0.003064,-0.481637,0.014802,0.006768,-0.481637,0.738370,-0.564313,-1.147184,-0.235960,3.133331,-6.028441
1790543638.4683,0.025552,-0.002701,-0.496596,0.022327,0.000140,-0.496596,0.530752,-0.321484,-1.116830,1.067191,4.025651,-9.909560
1790543638.4822,0.030371,-0.007814,-0.509978,0.027958,-0.005428,-0.509978,0.466402,-0.183072,-1.031840,-0.159304,3.393591,-9.327392
1790543638.4961,0.033200,-0.014763,-0.525595,0.031627,-0.011963,-0.525595,0.519825,0.159316,-0.927424,-4.068759,2.278191,-9.948371
1790543638.5099,0.028503,-0.019148,-0.537630,0.029440,-0.016992,-0.537630,0.363200,0.603692,-0.769586,-3.992103,4.025651,-15.226693
1790543638.5243,0.021100,-0.014357,-0.547847,0.023602,-0.015148,-0.547847,-0.309434,0.788242,-0.422341,-6.521750,3.691031,-17.128441
1790543638.5385,0.016046,-0.002803,-0.555017,0.018313,-0.006506,-0.555017,-0.796305,0.630403,-0.183155,-5.448566,2.575631,-12.238231
1790543638.5526,0.019999,0.004438,-0.564396,0.019493,0.001155,-0.564396,-0.611756,-0.021591,0.019607,-4.030431,0.047391,-8.124245
1790543638.5666,0.003920,0.020025,-0.557421,0.008592,0.014364,-0.557421,-1.007566,1.129416,0.133736,0.108991,1.385871,-3.699769
1790543638.5809,-0.006212,0.037748,-0.568400,-0.001771,0.030732,-0.568400,-1.264964,1.023785,-0.186798,-3.493839,1.237151,-7.542077
1790543638.5949,-0.002190,0.034859,-0.577400,-0.002064,0.033621,-0.577400,0.070592,-0.297201,0.108239,-0.274288,-0.026969,-16.158161
1790543638.6090,-0.005492,0.028275,-0.576914,-0.004464,0.029878,-0.576914,0.361986,0.035474,0.589039,2.370342,0.679451,-15.614805
1790543638.6229,-0.015387,0.021491,-0.570131,-0.012110,0.024007,-0.570131,0.445762,0.518702,0.766304,0.913879,1.162791,-7.813756
1790543638.6368,-0.020747,0.015386,-0.567869,-0.018156,0.017972,-0.567869,0.369271,0.341437,0.490694,-0.312616,0.753811,-7.658511
1790543638.6508,-0.032227,0.005639,-0.564629,-0.028006,0.009339,-0.564629,0.626669,0.591551,0.579326,2.332014,0.753811,-8.512357
1790543638.6644,-0.042282,-0.003126,-0.555250,-0.037999,0.000613,-0.555250,0.653380,0.584266,0.638819,1.105519,1.720491,-7.619700
1790543638.6781,-0.052828,-0.009968,-0.540390,-0.048379,-0.006794,-0.540390,0.558677,0.670470,0.705597,0.492271,2.612811,-8.318301
1790543638.6920,-0.059504,-0.016728,-0.527521,-0.056166,-0.013747,-0.527521,0.477330,0.392431,0.784516,0.223975,2.501271,-11.306763
1790543638.7059,-0.067307,-0.020774,-0.509644,-0.063965,-0.018666,-0.509644,0.330418,0.369363,0.811227,1.872079,2.835891,-9.016902
1790543638.7199,-0.066879,-0.023687,-0.485823,-0.066005,-0.022181,-0.485823,0.326776,-0.146648,0.780874,0.760567,4.583351,-9.715504
1790543638.7337,-0.048983,-0.027673,-0.483400,-0.054090,-0.026026,-0.483400,0.068164,-1.351077,0.784516,-0.925864,-1.291089,-13.014455
1790543638.7478,-0.037569,-0.014417,-0.473305,-0.042525,-0.017900,-0.473305,-1.022136,-0.990476,0.681314,1.680439,0.976891,-10.258860
1790543638.7618,-0.033275,-0.002898,-0.466197,-0.036050,-0.007399,-0.466197,-0.996639,-0.661444,0.601181,4.401726,-0.882109,-8.667602
1790543638.7758,-0.022007,0.011343,-0.457385,-0.026220,0.005721,-0.457385,-1.081629,-1.113105,0.352282,3.098574,0.753811,-6.959909
1790543638.7898,-0.008863,0.025520,-0.445195,-0.014070,0.019580,-0.445195,-0.999067,-1.279442,0.366851,3.136902,1.608951,-6.377742
1790543638.8047,-0.011699,0.030939,-0.439006,-0.012411,0.027531,-0.439006,-0.320362,0.031831,0.344997,2.140375,3.319231,-11.073895
1790543638.8193,-0.017055,0.025096,-0.445147,-0.015661,0.025826,-0.445147,0.391126,0.360864,-0.388345,3.060246,2.575631,-16.119350
1790543638.8335,-0.002386,0.024304,-0.456953,-0.006368,0.024761,-0.456953,0.113087,-0.691798,-1.022127,-2.842263,2.947431,-10.996273
1790543638.8475,0.000825,0.020601,-0.470339,-0.001333,0.021849,-0.470339,0.194435,-0.024019,-0.912855,-0.312616,0.456371,-7.969000
1790543638.8616,0.011638,0.011076,-0.476434,0.007747,0.014308,-0.476434,0.674021,-0.610450,-0.565610,-0.504256,0.828171,-4.708860
1790543638.8758,0.023103,-0.004167,-0.486241,0.018496,0.001375,-0.486241,1.030978,-0.575240,-0.791440,-1.730752,1.014071,-9.405014
1790543638.8896,0.044497,-0.020599,-0.497601,0.036697,-0.014007,-0.497601,1.175461,-1.281871,-1.107117,-2.305671,1.608951,-10.375294
1790543638.9033,0.052610,-0.025585,-0.505809,0.047836,-0.022111,-0.505809,0.522253,-0.495107,-1.211534,0.645583,3.616671,-7.037532
1790543638.9170,0.057165,-0.031470,-0.518946,0.054366,-0.028663,-0.518946,0.406909,-0.219496,-1.063408,0.108991,1.683311,-9.560259
1790543638.9311,0.065385,-0.038170,-0.532418,0.062079,-0.035318,-0.532418,0.490685,-0.372478,-1.091333,-1.500784,2.278191,-8.978091
1790543638.9454,0.052857,-0.046161,-0.551382,0.055624,-0.042908,-0.551382,0.444548,1.028642,-1.080406,-0.734224,0.456371,-16.856763
1790543638.9592,0.048412,-0.038596,-0.567215,0.050576,-0.039890,-0.567215,-0.640895,0.682611,-0.772014,-6.636734,0.270471,-13.092077
1790543638.9731,0.042645,-0.028462,-0.583133,0.045024,-0.031890,-0.583133,-0.888580,0.691110,-0.622675,-4.068759,-1.068009,-11.539630
1790543638.9873,0.038643,-0.014427,-0.594054,0.040558,-0.019666,-0.594054,-1.186045,0.720250,-0.565610,-4.375383,-1.253909,-5.756762
1790543639.0016,0.022261,0.004410,-0.600988,0.027750,-0.002813,-0.600988,-1.280748,1.058995,-0.432054,1.335487,1.162791,-4.553616
1790543639.0156,0.011332,0.014974,-0.617878,0.016257,0.009638,-0.617878,-0.985712,1.001931,-0.330066,-1.884064,-1.514168,-7.386832
1790543639.0297,0.000742,0.028413,-0.621954,0.005397,0.022780,-0.621954,-1.001495,0.959436,-0.265717,-2.765607,1.460231,-12.471098
1790543639.0440,0.012643,0.023720,-0.626958,0.010469,0.023438,-0.626958,0.171366,-0.830210,0.142235,-1.654096,-1.216729,-20.582637
1790543639.0580,0.012606,0.021974,-0.617161,0.011965,0.022413,-0.617161,0.108230,-0.146648,0.776017,-0.082648,1.869211,-11.190329
1790543639.0722,0.011452,0.019082,-0.610490,0.011606,0.020081,-0.610490,0.151940,-0.173359,0.921714,0.913879,0.790991,-7.386832
1790543639.0872,0.000615,0.013566,-0.596323,0.003912,0.015521,-0.596323,0.460332,0.601264,0.552615,0.415615,2.203831,-6.106063
1790543639.1020,-0.011285,0.004652,-0.589322,-0.006726,0.007913,-0.589322,0.606029,0.553912,0.706811,2.638638,2.092291,-10.103616
1790543639.1165,-0.024453,-0.007304,-0.575974,-0.019135,-0.002739,-0.575974,0.868283,0.676541,0.870720,2.178703,2.947431,-10.452916
1790543639.1307,-0.040618,-0.012421,-0.557059,-0.034173,-0.009516,-0.557059,0.466402,0.930296,0.909573,1.795423,3.653851,-8.978091
1790543639.1456,-0.045597,-0.016844,-0.533168,-0.042170,-0.014646,-0.533168,0.388697,0.210310,0.966637,0.147319,3.876931,-9.210958
1790543639.1596,-0.047524,-0.019675,-0.517582,-0.045918,-0.018166,-0.517582,0.210218,-0.021591,0.896217,0.952207,2.389731,-9.521448
1790543639.1733,-0.050294,-0.019802,-0.503534,-0.048981,-0.019311,-0.503534,0.037810,0.023332,0.761447,1.680439,2.687171,-9.754315
1790543639.1876,-0.037304,-0.017170,-0.489208,-0.040807,-0.017812,-0.489208,-0.158881,-1.014759,0.616964,0.607255,3.356411,-12.354665
1790543639.2017,-0.029877,-0.010442,-0.478404,-0.033156,-0.012653,-0.478404,-0.484271,-0.729436,0.545330,3.060246,2.649991,-13.324944
1790543639.2156,-0.024010,-0.002955,-0.474158,-0.026754,-0.005864,-0.474158,-0.634825,-0.654159,0.392348,3.251886,0.382011,-10.608161
1790543639.2296,-0.016030,0.006931,-0.471194,-0.019247,0.003092,-0.471194,-0.769594,-0.820497,0.187158,2.983590,0.605091,-7.542077
1790543639.2436,-0.005129,0.019849,-0.469574,-0.009364,0.014822,-0.469574,-0.955358,-1.017188,-0.018032,2.676966,0.976891,-6.532986
1790543639.2574,0.007532,0.033417,-0.468777,0.002463,0.027839,-0.468777,-0.975998,-1.037828,-0.130947,1.872079,1.794851,-8.357112
1790543639.2714,0.000223,0.031153,-0.476530,0.000895,0.030159,-0.476530,0.026883,0.483492,-0.484262,4.325070,-0.584669,-16.585084
1790543639.2854,-0.000977,0.028511,-0.492273,-0.000415,0.029006,-0.492273,0.261212,0.449496,-1.102261,-2.765607,3.765391,-12.315854
1790543639.2993,0.014397,0.025293,-0.508137,0.009953,0.026406,-0.508137,0.332847,-0.695440,-1.337804,-2.382327,3.058971,-8.163056
1790543639.3131,0.006270,0.020098,-0.520718,0.007375,0.021991,-0.520718,0.388697,0.566054,-0.804796,2.332014,1.497411,-6.959909
1790543639.3273,0.014171,0.011632,-0.532929,0.012132,0.014739,-0.532929,0.545322,-0.269276,-0.938352,-1.577440,0.753811,-7.852567
1790543639.3419,0.027740,0.002164,-0.548055,0.023058,0.005936,-0.548055,0.699518,-0.713652,-1.193321,-0.542584,3.021791,-10.724595
1790543639.3557,0.032072,-0.006892,-0.565742,0.029368,-0.003044,-0.565742,0.683734,-0.110223,-1.328091,0.070663,2.092291,-8.201867
1790543639.3693,0.037279,-0.008660,-0.582382,0.034905,-0.006975,-0.582382,0.300065,-0.164860,-1.271026,-0.350944,3.393591,-6.416553
1790543639.3833,0.046855,-0.012893,-0.598500,0.043270,-0.011118,-0.598500,0.300065,-0.418616,-1.126544,-1.539112,1.683311,-8.007811
1790543639.3974,0.053351,-0.019135,-0.612992,0.050327,-0.016730,-0.612992,0.459118,-0.240137,-1.028198,-1.232488,1.943571,-7.891378
1790543639.4113,0.044871,-0.026607,-0.622435,0.046508,-0.023644,-0.622435,0.568390,0.743318,-0.565610,-1.539112,3.505131,-14.450469
1790543639.4255,0.023134,-0.020116,-0.636606,0.030146,-0.021174,-0.636606,-0.470915,1.771697,-0.491547,-4.950302,2.910251,-18.370399
1790543639.4394,0.019155,-0.005481,-0.649170,0.022452,-0.010189,-0.649170,-1.111982,0.606120,-0.354349,-6.215126,0.939711,-13.247322
1790543639.4534,0.017636,0.003997,-0.663243,0.019081,-0.000259,-0.663243,-0.865512,0.442211,-0.328852,-2.727279,-0.919289,-5.291028
1790543639.4673,0.006167,0.016698,-0.658902,0.010041,0.011611,-0.658902,-0.779307,0.926654,-0.152802,-0.427600,1.794851,-4.204315
1790543639.4813,-0.013684,0.030037,-0.640911,-0.006567,0.024509,-0.640911,-0.582616,1.488802,-0.417485,0.185647,1.869211,-1.759210
1790543639.4952,-0.010063,0.022468,-0.646808,-0.009014,0.023081,-0.646808,0.535608,-0.146648,-0.145517,-2.190688,3.282051,-17.865854
1790543639.5092,-0.004260,0.015413,-0.639864,-0.005686,0.017713,-0.639864,0.499184,-0.479323,0.533189,-1.040848,3.319231,-16.856763
1790543639.5230,-0.016888,0.012265,-0.632157,-0.013527,0.013900,-0.632157,0.125228,0.671684,0.890146,2.102047,0.493551,-11.772497
1790543639.5369,-0.015797,0.000782,-0.637529,-0.015116,0.004717,-0.637529,0.623027,-0.078656,0.802728,-1.769080,-0.993649,-8.357112
1790543639.5508,-0.031603,-0.010816,-0.619069,-0.026657,-0.006156,-0.619069,0.839144,0.716607,0.587825,3.635166,1.014071,-5.096972
1790543639.5646,-0.048473,-0.024999,-0.606893,-0.041928,-0.019346,-0.606893,1.012766,0.978862,0.768732,2.025391,1.237151,-6.959909
1790543639.5787,-0.062057,-0.037696,-0.593554,-0.056018,-0.032191,-0.593554,0.902279,0.870803,1.011561,0.147319,2.055111,-8.978091
1790543639.5928,-0.078206,-0.048174,-0.578102,-0.071550,-0.043379,-0.578102,0.740798,1.027428,1.075910,0.683911,2.501271,-9.909560
1790543639.6064,-0.077818,-0.053930,-0.563249,-0.075937,-0.050764,-0.563249,0.428764,-0.058015,1.132975,-0.964192,3.356411,-11.112707
1790543639.6203,-0.068529,-0.055121,-0.553349,-0.070752,-0.053814,-0.553349,-0.048394,-0.725793,0.950854,-0.159304,0.530731,-12.354665
1790543639.6344,-0.060228,-0.051514,-0.542172,-0.063385,-0.052204,-0.542172,-0.359214,-0.706367,0.788159,1.220503,0.716631,-12.082986
1790543639.6483,-0.059612,-0.053693,-0.534219,-0.060744,-0.053246,-0.534219,-0.093317,-0.303272,0.797872,3.980118,-2.480848,-11.151518
1790543639.6623,-0.051489,-0.047539,-0.521215,-0.054266,-0.049251,-0.521215,-0.558334,-0.831424,0.716524,2.753622,0.084571,-8.163056
1790543639.6761,-0.039427,-0.037464,-0.509401,-0.043878,-0.041000,-0.509401,-0.881295,-1.114319,0.699526,2.485326,-0.398769,-8.512357
1790543639.6900,-0.031401,-0.021294,-0.497374,-0.035144,-0.027206,-0.497374,-1.303817,-0.896988,0.676457,3.750150,-0.361589,-8.784035
1790543639.7039,-0.016389,-0.000066,-0.488513,-0.022015,-0.008208,-0.488513,-1.602496,-1.334079,0.372922,2.983590,0.642271,-8.861658
1790543639.7177,-0.003555,0.022150,-0.482250,-0.009093,0.013042,-0.482250,-1.663203,-1.255159,0.224797,4.248414,1.014071,-8.628791
1790543639.7315,0.002865,0.038504,-0.478894,-0.000722,0.030865,-0.478894,-1.268607,-0.582525,-0.020460,3.098574,1.162791,-16.196973
1790543639.7454,-0.012080,0.027735,-0.491781,-0.008672,0.028674,-0.491781,0.789364,1.602931,-0.384703,-8.514805,1.906391,-9.482637
1790543639.7593,0.014249,0.019131,-0.505786,0.007373,0.021994,-0.505786,0.799077,-1.362004,-1.144756,-8.706445,6.479530,-11.073895
1790543639.7733,0.008232,0.013893,-0.515310,0.007974,0.016323,-0.515310,0.425122,0.381504,-0.744089,4.171758,3.393591,-11.850119
1790543639.7875,0.008266,0.013570,-0.525535,0.008178,0.014396,-0.525535,-0.009541,0.159316,-0.676097,-0.580912,1.348691,-10.569350
1790543639.8014,0.023615,0.005225,-0.534861,0.018984,0.007976,-0.534861,0.548964,-0.879990,-0.765943,-1.999048,1.125611,-11.423196
1790543639.8150,0.036570,-0.008687,-0.549860,0.031294,-0.003688,-0.549860,1.020051,-0.497535,-1.091333,-3.302199,1.199971,-6.144874
1790543639.8291,0.046492,-0.013353,-0.553900,0.041932,-0.010453,-0.553900,0.629097,-0.507248,-0.992988,-0.695896,3.951291,-4.475993
1790543639.8437,0.049770,-0.015819,-0.564983,0.047419,-0.014209,-0.564983,0.284281,-0.039803,-0.991774,-0.695896,3.021791,-6.804665
1790543639.8578,0.054028,-0.020991,-0.579058,0.052045,-0.018956,-0.579058,0.395982,-0.079870,-0.946851,-2.075704,3.058971,-11.384385
1790543639.8719,0.040962,-0.021333,-0.593544,0.044287,-0.020620,-0.593544,0.041453,1.112418,-0.874002,-1.462456,3.244871,-13.208511
1790543639.8859,0.025145,-0.007779,-0.607226,0.030888,-0.011632,-0.607226,-0.937146,1.329749,-0.623889,-2.957247,4.360271,-17.671798
1790543639.8999,0.022406,0.005447,-0.634064,0.024951,0.000324,-0.634064,-1.067059,0.555126,-0.299713,-5.716862,-0.287229,-9.987182
1790543639.9140,0.020691,0.013920,-0.652648,0.021969,0.009841,-0.652648,-0.778093,0.471351,-0.189226,-4.758662,-1.030829,-7.930189
1790543639.9280,0.008469,0.029810,-0.638852,0.012519,0.023820,-0.638852,-0.915291,1.074779,-0.305784,-0.964192,2.241011,-3.660958
1790543639.9420,-0.002787,0.040672,-0.660812,0.001805,0.035616,-0.660812,-0.827873,1.204692,-0.502475,-3.685479,1.014071,-7.813756
1790543639.9558,-0.005148,0.043563,-0.657786,-0.003062,0.041179,-0.657786,-0.099388,0.303799,-0.417485,-0.619240,4.248731,-11.035084
1790543639.9698,0.003330,0.036606,-0.661894,0.001412,0.037978,-0.661894,0.438477,-0.577668,0.177445,-2.382327,2.389731,-19.069001
1790543639.9837,-0.005986,0.036659,-0.650252,-0.003767,0.037054,-0.650252,-0.053250,0.352365,0.731094,3.711822,1.571771,-11.888930
1790543639.9978,-0.009387,0.025676,-0.643598,-0.007701,0.029090,-0.643598,0.683734,0.014833,0.953282,0.837223,0.679451,-10.103616
1790543640.0117,-0.023281,0.009696,-0.645155,-0.018607,0.015514,-0.645155,1.046762,0.910870,0.623035,0.032335,0.196111,-3.893825
1790543640.0255,-0.037582,-0.003542,-0.634101,-0.031890,0.002175,-0.634101,0.939918,0.848949,0.788159,1.488799,1.757671,-9.754315
1790543640.0392,-0.054252,-0.017319,-0.618456,-0.047543,-0.011471,-0.618456,1.011552,1.043212,0.933856,1.258831,2.278191,-9.831937
1790543640.0529,-0.072329,-0.028184,-0.603588,-0.064893,-0.023170,-0.603588,0.785722,1.182838,0.947211,0.952207,2.055111,-9.327392
1790543640.0665,-0.083380,-0.038640,-0.582342,-0.077834,-0.033999,-0.582342,0.786936,0.705680,1.100193,0.453943,3.505131,-11.811308
1790543640.0806,-0.071670,-0.043278,-0.568445,-0.073519,-0.040494,-0.568445,0.223574,-0.913986,1.030987,-0.159304,1.683311,-13.324944
1790543640.0948,-0.057920,-0.037339,-0.550410,-0.062600,-0.038286,-0.550410,-0.447847,-1.105820,0.808799,1.258831,2.278191,-11.345574
1790543640.1087,-0.058719,-0.036676,-0.543333,-0.059883,-0.037159,-0.543333,-0.297293,-0.261991,0.886504,3.788478,-1.774428,-8.822846
1790543640.1227,-0.050508,-0.033326,-0.532646,-0.053321,-0.034476,-0.532646,-0.424778,-0.864206,0.816084,2.830278,-0.659029,-8.473546
1790543640.1366,-0.036747,-0.024378,-0.524554,-0.041719,-0.027407,-0.524554,-0.798734,-1.172598,0.712882,1.642111,-0.324409,-9.754315
1790543640.1506,-0.026998,-0.010433,-0.510698,-0.031414,-0.015525,-0.510698,-1.144764,-1.045113,0.666744,3.826806,-0.324409,-8.473546
1790543640.1645,-0.016998,0.005563,-0.500444,-0.021323,-0.000764,-0.500444,-1.266178,-1.008689,0.511334,3.558510,0.121751,-9.987182
1790543640.1784,-0.003679,0.024104,-0.488752,-0.008972,0.016644,-0.488752,-1.330528,-1.243018,0.325570,3.290214,1.980751,-8.745224
1790543640.1923,-0.009125,0.027079,-0.491266,-0.009079,0.023948,-0.491266,-0.396853,0.303799,-0.076311,3.558510,-2.146228,-17.749420
1790543640.2063,-0.000855,0.020163,-0.501592,-0.003322,0.021299,-0.501592,0.485829,-0.270490,-0.911640,-3.263871,2.055111,-13.402567
1790543640.2202,0.018659,0.010685,-0.496655,0.012064,0.013869,-0.496655,0.876782,-0.841137,-0.931067,-6.790045,4.137191,-6.028441
1790543640.2342,0.010774,0.004169,-0.504285,0.011161,0.007079,-0.504285,0.460332,0.557555,-0.466050,1.488799,1.534591,-8.939280
1790543640.2481,0.024520,-0.001159,-0.513939,0.020512,0.001313,-0.513939,0.354701,-0.762218,-0.705236,-2.612295,1.608951,-12.432287
1790543640.2620,0.033465,-0.012780,-0.525914,0.029579,-0.008552,-0.525914,0.799077,-0.467181,-0.874002,-0.925864,1.423051,-11.112707
1790543640.2756,0.041826,-0.024354,-0.535950,0.038152,-0.019613,-0.535950,0.921706,-0.372478,-1.121687,-1.309144,2.426911,-7.891378
1790543640.2892,0.053091,-0.027302,-0.538259,0.048609,-0.024995,-0.538259,0.467617,-0.535173,-1.073121,-1.270816,2.649991,-3.622147
1790543640.3032,0.053698,-0.032913,-0.544048,0.052172,-0.030538,-0.544048,0.454261,-0.015520,-0.886143,0.875551,2.129471,-7.309210
1790543640.3170,0.061176,-0.038885,-0.552698,0.058474,-0.036381,-0.552698,0.460332,-0.385834,-0.770800,-1.462456,2.389731,-10.103616
1790543640.3312,0.046871,-0.041889,-0.558835,0.050352,-0.040237,-0.558835,0.303707,1.133058,-0.591107,-1.424128,4.471811,-12.820399
1790543640.3458,0.038492,-0.027939,-0.582857,0.042050,-0.031628,-0.582857,-0.950501,0.889015,-0.393202,-7.020013,2.649991,-13.363756
1790543640.3600,0.036556,-0.014070,-0.609327,0.038204,-0.019338,-0.609327,-1.091342,0.460423,-0.292428,-5.831846,-0.064149,-10.879840
1790543640.3739,0.034696,-0.002667,-0.630199,0.035749,-0.007668,-0.630199,-0.951716,0.507775,-0.280287,-5.103614,-0.361589,-7.852567
1790543640.3879,0.024952,0.015757,-0.604305,0.028191,0.008730,-0.604305,-1.048847,0.795527,-0.332495,-0.312616,2.129471,-3.117602
1790543640.4020,0.018761,0.019897,-0.635052,0.021590,0.016547,-0.635052,-0.427206,0.772458,-0.390773,-1.922392,0.010211,-4.359560
1790543640.4159,0.007174,0.033264,-0.638002,0.011499,0.028249,-0.638002,-0.900722,1.056567,-0.377418,-2.382327,3.356411,-10.802217
1790543640.4297,0.016315,0.029593,-0.652390,0.014870,0.029190,-0.652390,0.159224,-0.554599,-0.130947,-2.995575,1.051251,-20.078091
1790543640.4436,0.019386,0.026469,-0.631224,0.018031,0.027285,-0.631224,0.268497,-0.530317,0.790587,2.983590,3.170511,-12.820399
1790543640.4576,0.013336,0.022777,-0.613721,0.014745,0.024130,-0.613721,0.262426,0.092538,0.992134,1.987063,1.385871,-7.852567
1790543640.4716,0.002168,0.009616,-0.610548,0.005941,0.013970,-0.610548,0.808790,0.482278,0.919286,1.565455,-0.175689,-5.756762
1790543640.4855,-0.008019,-0.004489,-0.596747,-0.003831,0.001048,-0.596747,1.022479,0.567268,0.892575,0.262303,1.237151,-5.950818
1790543640.4992,-0.027262,-0.016914,-0.576267,-0.020233,-0.011526,-0.576267,0.938704,1.123345,1.020060,2.332014,2.017931,-8.628791
1790543640.5128,-0.042316,-0.025511,-0.556117,-0.035691,-0.021316,-0.556117,0.669164,0.967935,1.143902,0.147319,2.873071,-10.297672
1790543640.5265,-0.051654,-0.030235,-0.531030,-0.046865,-0.027559,-0.531030,0.405695,0.532058,1.182755,0.377287,3.021791,-8.900469
1790543640.5403,-0.054649,-0.043028,-0.509534,-0.052314,-0.038388,-0.509534,0.873140,0.029403,1.322381,1.105519,2.501271,-13.635434
1790543640.5543,-0.045697,-0.039144,-0.482716,-0.047682,-0.038917,-0.482716,-0.281509,-0.889703,1.111120,3.175230,3.505131,-14.334035
1790543640.5683,-0.040248,-0.028832,-0.465989,-0.042478,-0.031858,-0.465989,-0.815732,-0.650517,0.873148,3.175230,1.088431,-11.345574
1790543640.5822,-0.034004,-0.022158,-0.461679,-0.036547,-0.025068,-0.461679,-0.690675,-0.933412,0.865864,6.778060,-1.700068,-8.512357
1790543640.5970,-0.017249,-0.009922,-0.446628,-0.023038,-0.014466,-0.446628,-0.950501,-1.493131,0.709239,2.868606,-0.064149,-6.106063
1790543640.6111,-0.006927,0.006043,-0.434383,-0.011760,-0.000110,-0.434383,-1.246752,-1.098535,0.636391,3.366870,-0.026969,-7.231588
1790543640.6252,0.005148,0.022156,-0.422007,0.000076,0.015476,-0.422007,-1.213970,-1.166527,0.551401,4.018446,0.865351,-11.656063
1790543640.6393,-0.010323,0.021218,-0.422263,-0.007204,0.019496,-0.422263,-0.033824,0.966721,0.131308,4.708349,0.382011,-20.194525
1790543640.6532,-0.005079,0.018829,-0.431674,-0.005716,0.019029,-0.431674,0.164081,-0.201284,-0.612961,-1.500784,2.724351,-16.973196
1790543640.6672,0.002915,0.016373,-0.442595,0.000326,0.017169,-0.442595,0.423907,-0.673585,-0.697951,2.408670,3.579491,-4.902916
1790543640.6811,-0.006928,0.010445,-0.443215,-0.004752,0.012463,-0.443215,0.291566,0.576981,-0.235363,1.220503,-0.212869,-3.660958
1790543640.6950,0.003471,0.003178,-0.455305,0.001004,0.005963,-0.455305,0.454261,-0.473252,-0.497618,-3.302199,0.456371,-10.142427
1790543640.7088,0.018210,-0.005220,-0.465641,0.013048,-0.001865,-0.465641,0.591459,-0.875133,-0.798725,-1.539112,1.683311,-12.315854
1790543640.7227,0.018828,-0.014187,-0.482223,0.017094,-0.010490,-0.482223,0.614528,0.126534,-1.224889,0.338959,1.088431,-8.822846
1790543640.7363,0.029593,-0.017667,-0.497149,0.025843,-0.015514,-0.497149,0.300065,-0.577668,-1.101047,-0.810880,1.943571,-7.774944
1790543640.7499,0.037264,-0.021078,-0.512326,0.033838,-0.019409,-0.512326,0.236930,-0.320270,-1.009986,-1.347472,1.199971,-7.386832
1790543640.7640,0.045176,-0.028892,-0.526739,0.041774,-0.026047,-0.526739,0.499184,-0.353052,-0.946851,-1.615768,0.902531,-9.987182
1790543640.7780,0.055114,-0.034750,-0.538866,0.051112,-0.032139,-0.538866,0.425122,-0.503605,-0.823008,-1.960720,1.906391,-9.443825
1790543640.7921,0.045990,-0.033052,-0.546343,0.047527,-0.032778,-0.546343,-0.135812,0.670470,-0.531614,0.913879,2.389731,-15.459560
1790543640.8060,0.030945,-0.015650,-0.555950,0.035919,-0.020788,-0.555950,-1.257679,1.294539,-0.192868,-5.103614,2.538451,-15.886483
