t,imu_roll,imu_pitch,imu_yaw,lpf_roll,lpf_pitch,lpf_yaw,gyro_x,gyro_y,gyro_z,acc_x,acc_y,acc_z
1790545513.4369,-0.013803,-0.036985,-0.008841,-0.009662,-0.025890,-0.008841,0.008071,-0.000855,-0.003857,0.300631,1.385871,-10.025993
1790545513.4523,0.002333,-0.035384,-0.006651,-0.001266,-0.032536,-0.006651,0.008071,0.006430,0.000999,-0.044320,1.385871,-9.715504
1790545513.4660,-0.000947,-0.035873,-0.007107,-0.001043,-0.034872,-0.007107,-0.016212,-0.008140,0.002213,0.223975,1.348691,-9.715504
1790545513.4798,0.001373,-0.037936,-0.006770,0.000648,-0.037017,-0.006770,-0.030782,-0.008140,0.005856,0.070663,1.348691,-10.336483
1790545513.4939,0.000377,-0.039148,-0.007164,0.000458,-0.038509,-0.007164,-0.019854,0.004002,-0.000215,0.185647,1.311511,-10.025993
1790545513.5079,0.000677,-0.040886,-0.007135,0.000611,-0.040173,-0.007135,0.002000,0.033141,-0.001429,0.108991,1.311511,-10.375294
1790545513.5223,-0.002980,-0.042328,-0.008458,-0.001902,-0.041682,-0.008458,-0.042923,0.081707,0.002213,0.338959,1.237151,-10.220049
1790545513.5366,0.000726,-0.040371,-0.005515,-0.000063,-0.040764,-0.005515,-0.165551,0.075636,0.037424,-0.197632,1.311511,-9.870749
1790545513.5507,0.001897,-0.038546,-0.002974,0.001309,-0.039212,-0.002974,-0.218974,0.091420,0.116343,-0.082648,1.237151,-9.715504
1790545513.5646,0.002477,-0.035325,0.001937,0.002126,-0.036491,0.001937,-0.221402,0.057424,0.269325,-0.044320,1.385871,-9.715504
1790545513.5786,-0.001226,-0.034763,0.004997,-0.000221,-0.035282,0.004997,-0.188620,0.010073,0.445375,0.415615,1.162791,-9.599070
1790545513.5924,-0.001476,-0.034741,0.012331,-0.001100,-0.034903,0.012331,-0.158266,-0.088273,0.603214,0.185647,1.125611,-9.482637
1790545513.6064,-0.009904,-0.043407,0.009865,-0.007263,-0.040856,0.009865,-0.044137,-0.073703,0.674848,1.143847,0.196111,-9.405014
1790545513.6203,-0.008786,-0.035929,0.018597,-0.008329,-0.037407,0.018597,-0.231115,-0.145338,0.707630,0.185647,2.017931,-10.064805
1790545513.6342,-0.004510,-0.037594,0.036575,-0.005656,-0.037538,0.036575,-0.225044,-0.006925,0.529151,-0.542584,0.753811,-10.336483
1790545513.6481,-0.001116,-0.041781,0.044669,-0.002478,-0.040508,0.044669,-0.065992,-0.148980,0.347030,-0.159304,0.679451,-11.617252
1790545513.6620,-0.002206,-0.041140,0.045765,-0.002288,-0.040951,0.045765,-0.008927,-0.054277,0.305749,0.377287,1.460231,-10.103616
1790545513.6760,-0.004991,-0.040523,0.043365,-0.004180,-0.040651,0.043365,0.009285,-0.002069,0.259612,0.607255,1.534591,-10.258860
1790545513.6897,-0.008007,-0.038228,0.040230,-0.006859,-0.038955,0.040230,-0.033210,0.073208,0.118771,0.530599,1.646131,-9.560259
1790545513.7033,-0.011730,-0.035011,0.033141,-0.010268,-0.036194,0.033141,-0.013784,0.068351,0.003428,0.722239,1.794851,-8.978091
1790545513.7173,-0.012036,-0.030843,0.027361,-0.011506,-0.032449,0.027361,-0.050208,-0.067633,-0.080348,0.530599,2.055111,-9.521448
1790545513.7317,-0.013155,-0.026435,0.021839,-0.012660,-0.028239,0.021839,-0.114557,-0.068847,-0.058494,0.760567,2.092291,-10.025993
1790545513.7463,-0.010976,-0.019730,0.017455,-0.011481,-0.022283,0.017455,-0.214117,-0.301962,0.036209,0.760567,2.464091,-10.336483
1790545513.7605,-0.010172,-0.013253,0.016826,-0.010565,-0.015962,0.016826,-0.313677,-0.329887,0.034995,1.182175,2.203831,-10.414105
1790545513.7748,-0.005803,-0.005290,0.011959,-0.007232,-0.008492,0.011959,-0.380454,-0.349314,0.005856,0.377287,2.501271,-10.724595
1790545513.7891,-0.005764,-0.011353,0.004950,-0.006205,-0.010495,0.004950,0.457304,0.252901,-0.193263,-0.772552,2.352551,-13.480189
1790545513.8032,-0.006795,-0.012226,-0.013424,-0.006618,-0.011706,-0.013424,0.791193,0.379172,-0.427593,-0.695896,4.657711,-10.258860
1790545513.8173,0.012286,-0.010553,-0.045801,0.006615,-0.010899,-0.045801,0.335889,-0.242469,-0.903537,-3.033903,2.687171,-7.503266
1790545513.8311,0.025127,-0.010969,-0.061638,0.019574,-0.010948,-0.061638,0.275182,-0.539934,-1.112369,-0.772552,2.166651,-8.163056
1790545513.8452,0.022819,-0.007572,-0.043043,0.021846,-0.008585,-0.043043,0.103988,0.144842,-1.190074,0.530599,2.501271,-7.891378
1790545513.8595,0.018141,-0.010480,-0.053283,0.019253,-0.009911,-0.053283,0.082134,0.411954,-1.190074,0.415615,1.088431,-9.327392
1790545513.8736,0.036021,-0.013088,-0.129116,0.030990,-0.012135,-0.129116,-0.045351,-0.299534,-1.292062,-2.957247,0.679451,-8.551168
1790545513.8880,0.035613,-0.017288,-0.160778,0.034226,-0.015742,-0.160778,0.071206,0.273541,-1.353983,-0.312616,0.828171,-10.996273
1790545513.9017,0.032569,-0.012445,-0.164179,0.033066,-0.013434,-0.164179,-0.164337,0.427737,-1.533676,-0.044320,2.464091,-9.482637
1790545513.9156,0.029021,-0.007973,-0.174475,0.030235,-0.009611,-0.174475,-0.363456,0.330606,-1.469327,0.645583,1.646131,-10.375294
1790545513.9293,0.023946,-0.006360,-0.180985,0.025833,-0.007336,-0.180985,-0.188620,0.371887,-1.334557,0.798895,1.199971,-8.434735
1790545513.9433,0.023462,-0.008110,-0.193163,0.024173,-0.007878,-0.193163,-0.035638,0.079279,-1.009167,0.492271,0.865351,-9.288581
1790545513.9575,0.019491,-0.008214,-0.195228,0.020896,-0.008113,-0.195228,-0.005285,0.238331,-0.777266,0.760567,1.497411,-9.133336
1790545513.9714,0.014644,-0.003618,-0.199313,0.016519,-0.004966,-0.199313,-0.248113,0.391313,-0.718987,0.377287,1.943571,-8.939280
1790545513.9854,0.011374,0.000200,-0.214083,0.012917,-0.001350,-0.214083,-0.234757,0.445950,-0.828260,-0.350944,2.352551,-11.927742
1790545513.9993,0.015990,-0.004552,-0.239431,0.015068,-0.003591,-0.239431,0.248471,0.079279,-0.646138,-1.884064,1.460231,-11.772497
1790545514.0135,0.016402,-0.010211,-0.214162,0.016002,-0.008225,-0.214162,0.776623,-0.104057,-0.175051,0.568927,4.471811,-11.462007
1790545514.0283,0.002374,-0.009875,-0.181513,0.006462,-0.009380,-0.181513,0.173194,0.614715,0.317890,2.140375,3.356411,-11.617252
1790545514.0434,-0.003474,-0.018304,-0.175595,-0.000493,-0.015627,-0.175595,0.383241,0.277184,0.719771,0.185647,0.605091,-10.802217
1790545514.0587,-0.004782,-0.026010,-0.189999,-0.003495,-0.022895,-0.189999,0.420879,0.269899,1.041519,-1.270816,0.753811,-6.571797
1790545514.0733,0.001347,-0.030723,-0.202478,-0.000106,-0.028374,-0.202478,0.199905,-0.181762,1.001452,-1.845736,0.716631,-8.124245
1790545514.0870,0.001240,-0.037119,-0.216228,0.000836,-0.034496,-0.216228,0.049352,0.064709,0.822973,-0.849208,-0.956469,-9.676693
1790545514.1006,-0.002438,-0.042287,-0.220775,-0.001456,-0.039950,-0.220775,0.073635,0.224976,0.809618,-0.235960,-0.473129,-11.733686
1790545514.1144,-0.007831,-0.048486,-0.213716,-0.005918,-0.045925,-0.213716,0.270326,0.166697,0.999024,0.798895,0.270471,-9.637881
1790545514.1284,-0.018173,-0.057748,-0.202121,-0.014497,-0.054201,-0.202121,0.542294,0.472661,1.002666,1.182175,0.493551,-9.016902
1790545514.1422,-0.024871,-0.063158,-0.181740,-0.021759,-0.060471,-0.181740,0.458518,0.477517,0.994167,-0.235960,1.497411,-8.434735
1790545514.1559,-0.025474,-0.060361,-0.144957,-0.024359,-0.060394,-0.144957,0.002000,0.223762,0.893394,-1.270816,2.241011,-8.240679
1790545514.1696,-0.024026,-0.059142,-0.134539,-0.024126,-0.059517,-0.134539,-0.095131,-0.042136,0.768337,-0.695896,1.460231,-10.918651
1790545514.1836,-0.023404,-0.059695,-0.121150,-0.023621,-0.059641,-0.121150,0.056637,-0.124697,0.685775,0.415615,1.571771,-10.802217
1790545514.1978,-0.022318,-0.055374,-0.091683,-0.022709,-0.056654,-0.091683,-0.119414,-0.206045,0.586216,0.798895,2.761531,-10.375294
1790545514.2118,-0.020753,-0.053471,-0.078952,-0.021339,-0.054426,-0.078952,-0.121842,-0.237612,0.507296,1.028863,1.832031,-12.703965
1790545514.2258,-0.012551,-0.040499,-0.052025,-0.015188,-0.044677,-0.052025,-0.867325,-0.927245,0.385882,2.753622,2.129471,-11.500819
1790545514.2409,-0.014302,-0.028115,-0.024431,-0.014568,-0.033083,-0.024431,-0.963243,-0.584857,0.167337,5.436581,0.121751,-8.163056
1790545514.2558,-0.004773,-0.016222,-0.016560,-0.007711,-0.021280,-0.016560,-0.941388,-1.065657,-0.036639,2.293686,0.233291,-6.067252
1790545514.2706,0.000156,-0.003359,-0.017244,-0.002204,-0.008736,-0.017244,-0.790834,-0.780334,-0.019641,1.872079,1.125611,-4.592427
1790545514.2855,-0.008782,-0.011434,-0.012607,-0.006809,-0.010625,-0.012607,0.375956,0.577077,-0.325605,1.527127,0.382011,-16.313406
1790545514.3018,-0.000492,-0.015254,-0.032156,-0.002387,-0.013865,-0.032156,0.276396,-0.278893,-1.004310,-0.734224,2.649991,-14.605714
1790545514.3181,-0.003713,-0.013485,-0.051342,-0.003316,-0.013599,-0.051342,-0.116986,0.070780,-1.242282,2.676966,1.088431,-7.891378
1790545514.3318,-0.008267,-0.015369,-0.053160,-0.006781,-0.014838,-0.053160,0.035996,0.195836,-0.768767,1.258831,0.382011,-5.368651
1790545514.3458,0.005304,-0.021645,-0.069465,0.001679,-0.019603,-0.069465,0.372314,-0.542362,-0.857399,-2.803935,0.902531,-11.733686
1790545514.3597,0.014981,-0.037818,-0.073940,0.010990,-0.032353,-0.073940,1.021880,-0.510794,-0.983670,-0.465928,0.233291,-11.811308
1790545514.3734,0.023909,-0.042423,-0.108141,0.020034,-0.039402,-0.108141,0.538651,-0.461015,-1.315131,-0.274288,3.244871,-10.685784
1790545514.3873,0.033225,-0.044684,-0.124177,0.029268,-0.043100,-0.124177,0.161053,-0.607926,-1.253210,0.683911,1.497411,-10.336483
1790545514.4013,0.035864,-0.048953,-0.142834,0.033885,-0.047197,-0.142834,0.338318,-0.185404,-1.190074,0.913879,1.497411,-8.551168
1790545514.4153,0.045527,-0.055939,-0.167006,0.042034,-0.053316,-0.167006,0.486443,-0.322602,-1.039521,-1.922392,0.976891,-7.774944
1790545514.4291,0.034230,-0.056350,-0.185205,0.036571,-0.055440,-0.185205,0.094275,0.935249,-0.773623,-0.542584,2.947431,-15.226693
1790545514.4430,0.033314,-0.045781,-0.204952,0.034291,-0.048679,-0.204952,-0.860041,0.509085,-0.663136,-4.873646,0.642271,-13.984735
1790545514.4569,0.031327,-0.033820,-0.214821,0.032217,-0.038278,-0.214821,-1.090728,0.506657,-0.647353,-2.688951,-0.621849,-10.142427
1790545514.4709,0.027941,-0.023907,-0.221396,0.029223,-0.028219,-0.221396,-1.039734,0.612287,-0.478587,-1.117504,-0.621849,-3.816203
1790545514.4849,0.011342,-0.009958,-0.230726,0.016706,-0.015436,-0.230726,-0.966885,1.158651,-0.411809,0.722239,1.348691,-6.649420
1790545514.4988,0.001029,-0.000150,-0.235142,0.005732,-0.004736,-0.235142,-0.826045,0.862400,-0.233330,-0.465928,0.493551,-8.745224
1790545514.5129,0.011018,-0.010547,-0.232861,0.009432,-0.008803,-0.232861,0.556863,-0.702629,0.067777,-0.350944,-0.064149,-15.847672
1790545514.5268,0.005949,-0.015055,-0.226653,0.006994,-0.013179,-0.226653,0.315249,0.086563,0.820545,1.872079,1.980751,-12.626343
1790545514.5410,0.002514,-0.017028,-0.215874,0.003858,-0.015874,-0.215874,0.096703,-0.004497,0.974741,0.875551,1.088431,-8.589979
1790545514.5554,0.013672,-0.029421,-0.183394,0.010728,-0.025357,-0.183394,0.545936,-0.451301,0.500012,-3.072231,-1.402628,-7.115154
1790545514.5695,-0.001915,-0.034484,-0.217825,0.001878,-0.031746,-0.217825,0.326176,0.560079,0.518224,3.558510,0.679451,-6.688231
1790545514.5835,-0.019181,-0.042683,-0.218699,-0.012863,-0.039402,-0.218699,0.516797,0.912180,0.748911,2.983590,0.865351,-11.423196
1790545514.5975,-0.030408,-0.046896,-0.212240,-0.025144,-0.044648,-0.212240,0.458518,0.660853,0.914034,0.607255,2.575631,-7.891378
1790545514.6110,-0.042741,-0.048600,-0.205030,-0.037462,-0.047415,-0.205030,0.316463,0.782267,0.893394,0.607255,2.798711,-7.619700
1790545514.6245,-0.041866,-0.052079,-0.187287,-0.040545,-0.050680,-0.187287,0.310392,-0.009354,0.888537,-1.079176,2.315371,-10.064805
1790545514.6384,-0.045710,-0.052068,-0.178803,-0.044160,-0.051652,-0.178803,0.069992,0.098705,0.816903,1.450471,2.464091,-9.987182
1790545514.6523,-0.040488,-0.050166,-0.169243,-0.041590,-0.050612,-0.169243,-0.041709,-0.444017,0.741626,0.377287,3.616671,-13.130889
1790545514.6662,-0.038483,-0.041849,-0.155744,-0.039415,-0.044478,-0.155744,-0.480014,-0.429447,0.769551,2.830278,3.430771,-10.918651
1790545514.6804,-0.035267,-0.037701,-0.129907,-0.036512,-0.039734,-0.129907,-0.515224,-0.479227,0.616569,2.446998,-0.659029,-10.763406
1790545514.6944,-0.033666,-0.031012,-0.114024,-0.034520,-0.033629,-0.114024,-0.640281,-0.394237,0.349458,2.791950,-0.064149,-9.405014
1790545514.7084,-0.025435,-0.018761,-0.111287,-0.028160,-0.023221,-0.111287,-0.911035,-0.783976,0.105415,2.217030,1.199971,-9.599070
1790545514.7223,-0.015320,-0.005044,-0.107281,-0.019172,-0.010497,-0.107281,-1.062802,-1.045017,-0.037853,3.481854,0.828171,-9.094525
1790545514.7363,-0.006663,0.010556,-0.108923,-0.010415,0.004240,-0.108923,-1.157505,-0.989166,-0.092490,3.520182,1.051251,-7.619700
1790545514.7502,-0.014096,0.014878,-0.077107,-0.012992,0.011687,-0.077107,-0.590501,0.405883,-0.124057,3.060246,-1.328269,-14.217602
1790545514.7642,-0.023561,0.013285,-0.091163,-0.020390,0.012805,-0.091163,0.186550,0.917037,-0.687419,-0.734224,2.687171,-11.306763
1790545514.7780,-0.013184,0.009383,-0.096157,-0.015346,0.010410,-0.096157,0.269112,-0.359027,-1.322416,-1.692424,1.683311,-12.471098
1790545514.7920,-0.008372,0.007928,-0.112643,-0.010464,0.008672,-0.112643,0.169552,-0.150194,-0.913250,-0.082648,2.055111,-8.861658
1790545514.8065,-0.007446,0.000538,-0.105140,-0.008351,0.002978,-0.105140,0.392954,0.084135,-0.604858,-0.120976,0.270471,-7.619700
1790545514.8204,0.004511,-0.007738,-0.105755,0.000652,-0.004523,-0.105755,0.554435,-0.554504,-0.895038,-1.615768,1.125611,-9.754315
1790545514.8339,0.013892,-0.014879,-0.116171,0.009920,-0.011773,-0.116171,0.528938,-0.493796,-1.031022,-0.427600,1.683311,-10.646972
1790545514.8477,0.018083,-0.019586,-0.152979,0.015634,-0.017242,-0.152979,0.488871,-0.216972,-1.080801,0.683911,2.649991,-8.434735
1790545514.8617,0.018586,-0.020469,-0.196007,0.017700,-0.019501,-0.196007,0.261827,0.064709,-1.055304,0.492271,2.798711,-7.270399
1790545514.8758,0.022792,-0.024170,-0.209974,0.021265,-0.022770,-0.209974,0.277611,-0.088273,-0.933890,-0.810880,1.608951,-9.133336
1790545514.8898,0.023120,-0.028575,-0.231509,0.022563,-0.026833,-0.231509,0.433021,0.088992,-0.615785,-0.350944,2.984611,-10.375294
1790545514.9038,0.005507,-0.019803,-0.245041,0.010624,-0.021912,-0.245041,-0.596572,1.309205,-0.533223,0.913879,2.612811,-13.557812
1790545514.9177,0.004598,-0.009620,-0.235606,0.006405,-0.013308,-0.235606,-0.861255,0.356103,-0.498013,-3.033903,0.158931,-12.898021
1790545514.9317,0.000284,0.000561,-0.227867,0.002120,-0.003600,-0.227867,-0.872182,0.606216,-0.406953,-1.654096,0.010211,-6.688231
1790545514.9456,0.000849,0.009683,-0.230893,0.001230,0.005698,-0.230893,-0.751982,0.456877,-0.141055,-2.382327,0.158931,-3.738581
1790545514.9595,0.007230,0.003946,-0.228089,0.005430,0.004472,-0.228089,0.331033,-0.410021,-0.107059,-0.465928,1.051251,-12.898021
1790545514.9735,0.003551,0.002866,-0.238521,0.004115,0.003348,-0.238521,0.213261,-0.036065,0.537650,3.136902,4.137191,-11.384385
1790545514.9874,-0.009615,-0.001642,-0.232319,-0.005496,-0.000145,-0.232319,0.372314,0.652354,1.060945,2.102047,3.096151,-12.160609
1790545515.0014,-0.013658,-0.007939,-0.210309,-0.011209,-0.005601,-0.210309,0.352887,0.099919,1.302560,-0.082648,0.865351,-9.288581
1790545515.0155,-0.010729,-0.018111,-0.181636,-0.010873,-0.014358,-0.181636,0.485229,-0.119841,0.831472,-2.190688,-0.956469,-8.551168
1790545515.0295,-0.027953,-0.020123,-0.180307,-0.022829,-0.018394,-0.180307,0.083348,0.963174,0.841186,1.795423,0.828171,-7.852567
1790545515.0436,-0.040083,-0.028981,-0.165651,-0.034906,-0.025805,-0.165651,0.558077,0.790766,0.878824,-0.082648,1.162791,-11.073895
1790545515.0580,-0.050058,-0.038119,-0.153106,-0.045512,-0.034424,-0.153106,0.600572,0.567364,0.982026,0.568927,1.683311,-10.258860
1790545515.0718,-0.061999,-0.043597,-0.145474,-0.057053,-0.040845,-0.145474,0.428164,0.785909,0.816903,0.492271,2.278191,-9.715504
1790545515.0856,-0.062884,-0.046731,-0.131183,-0.061135,-0.044965,-0.131183,0.235116,0.173982,0.693060,-1.462456,1.757671,-8.473546
1790545515.0997,-0.061085,-0.050468,-0.120236,-0.061100,-0.048817,-0.120236,0.272754,-0.095558,0.581359,-0.580912,1.906391,-9.831937
1790545515.1136,-0.056671,-0.050982,-0.112838,-0.058000,-0.050332,-0.112838,-0.091489,-0.385738,0.510939,0.990535,0.196111,-13.480189
1790545515.1276,-0.051503,-0.047841,-0.114210,-0.053452,-0.048589,-0.114210,-0.342816,-0.581215,0.462373,2.868606,0.196111,-11.035084
1790545515.1416,-0.045938,-0.041411,-0.117118,-0.048192,-0.043564,-0.117118,-0.595358,-0.656491,0.457517,2.906934,-0.064149,-9.210958
1790545515.1556,-0.041092,-0.033309,-0.120726,-0.043222,-0.036385,-0.120726,-0.738626,-0.633423,0.330032,2.025391,-0.250049,-5.485084
1790545515.1695,-0.033165,-0.023662,-0.123967,-0.036182,-0.027479,-0.123967,-0.771408,-0.766978,0.155195,2.255358,0.567911,-8.628791
1790545515.1835,-0.025159,-0.011639,-0.129520,-0.028466,-0.016391,-0.129520,-0.945031,-0.779120,-0.071849,3.405198,0.493551,-10.685784
1790545515.1973,-0.011630,0.007858,-0.145500,-0.016681,0.000583,-0.145500,-1.378479,-1.164003,-0.262470,2.983590,2.017931,-9.560259
1790545515.2113,-0.014076,0.013377,-0.129253,-0.014857,0.009539,-0.129253,-0.615998,0.040426,-0.629141,4.976645,-1.514168,-12.354665
1790545515.2253,-0.026489,0.006941,-0.115711,-0.023000,0.007720,-0.115711,0.329819,1.195075,-1.040735,-0.810880,-0.287229,-14.023546
1790545515.2394,-0.004164,-0.002055,-0.136635,-0.009815,0.000878,-0.136635,0.856756,-1.225924,-1.060161,-2.114032,3.839751,-8.201867
1790545515.2535,-0.012249,-0.004752,-0.190571,-0.011519,-0.003063,-0.190571,0.335889,0.391313,-0.700775,3.405198,2.315371,-7.231588
1790545515.2673,-0.007100,-0.013777,-0.184064,-0.008425,-0.010563,-0.184064,0.583574,-0.210901,-0.678920,-0.350944,0.605091,-9.443825
1790545515.2813,0.008198,-0.019575,-0.198664,0.003211,-0.016871,-0.198664,0.524081,-0.858039,-0.949674,-1.270816,2.947431,-10.064805
1790545515.2950,0.016650,-0.024273,-0.224000,0.012618,-0.022053,-0.224000,0.446376,-0.470728,-1.099013,0.108991,2.426911,-8.706413
1790545515.3088,0.015689,-0.025420,-0.257857,0.014768,-0.024410,-0.257857,0.259398,0.115703,-0.942389,0.990535,2.984611,-7.736133
1790545515.3229,0.021799,-0.029442,-0.267790,0.019690,-0.027932,-0.267790,0.305536,-0.199974,-0.952102,-1.117504,1.460231,-8.046623
1790545515.3367,0.028686,-0.035844,-0.279310,0.025987,-0.033470,-0.279310,0.488871,-0.318960,-0.837973,-0.925864,1.720491,-9.249770
1790545515.3507,0.016129,-0.039755,-0.294879,0.019086,-0.037870,-0.294879,0.332247,0.982600,-0.573290,0.032335,3.133331,-14.799770
1790545515.3646,0.006479,-0.030289,-0.289392,0.010261,-0.032563,-0.289392,-0.595358,1.057877,-0.659494,-5.218598,3.802571,-13.674245
1790545515.3784,0.001042,-0.017277,-0.284018,0.003808,-0.021863,-0.284018,-0.988740,0.675422,-0.550221,-3.263871,1.199971,-13.169700
1790545515.3924,-0.001740,-0.006333,-0.261482,-0.000076,-0.010992,-0.261482,-0.908606,0.580719,-0.388740,-2.573967,-0.138509,-5.873196
1790545515.4064,-0.009843,0.007388,-0.258889,-0.006913,0.001874,-0.258889,-1.037305,0.770125,-0.178694,-1.194160,0.679451,-6.765853
1790545515.4202,-0.011406,0.017501,-0.254454,-0.010058,0.012813,-0.254454,-0.794477,0.399812,-0.185979,-2.420655,0.679451,-7.503266
1790545515.4341,-0.005628,0.016541,-0.246199,-0.006957,0.015423,-0.246199,-0.022283,-0.249754,0.186763,-3.378855,0.865351,-12.432287
1790545515.4480,-0.015287,0.014740,-0.251870,-0.012788,0.014945,-0.251870,0.076063,0.353675,0.797476,3.980118,1.794851,-12.936833
1790545515.4619,-0.015891,0.009150,-0.241484,-0.014960,0.010889,-0.241484,0.244829,-0.225471,1.056089,1.488799,0.121751,-12.238231
1790545515.4758,-0.018778,0.003088,-0.228382,-0.017633,0.005428,-0.228382,0.374742,0.118131,0.745268,-0.235960,1.162791,-9.016902
1790545515.4897,-0.032970,0.000235,-0.237788,-0.028369,0.001793,-0.237788,0.193835,0.698491,0.663921,3.021918,1.571771,-8.318301
1790545515.5037,-0.044173,-0.010795,-0.229305,-0.039432,-0.007019,-0.229305,0.702560,0.652354,0.779264,0.990535,0.865351,-9.831937
1790545515.5176,-0.056921,-0.015553,-0.224578,-0.051674,-0.012993,-0.224578,0.479158,0.731273,0.912820,1.297159,3.988471,-8.784035
1790545515.5310,-0.064938,-0.017858,-0.211887,-0.060959,-0.016398,-0.211887,0.239972,0.501800,0.977169,0.070663,3.058971,-8.589979
1790545515.5448,-0.067159,-0.021261,-0.196928,-0.065299,-0.019802,-0.196928,0.227831,0.048925,1.029378,0.185647,2.389731,-9.754315
1790545515.5594,-0.071558,-0.025073,-0.184295,-0.069680,-0.023492,-0.184295,0.215689,0.149699,0.950458,0.952207,1.906391,-9.443825
1790545515.5736,-0.073271,-0.028355,-0.172952,-0.072194,-0.026896,-0.172952,0.205976,-0.004497,0.852113,0.875551,2.166651,-9.831937
1790545515.5876,-0.066470,-0.029206,-0.164411,-0.068187,-0.028513,-0.164411,0.111273,-0.555718,0.563147,0.607255,3.170511,-10.414105
1790545515.6017,-0.055483,-0.025553,-0.155856,-0.059294,-0.026441,-0.155856,-0.252970,-0.949100,0.587430,2.600310,3.430771,-14.178791
1790545515.6157,-0.050420,-0.020297,-0.145361,-0.053082,-0.022140,-0.145361,-0.489727,-0.605498,0.503654,4.056774,0.605091,-13.363756
1790545515.6297,-0.046733,-0.011070,-0.138701,-0.048638,-0.014391,-0.138701,-0.732556,-0.514437,0.333674,3.673494,0.939711,-10.336483
1790545515.6436,-0.037676,0.002936,-0.140751,-0.040964,-0.002262,-0.140751,-0.998453,-0.849540,-0.066993,1.910407,1.125611,-5.446273
1790545515.6575,-0.024522,0.016226,-0.141597,-0.029454,0.010680,-0.141597,-0.947459,-1.130007,-0.153197,1.948735,1.162791,-5.679140
1790545515.6715,-0.017689,0.026506,-0.143730,-0.021219,0.021758,-0.143730,-0.724057,-0.514437,-0.143484,1.373815,3.021791,-13.907112
1790545515.6856,-0.024301,0.017181,-0.147140,-0.023376,0.018555,-0.147140,0.646710,0.680279,-0.573290,-1.079176,1.757671,-12.820399
1790545515.6996,-0.020449,0.017478,-0.165018,-0.021327,0.017801,-0.165018,0.074849,-0.021495,-1.056519,-0.542584,3.653851,-13.014455
1790545515.7136,-0.013957,0.017560,-0.185869,-0.016168,0.017632,-0.185869,0.129485,-0.272823,-1.022523,0.262303,3.282051,-9.249770
1790545515.7276,-0.010200,0.010228,-0.182032,-0.011990,0.012450,-0.182032,0.396596,-0.077346,-0.794264,-0.274288,-0.175689,-8.046623
1790545515.7416,0.000864,-0.002117,-0.180032,-0.002993,0.002253,-0.180032,0.779051,-0.509580,-0.882896,-1.577440,0.010211,-8.861658
1790545515.7551,0.015832,-0.013936,-0.186302,0.010184,-0.009079,-0.186302,0.839758,-0.800974,-1.068660,-1.769080,0.902531,-8.745224
1790545515.7688,0.020852,-0.020704,-0.210089,0.017651,-0.017217,-0.210089,0.576290,-0.312889,-1.145151,1.642111,2.649991,-9.405014
1790545515.7828,0.022917,-0.023771,-0.231393,0.021337,-0.021805,-0.231393,0.270326,-0.088273,-1.109941,1.527127,2.352551,-9.754315
1790545515.7967,0.028694,-0.027771,-0.247898,0.026487,-0.025981,-0.247898,0.333461,-0.303176,-0.936318,0.185647,1.943571,-8.395923
1790545515.8111,0.022912,-0.032718,-0.260745,0.023984,-0.030697,-0.260745,0.362600,0.521226,-0.697132,-0.350944,2.278191,-12.354665
1790545515.8252,0.007908,-0.021300,-0.273291,0.012731,-0.024119,-0.273291,-0.764123,1.167150,-0.502870,-0.235960,3.319231,-14.722147
1790545515.8391,0.008628,-0.008980,-0.260353,0.009859,-0.013521,-0.260353,-1.002095,0.396170,-0.502870,-6.368438,-0.398769,-10.297672
1790545515.8529,0.002434,-0.000022,-0.261641,0.004662,-0.004072,-0.261641,-0.841828,0.823548,-0.370528,-2.267343,-0.733389,-4.747672
1790545515.8669,-0.008812,0.010214,-0.263735,-0.004770,0.005928,-0.263735,-0.742269,1.094301,-0.244257,-0.964192,0.456371,-2.884734
1790545515.8808,-0.015550,0.015290,-0.265856,-0.012316,0.012481,-0.265856,-0.373170,0.645069,-0.202977,-1.730752,2.055111,-12.471098
1790545515.8949,-0.006796,0.008847,-0.263146,-0.008452,0.009938,-0.263146,0.458518,-0.620067,0.025282,-0.082648,2.612811,-13.635434
1790545515.9087,-0.019638,0.007222,-0.259108,-0.016282,0.008037,-0.259108,0.190192,0.601360,0.898250,4.018446,4.360271,-12.781588
1790545515.9227,-0.028174,0.003140,-0.245304,-0.024606,0.004609,-0.245304,0.248471,0.331820,1.209071,1.565455,1.906391,-10.608161
1790545515.9366,-0.027778,-0.004958,-0.228099,-0.026827,-0.002088,-0.228099,0.518011,-0.114984,1.103440,-1.117504,1.385871,-9.443825
1790545515.9504,-0.036864,-0.013310,-0.224293,-0.033853,-0.009943,-0.224293,0.363815,0.557651,0.826616,0.032335,-1.105189,-7.386832
1790545515.9643,-0.054704,-0.024843,-0.215910,-0.048448,-0.020373,-0.215910,0.714702,1.162293,0.895822,0.645583,0.493551,-10.996273
1790545515.9782,-0.063570,-0.033699,-0.196490,-0.059033,-0.029701,-0.196490,0.623641,0.602574,1.018450,-0.810880,2.241011,-9.831937
1790545515.9918,-0.078566,-0.039848,-0.184494,-0.072706,-0.036804,-0.184494,0.446376,0.969245,0.945602,1.335487,2.501271,-10.918651
1790545516.0054,-0.082454,-0.045231,-0.165895,-0.079530,-0.042703,-0.165895,0.366243,0.278398,1.002666,-0.849208,2.241011,-9.987182
1790545516.0193,-0.079411,-0.047239,-0.151892,-0.079446,-0.045878,-0.151892,0.086990,-0.317746,0.852113,0.837223,1.869211,-10.879840
1790545516.0333,-0.072559,-0.047578,-0.144273,-0.074625,-0.047068,-0.144273,-0.110915,-0.546005,0.676062,0.453943,0.344831,-12.975644
1790545516.0473,-0.071741,-0.047702,-0.149068,-0.072606,-0.047512,-0.149068,-0.171622,-0.311675,0.686990,3.405198,-0.584669,-9.948371
1790545516.0619,-0.067967,-0.042661,-0.148615,-0.069359,-0.044116,-0.148615,-0.484871,-0.512009,0.679705,2.830278,0.047391,-8.163056
1790545516.0761,-0.063777,-0.034974,-0.149916,-0.065452,-0.037716,-0.149916,-0.660921,-0.630994,0.580145,3.750150,0.158931,-7.348021
1790545516.0902,-0.053989,-0.022403,-0.147077,-0.057428,-0.026997,-0.147077,-1.023950,-0.919960,0.390739,3.136902,0.010211,-9.793126
1790545516.1042,-0.044784,-0.006573,-0.148587,-0.048577,-0.012700,-0.148587,-1.219427,-0.883536,0.117557,4.056774,0.493551,-10.724595
1790545516.1182,-0.035010,0.010000,-0.150086,-0.039080,0.003190,-0.150086,-1.277705,-0.866538,-0.083991,3.481854,0.530731,-11.073895
1790545516.1322,-0.042247,0.013944,-0.155656,-0.041297,0.010718,-0.155656,-0.350101,0.501800,-0.404524,3.136902,0.605091,-14.760958
1790545516.1460,-0.051707,0.010064,-0.164318,-0.048584,0.010260,-0.164318,0.340746,0.963174,-1.027379,-0.389272,1.794851,-10.569350
1790545516.1600,-0.033669,0.015620,-0.168174,-0.038144,0.014012,-0.168174,0.178051,-1.207712,-0.999454,0.990535,6.033370,-2.574245
1790545516.1738,-0.042158,0.011743,-0.169623,-0.040954,0.012424,-0.169623,0.202334,0.520012,-0.385098,3.175230,0.233291,-9.288581
1790545516.1877,-0.031454,0.005568,-0.164791,-0.034304,0.007625,-0.164791,0.429378,-0.521722,-0.580575,-2.267343,1.534591,-12.199420
1790545516.2017,-0.017718,-0.000930,-0.169482,-0.022693,0.001636,-0.169482,0.558077,-0.628566,-0.839187,-3.225543,2.835891,-9.870749
1790545516.2153,-0.012454,-0.007130,-0.183597,-0.015526,-0.004500,-0.183597,0.498584,-0.180548,-1.089300,-0.044320,1.571771,-8.240679
1790545516.2289,-0.005040,-0.005869,-0.207115,-0.008186,-0.005459,-0.207115,0.153768,-0.257039,-1.135438,-0.849208,2.910251,-5.252217
1790545516.2429,0.002854,-0.012815,-0.217889,-0.000458,-0.010608,-0.217889,0.473087,-0.423376,-0.932676,0.185647,0.679451,-6.106063
1790545516.2568,0.008078,-0.022052,-0.229830,0.005518,-0.018619,-0.229830,0.690419,-0.213330,-0.886539,-0.312616,1.683311,-9.249770
1790545516.2708,0.020710,-0.029082,-0.238640,0.016152,-0.025943,-0.238640,0.542294,-0.684417,-0.776052,-1.999048,2.241011,-10.724595
1790545516.2848,0.000744,-0.018889,-0.254188,0.005366,-0.021005,-0.254188,-0.682776,1.519251,-0.777266,1.680439,4.508991,-19.922847
1790545516.2987,0.000545,-0.005402,-0.258583,0.001991,-0.010083,-0.258583,-1.014237,0.376743,-0.607286,-6.368438,1.125611,-15.149070
1790545516.3130,-0.006009,0.006330,-0.264439,-0.003609,0.001406,-0.264439,-0.845471,0.949818,-0.483443,-2.918919,0.382011,-3.777392
1790545516.3280,-0.020682,0.024236,-0.263742,-0.015560,0.017387,-0.263742,-0.799333,0.974101,-0.312249,1.028863,4.955151,-3.932637
1790545516.3430,-0.022602,0.033054,-0.280441,-0.020489,0.028354,-0.280441,-0.512796,0.442307,-0.335318,-1.845736,1.497411,-4.553616
1790545516.3573,0.000675,0.019817,-0.283649,-0.005675,0.022378,-0.283649,0.949031,-1.450540,-0.168981,-3.723807,3.170511,-13.092077
1790545516.3719,-0.015836,0.018080,-0.263582,-0.012788,0.019369,-0.263582,0.181693,0.847831,0.780478,3.635166,4.211551,-12.820399
1790545516.3871,-0.022962,0.010693,-0.262482,-0.019910,0.013296,-0.262482,0.362600,0.415596,1.052446,-2.190688,0.419191,-11.190329
1790545516.4014,-0.031247,0.001902,-0.257516,-0.027846,0.005320,-0.257516,0.464588,0.431380,1.037877,-0.044320,0.047391,-9.288581
1790545516.4156,-0.044900,-0.006673,-0.244250,-0.039784,-0.003075,-0.244250,0.479158,0.625643,0.967456,2.561982,0.233291,-7.153965
1790545516.4297,-0.060250,-0.019479,-0.232813,-0.054110,-0.014558,-0.232813,0.775409,0.857544,1.111939,1.948735,0.493551,-10.957462
1790545516.4434,-0.068285,-0.029107,-0.214136,-0.064032,-0.024742,-0.214136,0.703774,0.541867,1.126509,-0.964192,2.575631,-9.133336
1790545516.4571,-0.074462,-0.029787,-0.195113,-0.071333,-0.028273,-0.195113,0.095489,0.428952,0.989311,-0.964192,3.393591,-9.715504
1790545516.4711,-0.075568,-0.031383,-0.182379,-0.074297,-0.030450,-0.182379,0.065136,0.069565,1.009951,-1.385800,2.352551,-11.112707
1790545516.4851,-0.070364,-0.029838,-0.174453,-0.071544,-0.030021,-0.174453,-0.238400,-0.479227,0.819331,0.760567,0.865351,-12.432287
1790545516.4990,-0.066147,-0.025717,-0.166434,-0.067766,-0.027008,-0.166434,-0.436305,-0.508366,0.678491,2.945262,0.307651,-12.199420
1790545516.5129,-0.060827,-0.017949,-0.157317,-0.062909,-0.020667,-0.157317,-0.694917,-0.639493,0.560719,3.098574,0.158931,-9.016902
1790545516.5268,-0.052037,-0.007531,-0.149582,-0.055299,-0.011471,-0.149582,-0.872182,-0.866538,0.428377,2.370342,0.196111,-7.348021
1790545516.5408,-0.043801,0.002969,-0.146941,-0.047250,-0.001363,-0.146941,-0.858826,-0.708700,0.200119,1.297159,0.307651,-7.425644
1790545516.5550,-0.034870,0.013999,-0.144276,-0.038584,0.009391,-0.144276,-0.844257,-0.774263,0.089632,2.178703,0.902531,-9.055714
1790545516.5694,-0.033378,0.016886,-0.145265,-0.034940,0.014637,-0.145265,-0.293036,-0.219400,-0.077920,3.443526,0.419191,-13.169700
1790545516.5835,-0.030155,0.010898,-0.152726,-0.031590,0.012020,-0.152726,0.366243,-0.134410,-0.579361,0.875551,0.716631,-13.363756
1790545516.5975,-0.025935,0.001957,-0.165260,-0.027631,0.004976,-0.165260,0.655209,-0.038493,-1.083230,-0.734224,1.460231,-11.112707
1790545516.6114,-0.020574,-0.007434,-0.181322,-0.022691,-0.003711,-0.181322,0.660065,-0.198760,-1.171862,0.530599,0.753811,-9.909560
1790545516.6254,-0.017061,-0.007701,-0.192720,-0.018750,-0.006504,-0.192720,0.120986,-0.264324,-0.686205,2.025391,2.575631,-8.357112
1790545516.6394,-0.002238,-0.014525,-0.196710,-0.007192,-0.012119,-0.196710,0.459732,-0.808259,-0.822189,-2.458983,1.125611,-12.975644
1790545516.6533,0.016444,-0.027255,-0.201211,0.009353,-0.022714,-0.201211,0.888324,-0.994023,-1.065018,-3.302199,0.939711,-10.258860
1790545516.6672,0.025453,-0.033828,-0.210831,0.020623,-0.030494,-0.210831,0.640639,-0.454944,-1.169434,-0.427600,3.021791,-6.804665
1790545516.6809,0.031602,-0.036982,-0.221213,0.028309,-0.035036,-0.221213,0.344388,-0.390594,-0.946032,0.798895,2.873071,-8.201867
1790545516.6946,0.034945,-0.040164,-0.231282,0.032954,-0.038626,-0.231282,0.345603,-0.116198,-0.907179,-0.274288,3.058971,-8.745224
1790545516.7086,0.035739,-0.046433,-0.240476,0.034903,-0.044091,-0.240476,0.482801,0.078064,-0.682563,-1.347472,2.984611,-14.372847
1790545516.7224,0.024962,-0.044977,-0.249407,0.027945,-0.044711,-0.249407,-0.108487,0.895182,-0.491942,-1.270816,2.166651,-15.420749
1790545516.7363,0.022205,-0.035526,-0.262474,0.023927,-0.038281,-0.262474,-0.699774,0.500586,-0.360815,-5.333582,1.423051,-12.199420
1790545516.7502,0.019751,-0.026281,-0.278651,0.021004,-0.029881,-0.278651,-0.793263,0.556436,-0.217546,-3.110559,-0.398769,-4.747672
1790545516.7640,0.011691,-0.012529,-0.273088,0.014485,-0.017735,-0.273088,-0.894037,0.657210,-0.215118,-0.274288,1.869211,-5.640329
1790545516.7780,-0.002500,-0.004641,-0.284087,0.002596,-0.008569,-0.284087,-0.626925,1.129512,-0.137413,-0.925864,0.642271,-9.055714
1790545516.7919,-0.009709,0.002031,-0.299253,-0.006017,-0.001149,-0.299253,-0.590501,0.674208,-0.218760,-2.037376,-0.101329,-13.286133
1790545516.8059,-0.014660,0.017589,-0.301567,-0.012067,0.011968,-0.301567,-1.167219,0.500586,0.037424,-1.922392,0.976891,-9.288581
1790545516.8203,-0.008443,0.020440,-0.309145,-0.009530,0.017898,-0.309145,-0.373170,-0.348099,0.249898,-3.033903,-1.030829,-14.062357
1790545516.8343,-0.009806,0.014289,-0.312960,-0.009723,0.015371,-0.312960,0.318891,-0.096772,0.652994,1.220503,0.344831,-9.599070
1790545516.8482,-0.018169,0.003369,-0.312027,-0.015635,0.006969,-0.312027,0.667350,0.291753,0.854541,2.715294,0.270471,-9.405014
1790545516.8622,-0.028719,-0.000588,-0.272081,-0.024794,0.001679,-0.272081,0.469445,0.647497,0.650565,0.415615,3.319231,-6.377742
1790545516.8761,-0.041650,-0.006101,-0.262428,-0.036593,-0.003767,-0.262428,0.400239,0.726416,0.696703,2.178703,2.203831,-9.948371
1790545516.8902,-0.053260,-0.013031,-0.249404,-0.048260,-0.010252,-0.249404,0.493728,0.703348,0.762266,0.837223,2.426911,-10.569350
1790545516.9038,-0.070260,-0.019910,-0.232307,-0.063660,-0.017012,-0.232307,0.525296,1.011740,0.914034,2.255358,2.501271,-8.784035
1790545516.9175,-0.079434,-0.025377,-0.212933,-0.074701,-0.022868,-0.212933,0.422093,0.594075,0.882466,0.147319,2.724351,-9.172147
1790545516.9315,-0.081316,-0.031792,-0.193320,-0.079331,-0.029114,-0.193320,0.487657,0.082921,0.785335,-0.044320,2.984611,-9.676693
1790545516.9455,-0.073113,-0.037273,-0.189377,-0.074978,-0.034825,-0.189377,0.241186,-0.637065,0.769551,-0.197632,0.382011,-12.820399
1790545516.9595,-0.063168,-0.036489,-0.184757,-0.066711,-0.035990,-0.184757,-0.176479,-0.850754,0.621426,1.872079,0.567911,-12.199420
1790545516.9734,-0.060937,-0.034927,-0.186717,-0.062669,-0.035246,-0.186717,-0.303964,-0.448873,0.632353,4.095102,-0.956469,-9.831937
1790545516.9873,-0.055892,-0.028659,-0.182827,-0.057925,-0.030635,-0.182827,-0.601428,-0.632209,0.616569,2.485326,-0.138509,-6.804665
1790545517.0012,-0.049753,-0.019019,-0.180018,-0.052205,-0.022504,-0.180018,-0.787192,-0.578786,0.402880,1.680439,0.567911,-9.521448
1790545517.0153,-0.041136,-0.006785,-0.178713,-0.044457,-0.011501,-0.178713,-0.948673,-0.810688,0.178264,3.558510,0.753811,-10.996273
1790545517.0293,-0.031337,0.007921,-0.178392,-0.035273,0.002094,-0.178392,-1.110154,-0.904176,-0.076706,4.478381,0.939711,-11.112707
1790545517.0432,-0.023068,0.023741,-0.180854,-0.026730,0.017247,-0.180854,-1.124724,-0.746338,-0.255185,3.328542,2.017931,-9.210958
1790545517.0573,-0.036262,0.025148,-0.192305,-0.033402,0.022778,-0.192305,-0.141268,1.000812,-0.615785,2.332014,0.976891,-13.480189
1790545517.0716,-0.032630,0.019519,-0.201947,-0.032861,0.020497,-0.201947,0.494942,0.073208,-1.137866,-1.270816,2.724351,-10.025993
1790545517.0857,-0.017252,0.016206,-0.201452,-0.021935,0.017493,-0.201452,0.498584,-0.748766,-1.162149,-1.194160,3.430771,-5.368651
1790545517.0996,-0.018131,0.014082,-0.209658,-0.019272,0.015105,-0.209658,0.253328,-0.016639,-0.598787,3.366870,3.021791,-8.822846
1790545517.1135,-0.011365,0.011192,-0.218841,-0.013737,0.012366,-0.218841,0.250899,-0.344457,-0.731128,0.070663,2.649991,-11.656063
1790545517.1274,0.002232,0.007771,-0.229753,-0.002559,0.009150,-0.229753,0.324962,-0.715984,-0.980028,-1.424128,2.873071,-9.831937
1790545517.1409,0.006019,0.002520,-0.244335,0.003445,0.004509,-0.244335,0.405095,-0.073703,-1.112369,-0.044320,1.757671,-9.443825
1790545517.1545,0.012268,0.002449,-0.256316,0.009621,0.003067,-0.256316,0.168338,-0.229113,-1.046805,-0.542584,3.058971,-6.688231
1790545517.1685,0.016413,-0.002189,-0.268718,0.014376,-0.000612,-0.268718,0.320106,-0.140481,-0.924177,0.032335,1.311511,-8.473546
1790545517.1825,0.022559,-0.009329,-0.279719,0.020104,-0.006714,-0.279719,0.499799,-0.282536,-0.819761,-0.427600,1.385871,-9.094525
1790545517.1964,0.013103,-0.006610,-0.290130,0.015204,-0.006641,-0.290130,-0.180121,0.836903,-0.587860,-1.309144,3.393591,-17.050819
1790545517.2102,0.008210,0.006350,-0.298145,0.010308,0.002453,-0.298145,-0.949887,0.622000,-0.371742,-4.375383,2.166651,-13.596623
1790545517.2242,0.003937,0.020650,-0.305643,0.005849,0.015191,-0.305643,-1.054303,0.611073,-0.336532,-3.532167,1.199971,-8.939280
1790545517.2382,-0.002184,0.031144,-0.303231,0.000226,0.026358,-0.303231,-0.652422,0.821119,-0.307393,-2.803935,1.794851,-4.708860
1790545517.2520,-0.007214,0.039727,-0.300446,-0.004982,0.035717,-0.300446,-0.490941,0.624428,-0.183550,-1.270816,1.534591,-3.466902
1790545517.2660,0.012957,0.028164,-0.311310,0.007575,0.030430,-0.311310,0.759625,-1.295130,-0.150769,-3.493839,1.385871,-13.945924
1790545517.2800,0.000278,0.023616,-0.290526,0.002467,0.025660,-0.290526,0.384455,0.601360,0.705202,3.980118,3.765391,-12.315854
1790545517.2939,-0.009499,0.013079,-0.288711,-0.005909,0.016854,-0.288711,0.643067,0.568578,1.101012,-1.040848,0.567911,-12.044175
1790545517.3080,-0.009685,0.006907,-0.267726,-0.008552,0.009891,-0.267726,0.400239,-0.304390,1.394834,1.220503,1.832031,-10.414105
1790545517.3222,-0.017996,-0.002322,-0.264388,-0.015163,0.001342,-0.264388,0.493728,0.329392,1.046376,1.105519,-0.250049,-6.921098
1790545517.3362,-0.039419,-0.006263,-0.248743,-0.032142,-0.003981,-0.248743,0.239972,1.227857,1.150792,2.753622,1.720491,-10.375294
1790545517.3502,-0.052300,-0.019850,-0.237071,-0.046252,-0.015089,-0.237071,0.861613,0.730059,1.198143,0.798895,0.865351,-10.220049
1790545517.3637,-0.061730,-0.025622,-0.214256,-0.057087,-0.022462,-0.214256,0.468231,0.585576,1.094941,-0.044320,3.467951,-10.297672
1790545517.3773,-0.067801,-0.028517,-0.198412,-0.064587,-0.026700,-0.198412,0.176837,0.390099,1.093727,-0.772552,2.166651,-9.754315
1790545517.3916,-0.067851,-0.030615,-0.179240,-0.066872,-0.029440,-0.179240,0.111273,-0.105271,1.085228,-0.005993,2.389731,-10.103616
1790545517.4055,-0.061625,-0.031715,-0.171424,-0.063199,-0.031033,-0.171424,-0.033210,-0.529007,0.850899,0.032335,1.014071,-11.888930
1790545517.4193,-0.057285,-0.028989,-0.162721,-0.059059,-0.029602,-0.162721,-0.312463,-0.502295,0.750125,2.332014,0.679451,-11.850119
1790545517.4333,-0.052511,-0.023825,-0.155249,-0.054476,-0.025558,-0.155249,-0.475158,-0.546005,0.568004,2.676966,0.530731,-10.375294
1790545517.4471,-0.047451,-0.015300,-0.147563,-0.049558,-0.018378,-0.147563,-0.700988,-0.593356,0.413808,2.561982,0.530731,-7.774944
1790545517.4610,-0.038901,-0.005905,-0.146965,-0.042098,-0.009647,-0.146965,-0.753196,-0.701415,0.107844,1.335487,0.605091,-8.978091
1790545517.4750,-0.029481,0.005961,-0.147517,-0.033266,0.001279,-0.147517,-0.921962,-0.803403,-0.107059,3.060246,0.605091,-10.957462
1790545517.4891,-0.022995,0.019301,-0.149220,-0.026076,0.013895,-0.149220,-0.981455,-0.587285,-0.309821,4.325070,1.497411,-12.548721
1790545517.5032,-0.025700,0.019072,-0.159235,-0.025813,0.017519,-0.159235,-0.055064,0.201907,-0.630355,3.175230,0.419191,-13.402567
1790545517.5170,-0.028404,0.016439,-0.173708,-0.027626,0.016763,-0.173708,0.221760,0.557651,-1.167005,-1.845736,1.720491,-11.035084
1790545517.5309,-0.013054,0.007394,-0.185385,-0.017426,0.010205,-0.185385,0.766910,-0.791261,-1.285991,-0.849208,2.129471,-6.804665
1790545517.5448,-0.008569,0.005827,-0.185569,-0.011226,0.007141,-0.185569,0.436663,-0.345671,-0.971529,1.603783,3.058971,-3.428091
1790545517.5590,-0.004378,-0.001288,-0.194718,-0.006432,0.001241,-0.194718,0.457304,-0.274037,-0.794264,2.332014,0.790991,-10.957462
1790545517.5735,0.011967,-0.006802,-0.208673,0.006447,-0.004389,-0.208673,0.417237,-0.933316,-1.109941,-0.350944,2.501271,-11.578441
1790545517.5875,0.021529,-0.012861,-0.228008,0.017005,-0.010320,-0.228008,0.493728,-0.428233,-1.425618,-0.465928,2.538451,-9.288581
1790545517.6012,0.026384,-0.016017,-0.245600,0.023570,-0.014308,-0.245600,0.324962,-0.119841,-1.251995,-0.465928,2.129471,-6.261308
1790545517.6148,0.031719,-0.020214,-0.259098,0.029274,-0.018442,-0.259098,0.316463,-0.241255,-1.101442,0.108991,1.460231,-7.464455
1790545517.6289,0.036126,-0.028292,-0.271634,0.034070,-0.025337,-0.271634,0.583574,-0.178120,-0.958173,-0.082648,1.757671,-8.978091
1790545517.6429,0.030069,-0.033869,-0.281911,0.031269,-0.031309,-0.281911,0.417237,0.543081,-0.630355,-0.619240,3.021791,-15.381938
1790545517.6569,0.017729,-0.026600,-0.295879,0.021791,-0.028013,-0.295879,-0.524937,1.068804,-0.518654,-2.918919,2.612811,-17.283686
1790545517.6708,0.013305,-0.011046,-0.312482,0.015851,-0.016136,-0.312482,-1.166004,0.592861,-0.396025,-4.720334,1.199971,-13.519000
1790545517.6848,0.011044,0.001985,-0.330507,0.012486,-0.003451,-0.330507,-1.121081,0.522440,-0.354744,-2.880591,-0.993649,-5.213406
1790545517.6987,-0.004394,0.012083,-0.326679,0.000670,0.007423,-0.326679,-0.694917,0.980172,-0.143484,1.680439,1.237151,-5.213406
1790545517.7127,-0.007785,0.019659,-0.335032,-0.005249,0.015988,-0.335032,-0.585644,0.535796,-0.302536,-2.114032,0.605091,-5.679140
1790545517.7266,-0.001144,0.015100,-0.335863,-0.002375,0.015367,-0.335863,0.286110,-0.488940,0.039852,0.185647,2.315371,-17.710609
1790545517.7406,-0.003948,0.016205,-0.326056,-0.003476,0.015953,-0.326056,-0.085418,0.040426,0.666349,1.028863,2.687171,-13.324944
1790545517.7545,-0.012550,0.014205,-0.312651,-0.009828,0.014730,-0.312651,0.100346,0.362174,1.088871,1.373815,1.720491,-10.996273
1790545517.7685,-0.013761,0.004589,-0.301646,-0.012581,0.007631,-0.301646,0.554435,-0.145338,1.119224,0.492271,0.158931,-7.503266
1790545517.7825,-0.017627,-0.003738,-0.295601,-0.016113,-0.000327,-0.295601,0.481586,0.237117,0.736769,-0.810880,0.121751,-7.580888
1790545517.7964,-0.036694,-0.004467,-0.273104,-0.030520,-0.003225,-0.273104,0.169552,1.082160,0.722200,2.102047,2.352551,-5.446273
1790545517.8104,-0.043257,-0.013543,-0.264367,-0.039436,-0.010447,-0.264367,0.592073,0.363388,0.763480,0.377287,1.497411,-11.345574
1790545517.8245,-0.056464,-0.021459,-0.251319,-0.051355,-0.018156,-0.251319,0.545936,0.767697,0.918891,1.373815,2.129471,-10.064805
1790545517.8382,-0.064704,-0.025723,-0.235046,-0.060699,-0.023453,-0.235046,0.321320,0.521226,1.006309,-0.312616,2.687171,-9.366203
1790545517.8523,-0.065468,-0.030800,-0.220236,-0.064037,-0.028596,-0.220236,0.328605,-0.049420,0.933460,0.262303,2.203831,-10.181238
1790545517.8663,-0.064701,-0.032176,-0.208697,-0.064502,-0.031102,-0.208697,0.023855,-0.202402,0.782907,1.565455,1.460231,-11.462007
1790545517.8803,-0.059244,-0.031866,-0.200180,-0.060821,-0.031637,-0.200180,-0.125485,-0.532649,0.638424,1.795423,0.753811,-11.966553
1790545517.8943,-0.055573,-0.027216,-0.192531,-0.057147,-0.028542,-0.192531,-0.431448,-0.469514,0.483014,2.906934,0.456371,-9.831937
1790545517.9083,-0.051806,-0.018890,-0.185919,-0.053409,-0.021786,-0.185919,-0.710701,-0.509580,0.385882,2.906934,0.047391,-7.736133
1790545517.9223,-0.045849,-0.008340,-0.180555,-0.048117,-0.012373,-0.180555,-0.802976,-0.644350,0.232900,2.600310,0.865351,-7.153965
1790545517.9362,-0.038680,0.001246,-0.177852,-0.041511,-0.002840,-0.177852,-0.770194,-0.618853,0.053207,1.757095,0.530731,-9.055714
1790545517.9501,-0.029416,0.014166,-0.176988,-0.033044,0.009064,-0.176988,-0.997239,-0.798546,-0.098560,3.213558,0.828171,-11.423196
1790545517.9641,-0.026927,0.025649,-0.181188,-0.028762,0.020674,-0.181188,-0.889180,-0.238827,-0.404524,3.673494,0.753811,-13.441378
1790545517.9780,-0.034991,0.026202,-0.191772,-0.033122,0.024543,-0.191772,-0.051422,0.782267,-0.825832,0.185647,1.274331,-11.462007
1790545517.9921,-0.032912,0.019334,-0.202998,-0.032975,0.020897,-0.202998,0.465803,0.182481,-1.196145,-1.424128,0.828171,-14.023546
1790545518.0060,-0.020222,0.022565,-0.219409,-0.024048,0.022064,-0.219409,0.096703,-0.510794,-0.824617,-2.152360,3.542311,-3.777392
1790545518.0199,-0.019716,0.015558,-0.224753,-0.021015,0.017510,-0.224753,0.429378,0.016143,-0.404524,0.760567,0.456371,-9.831937
1790545518.0339,-0.008109,0.008292,-0.230718,-0.011981,0.011057,-0.230718,0.470659,-0.556932,-0.729914,-2.650623,0.790991,-11.656063
1790545518.0478,0.003043,0.003184,-0.241768,-0.001464,0.005546,-0.241768,0.413594,-0.558146,-1.027379,-1.002520,2.278191,-9.831937
1790545518.0617,0.003367,-0.000143,-0.255496,0.001917,0.001564,-0.255496,0.315249,0.085349,-0.960601,0.990535,2.464091,-8.473546
1790545518.0760,0.008802,-0.001378,-0.266270,0.006737,-0.000496,-0.266270,0.191406,-0.240041,-0.848900,0.070663,2.166651,-6.144874
1790545518.0901,0.015302,-0.007062,-0.276082,0.012732,-0.005092,-0.276082,0.391740,-0.314103,-0.751769,-0.312616,1.237151,-8.318301
1790545518.1041,0.025763,-0.014975,-0.283889,0.021853,-0.012010,-0.283889,0.607857,-0.578786,-0.697132,-1.155832,2.241011,-9.482637
1790545518.1182,0.012513,-0.010461,-0.292986,0.015315,-0.010925,-0.292986,-0.218974,1.080946,-0.578147,-0.695896,4.546171,-12.898021
1790545518.1322,0.004691,0.000531,-0.304404,0.007878,-0.002906,-0.304404,-0.801762,0.808978,-0.423950,-4.030431,2.055111,-14.528091
1790545518.1461,0.002249,0.010758,-0.316638,0.003938,0.006659,-0.316638,-0.755624,0.545509,-0.398454,-3.685479,0.939711,-6.959909
1790545518.1601,-0.003310,0.019394,-0.324144,-0.001136,0.015573,-0.324144,-0.658493,0.799265,-0.184765,-2.727279,0.419191,-3.971448
1790545518.1747,-0.001483,0.024560,-0.320370,-0.001379,0.021864,-0.320370,-0.339174,0.271113,-0.116773,-2.650623,0.716631,-3.272846
1790545518.1888,0.011957,0.013038,-0.323118,0.007956,0.015686,-0.323118,0.775409,-0.836185,0.025282,-2.765607,1.571771,-12.005364
1790545518.2029,-0.000089,0.011758,-0.304635,0.002325,0.012936,-0.304635,0.134342,0.518798,0.853327,4.593365,3.542311,-13.092077
1790545518.2170,-0.007222,0.005724,-0.297425,-0.004358,0.007888,-0.297425,0.348031,0.294182,1.141079,0.453943,0.976891,-11.384385
1790545518.2310,-0.007911,-0.002337,-0.287188,-0.006845,0.000731,-0.287188,0.481586,-0.119841,1.260065,-0.734224,0.828171,-10.530539
1790545518.2450,-0.021779,-0.007521,-0.281396,-0.017299,-0.005046,-0.281396,0.292180,0.744628,1.003881,1.258831,0.567911,-6.765853
1790545518.2588,-0.037482,-0.014412,-0.277543,-0.031427,-0.011602,-0.277543,0.413594,0.963174,0.881252,1.028863,0.679451,-8.551168
1790545518.2727,-0.044869,-0.024584,-0.267071,-0.040836,-0.020689,-0.267071,0.664922,0.437451,0.922533,-0.120976,1.125611,-9.210958
1790545518.2865,-0.055980,-0.030121,-0.248967,-0.051437,-0.027291,-0.248967,0.397811,0.704562,0.951672,0.223975,2.352551,-10.452916
1790545518.3002,-0.062206,-0.034521,-0.230226,-0.058975,-0.032352,-0.230226,0.294609,0.388885,1.001452,-0.465928,2.315371,-11.190329
1790545518.3143,-0.060904,-0.037213,-0.208943,-0.060325,-0.035755,-0.208943,0.176837,-0.196332,0.954101,0.262303,2.389731,-10.220049
1790545518.3286,-0.054855,-0.037401,-0.199088,-0.056496,-0.036907,-0.199088,-0.068420,-0.536291,0.785335,0.913879,1.348691,-12.471098
1790545518.3428,-0.051089,-0.033917,-0.194841,-0.052711,-0.034814,-0.194841,-0.369527,-0.485297,0.723414,2.868606,0.307651,-11.035084
1790545518.3568,-0.047728,-0.028359,-0.193365,-0.049223,-0.030296,-0.193365,-0.563790,-0.541148,0.631139,3.788478,-0.621849,-8.784035
1790545518.3708,-0.041353,-0.020165,-0.193165,-0.043714,-0.023205,-0.193165,-0.736198,-0.681988,0.435662,2.446998,-0.324409,-7.813756
1790545518.3848,-0.035996,-0.010195,-0.192364,-0.038311,-0.014098,-0.192364,-0.801762,-0.561788,0.282680,2.063719,0.307651,-7.619700
1790545518.3988,-0.027049,0.003630,-0.191056,-0.030427,-0.001689,-0.191056,-1.027592,-0.775477,0.119985,2.523654,1.571771,-11.617252
1790545518.4145,-0.018130,0.021821,-0.190293,-0.021819,0.014768,-0.190293,-1.231568,-0.737839,-0.063350,4.248414,0.753811,-11.772497
1790545518.4292,-0.020678,0.030691,-0.200763,-0.021020,0.025914,-0.200763,-0.651208,0.171553,-0.504084,2.906934,1.125611,-13.053266
1790545518.4440,-0.023562,0.024160,-0.213372,-0.022799,0.024686,-0.213372,0.429378,0.495729,-1.071088,-0.925864,1.051251,-10.297672
1790545518.4583,-0.009483,0.005664,-0.078035,-0.013478,0.011370,-0.078035,1.444401,-0.233970,-0.833116,-6.061814,0.902531,-1.642776
1790545518.4728,-0.014720,0.001835,-0.133557,-0.014348,0.004696,-0.133557,0.246043,0.209192,-0.481015,4.133430,1.311511,-8.784035
1790545518.4869,-0.004443,-0.005606,-0.145661,-0.007414,-0.002516,-0.145661,0.526510,-0.465871,-0.632783,-3.072231,1.794851,-11.966553
1790545518.5009,0.007223,-0.009041,-0.151896,0.002832,-0.007084,-0.151896,0.345603,-0.611568,-0.932676,-1.577440,3.951291,-12.471098
1790545518.5146,0.012745,-0.014144,-0.163716,0.009771,-0.012026,-0.163716,0.457304,-0.148980,-1.256852,-0.619240,2.203831,-7.503266
1790545518.5283,0.015215,-0.010655,-0.189259,0.013582,-0.011066,-0.189259,0.035996,-0.080988,-1.011595,0.530599,3.244871,-4.165504
1790545518.5424,0.020716,-0.016270,-0.203562,0.018576,-0.014709,-0.203562,0.378384,-0.195117,-0.865898,-0.849208,1.051251,-8.085434
1790545518.5564,0.030013,-0.022270,-0.212695,0.026582,-0.020002,-0.212695,0.503441,-0.429447,-0.795478,-1.807408,2.501271,-8.318301
1790545518.5705,0.033927,-0.027178,-0.215947,0.031724,-0.025025,-0.215947,0.486443,-0.121055,-0.641282,-1.194160,3.653851,-8.861658
1790545518.5850,0.015174,-0.016989,-0.220713,0.020139,-0.019400,-0.220713,-0.629354,1.337130,-0.528367,1.527127,5.178231,-17.361308
1790545518.5993,0.011413,-0.005322,-0.242900,0.014031,-0.009545,-0.242900,-0.862469,0.481160,-0.346245,-3.532167,1.497411,-13.596623
1790545518.6131,0.008328,0.002848,-0.287589,0.010039,-0.000870,-0.287589,-0.677919,0.591647,-0.308607,-4.183743,0.456371,-7.464455
1790545518.6270,-0.004929,0.018656,-0.255585,-0.000439,0.012798,-0.255585,-0.781121,1.004455,-0.122843,-0.044320,1.683311,-1.798021
1790545518.6412,0.003970,0.019168,-0.273099,0.002647,0.017257,-0.273099,-0.031996,-0.405164,-0.175051,-3.225543,2.166651,-9.599070
1790545518.6551,0.006584,0.008664,-0.263411,0.005403,0.011242,-0.263411,0.734128,-0.416091,0.565575,1.872079,1.497411,-9.288581
1790545518.6690,-0.016329,0.003462,-0.254306,-0.009809,0.005796,-0.254306,0.321320,1.247283,1.120438,6.203141,1.720491,-14.644525
1790545518.6831,-0.022988,-0.003194,-0.239817,-0.019035,-0.000497,-0.239817,0.411166,0.294182,1.428830,-0.849208,1.869211,-12.082986
1790545518.6972,-0.026227,-0.010686,-0.233776,-0.024069,-0.007629,-0.233776,0.413594,0.104776,1.321986,-1.079176,0.642271,-9.443825
1790545518.7112,-0.044062,-0.019522,-0.218786,-0.038064,-0.015954,-0.218786,0.525296,0.912180,1.328057,2.983590,0.642271,-8.784035
1790545518.7251,-0.056736,-0.030329,-0.200756,-0.051135,-0.026017,-0.200756,0.701346,0.714275,1.355982,0.683911,1.571771,-9.870749
1790545518.7390,-0.067042,-0.037513,-0.183824,-0.062270,-0.034064,-0.183824,0.485229,0.662067,1.183574,-0.427600,1.869211,-8.357112
1790545518.7526,-0.076469,-0.043098,-0.173173,-0.072209,-0.040388,-0.173173,0.326176,0.643855,1.135008,-0.657568,1.497411,-10.142427
1790545518.7662,-0.074829,-0.047690,-0.159581,-0.074043,-0.045500,-0.159581,0.232687,-0.221829,1.120438,0.223975,1.646131,-12.781588
1790545518.7803,-0.071970,-0.048901,-0.155369,-0.072592,-0.047881,-0.155369,-0.047780,-0.253396,0.881252,-0.197632,0.605091,-12.393476
1790545518.7943,-0.071121,-0.048815,-0.145701,-0.071562,-0.048534,-0.145701,-0.149767,-0.314103,0.805975,3.596838,0.047391,-10.414105
1790545518.8082,-0.067696,-0.044653,-0.136122,-0.068856,-0.045817,-0.136122,-0.414450,-0.476798,0.659064,3.098574,0.307651,-9.366203
1790545518.8222,-0.063067,-0.036895,-0.128711,-0.064804,-0.039572,-0.128711,-0.668206,-0.558146,0.509725,3.366870,0.233291,-9.793126
1790545518.8365,-0.057280,-0.025647,-0.125751,-0.059537,-0.029825,-0.125751,-0.897679,-0.588500,0.297250,2.791950,0.010211,-8.939280
1790545518.8505,-0.047936,-0.010804,-0.120757,-0.051416,-0.016510,-0.120757,-1.118653,-0.842255,0.167337,2.561982,0.865351,-8.551168
1790545518.8645,-0.037029,0.004661,-0.117953,-0.041345,-0.001691,-0.117953,-1.175718,-0.947886,0.038638,2.715294,0.716631,-8.900469
1790545518.8785,-0.024220,0.020441,-0.113442,-0.029358,0.013801,-0.113442,-1.134437,-1.083869,-0.060922,2.561982,1.534591,-7.891378
1790545518.8925,-0.029139,0.022960,-0.121333,-0.029204,0.020212,-0.121333,-0.221402,0.341533,-0.491942,3.213558,1.237151,-13.596623
1790545518.9066,-0.038760,0.013900,-0.137583,-0.035893,0.015794,-0.137583,0.675849,0.993528,-0.961815,-1.615768,1.943571,-12.936833
1790545518.9205,-0.019194,0.007409,-0.143836,-0.024204,0.009925,-0.143836,0.717130,-0.887178,-1.321201,-3.302199,3.505131,-5.679140
1790545518.9345,-0.022367,0.012469,-0.137160,-0.022918,0.011706,-0.137160,0.022641,0.085349,-0.842830,2.791950,3.839751,-2.884734
1790545518.9484,-0.019014,0.010457,-0.139659,-0.020185,0.010831,-0.139659,0.171980,-0.253396,-0.522296,2.063719,2.017931,-9.793126
1790545518.9623,-0.002448,0.002794,-0.161529,-0.007769,0.005205,-0.161529,0.567791,-0.877465,-0.812476,-3.417183,2.166651,-11.811308
1790545518.9759,0.007836,-0.005202,-0.171467,0.003154,-0.002080,-0.171467,0.670993,-0.581215,-0.859828,-0.465928,2.687171,-9.055714
1790545518.9895,0.009105,-0.005777,-0.176359,0.007320,-0.004668,-0.176359,0.264255,0.001574,-0.839187,0.683911,4.583351,-7.930189
1790545519.0036,0.012277,-0.006850,-0.188296,0.010790,-0.006195,-0.188296,0.153768,-0.055491,-0.810048,-0.465928,2.464091,-8.201867
1790545519.0175,0.014727,-0.010545,-0.201873,0.013546,-0.009240,-0.201873,0.328605,0.010073,-0.677706,-1.079176,2.389731,-8.745224
1790545519.0314,0.008518,-0.010320,-0.213917,0.010027,-0.009996,-0.213917,0.065136,0.614715,-0.513797,-1.807408,4.546171,-14.838581
1790545519.0453,-0.004035,-0.002401,-0.235995,0.000183,-0.004679,-0.235995,-0.584430,1.124655,-0.281896,-3.762135,2.241011,-15.498371
1790545519.0593,-0.003743,0.009008,-0.262289,-0.002565,0.004902,-0.262289,-0.864897,0.291753,-0.195692,-5.218598,1.199971,-11.306763
1790545519.0735,-0.007058,0.019607,-0.275889,-0.005710,0.015196,-0.275889,-0.787192,0.557651,-0.034211,-2.650623,0.605091,-4.708860
1790545519.0882,-0.009928,0.024647,-0.290998,-0.008662,0.021811,-0.290998,-0.437519,0.342747,0.016783,-1.040848,0.233291,-4.708860
1790545519.1021,-0.004339,0.024495,-0.276650,-0.005636,0.023690,-0.276650,0.124629,-0.260681,-0.001429,-1.999048,3.133331,-7.930189
1790545519.1161,-0.006955,0.019755,-0.256732,-0.006559,0.020935,-0.256732,0.369885,-0.014210,0.650565,1.987063,3.653851,-14.101168
1790545519.1301,-0.014247,0.011930,-0.244662,-0.011941,0.014631,-0.244662,0.486443,0.284469,1.250351,0.530599,1.646131,-13.480189
1790545519.1441,-0.025958,0.003158,-0.223268,-0.021753,0.006600,-0.223268,0.543508,0.499372,1.553887,1.833751,1.497411,-12.432287
1790545519.1581,-0.036615,-0.012256,-0.221049,-0.032156,-0.006599,-0.221049,0.900465,0.583148,1.324414,-0.082648,-0.435949,-7.930189
1790545519.1721,-0.055305,-0.025787,-0.206950,-0.048360,-0.020030,-0.206950,0.831259,1.080946,1.319558,1.450471,0.307651,-8.163056
1790545519.1860,-0.071615,-0.036819,-0.188416,-0.064638,-0.031783,-0.188416,0.757197,1.021453,1.166576,0.607255,1.757671,-8.357112
1790545519.1999,-0.081778,-0.043215,-0.163789,-0.076636,-0.039785,-0.163789,0.479158,0.659639,1.114368,-0.312616,2.873071,-9.055714
1790545519.2136,-0.086463,-0.047348,-0.150905,-0.083515,-0.045079,-0.150905,0.236330,0.300252,1.064588,-0.504256,2.017931,-10.802217
1790545519.2272,-0.086136,-0.050860,-0.136121,-0.085349,-0.049126,-0.136121,0.191406,-0.108913,0.984454,0.453943,2.203831,-12.277042
1790545519.2414,-0.084740,-0.053598,-0.125155,-0.084923,-0.052256,-0.125155,0.084562,-0.214544,0.843614,1.335487,0.976891,-11.112707
1790545519.2554,-0.082492,-0.054843,-0.110547,-0.083222,-0.054067,-0.110547,-0.017426,-0.337172,0.719771,2.523654,0.642271,-10.414105
1790545519.2693,-0.078318,-0.052566,-0.097738,-0.079789,-0.053017,-0.097738,-0.283323,-0.470728,0.703988,2.370342,0.419191,-10.336483
1790545519.2834,-0.071239,-0.044578,-0.088144,-0.073804,-0.047109,-0.088144,-0.680348,-0.650421,0.531579,1.948735,0.270471,-9.094525
1790545519.2974,-0.066439,-0.033562,-0.081672,-0.068649,-0.037626,-0.081672,-0.936532,-0.510794,0.270539,2.715294,-0.659029,-9.094525
1790545519.3114,-0.059364,-0.020532,-0.069854,-0.062149,-0.025660,-0.069854,-1.049447,-0.722055,0.158838,3.520182,-0.250049,-8.784035
1790545519.3254,-0.047969,-0.005500,-0.062892,-0.052223,-0.011548,-0.062892,-1.142936,-0.964884,-0.003857,2.983590,0.716631,-10.064805
1790545519.3401,-0.034611,0.013594,-0.051661,-0.039894,0.006051,-0.051661,-1.348126,-1.109366,-0.036639,3.596838,0.939711,-8.861658
1790545519.3540,-0.029721,0.026854,-0.050085,-0.032773,0.020613,-0.050085,-1.067659,-0.481655,-0.221189,4.401726,-0.138509,-13.441378
1790545519.3680,-0.036165,0.024191,-0.069569,-0.035148,0.023117,-0.069569,0.152554,0.808978,-0.819761,-3.187215,0.790991,-13.984735
1790545519.3819,-0.031817,0.010774,-0.086016,-0.032816,0.014477,-0.086016,0.957530,-0.087059,-1.072302,0.223975,1.608951,-16.623896
1790545519.3959,-0.031626,0.018776,-0.078465,-0.031983,0.017487,-0.078465,-0.302749,-0.131982,-0.664351,2.178703,2.761531,-3.660958
1790545519.4098,-0.032028,0.015811,-0.086686,-0.032015,0.016313,-0.086686,0.174408,0.149699,-0.400882,-0.197632,0.939711,-9.793126
1790545519.4238,-0.017025,0.010150,-0.101066,-0.021522,0.011999,-0.101066,0.371099,-0.785191,-0.676492,-2.727279,0.939711,-10.103616
1790545519.4373,-0.011016,0.005278,-0.112454,-0.014168,0.007294,-0.112454,0.395382,-0.278893,-0.926605,0.223975,1.943571,-9.793126
1790545519.4509,-0.009008,0.007052,-0.115673,-0.010556,0.007125,-0.115673,0.122200,-0.037279,-0.862256,0.683911,4.100011,-6.494175
1790545519.4649,-0.007523,0.009394,-0.123690,-0.008433,0.008714,-0.123690,0.088204,0.065923,-0.805191,-0.159304,3.765391,-5.679140
1790545519.4789,-0.004905,0.004272,-0.138816,-0.005964,0.005605,-0.138816,0.435449,0.044069,-0.674064,-1.232488,2.092291,-7.503266
1790545519.4929,0.005718,-0.001157,-0.155527,0.002214,0.000872,-0.155527,0.476730,-0.476798,-0.661922,-2.957247,3.282051,-9.987182
1790545519.5070,-0.006502,0.001876,-0.151651,-0.003887,0.001575,-0.151651,0.023855,0.971673,-0.349888,-0.350944,5.103871,-8.046623
1790545519.5209,-0.014053,0.009714,-0.180195,-0.011003,0.007272,-0.180195,-0.574717,0.842974,-0.323177,-5.525222,2.538451,-15.653616
1790545519.5349,-0.013593,0.020635,-0.197375,-0.012816,0.016626,-0.197375,-0.736198,0.282040,-0.185979,-4.643678,2.798711,-9.754315
1790545519.5487,-0.016609,0.027627,-0.216474,-0.015471,0.024327,-0.216474,-0.602642,0.522440,0.124842,-3.723807,0.344831,-6.804665
1790545519.5626,-0.022219,0.034981,-0.205963,-0.020195,0.031785,-0.205963,-0.409594,0.488445,0.065349,-0.887536,2.798711,-6.804665
1790545519.5767,-0.013772,0.026365,-0.206537,-0.015699,0.027991,-0.206537,0.600572,-0.555718,0.304535,-1.309144,1.720491,-7.813756
1790545519.5915,-0.026368,0.019297,-0.167292,-0.023168,0.021905,-0.167292,0.505869,0.494515,1.019664,5.091629,4.062831,-15.032637
1790545519.6057,-0.033978,0.010765,-0.164396,-0.030735,0.014107,-0.164396,0.498584,0.403455,1.059731,-0.580912,1.348691,-13.208511
1790545519.6197,-0.039443,0.000553,-0.167461,-0.036831,0.004619,-0.167461,0.572647,0.314822,1.136222,-1.385800,0.307651,-9.987182
1790545519.6337,-0.051328,-0.003180,-0.147223,-0.046979,-0.000840,-0.147223,0.277611,0.688778,1.050018,0.262303,1.943571,-6.921098
1790545519.6475,-0.065171,-0.009694,-0.127675,-0.059713,-0.007038,-0.127675,0.446376,0.812620,1.114368,0.683911,1.646131,-6.959909
1790545519.6611,-0.073471,-0.016836,-0.108183,-0.069343,-0.013897,-0.108183,0.498584,0.460519,1.171432,0.262303,2.092291,-8.007811
1790545519.6747,-0.083620,-0.021800,-0.090613,-0.079337,-0.019429,-0.090613,0.309178,0.590432,1.156863,0.837223,2.501271,-11.384385
1790545519.6884,-0.087133,-0.026126,-0.075485,-0.084794,-0.024117,-0.075485,0.265469,0.167911,1.128937,-0.312616,2.761531,-10.996273
1790545519.7024,-0.087120,-0.029468,-0.057549,-0.086422,-0.027863,-0.057549,0.182907,-0.134410,0.990525,0.875551,2.501271,-11.306763
1790545519.7163,-0.081823,-0.029195,-0.048561,-0.083203,-0.028795,-0.048561,-0.142483,-0.502295,0.849685,1.067191,1.162791,-11.733686
1790545519.7301,-0.078792,-0.025639,-0.029103,-0.080115,-0.026586,-0.029103,-0.365885,-0.450087,0.661493,3.213558,0.753811,-10.646972
1790545519.7440,-0.071926,-0.016260,-0.008657,-0.074382,-0.019358,-0.008657,-0.753196,-0.718413,0.553434,2.446998,0.976891,-8.240679
1790545519.7579,-0.064933,-0.005308,0.016301,-0.067768,-0.009523,0.016301,-0.852756,-0.783976,0.361599,3.481854,0.902531,-7.969000
1790545519.7718,-0.057063,0.005307,0.028594,-0.060275,0.000858,0.028594,-0.866111,-0.770621,0.228044,3.251886,0.419191,-9.831937
1790545519.7856,-0.048338,0.018760,0.041003,-0.051919,0.013389,0.041003,-1.025164,-0.814330,0.077490,3.213558,1.199971,-9.870749
1790545519.7996,-0.043788,0.028803,0.043419,-0.046228,0.024179,0.043419,-0.801762,-0.422162,-0.137413,3.136902,0.679451,-12.393476
1790545519.8136,-0.048705,0.027739,0.026415,-0.047962,0.026671,0.026415,0.074849,0.544295,-0.637639,-0.235960,1.720491,-13.208511
1790545519.8276,-0.049004,0.023184,-0.002682,-0.048691,0.024230,-0.002682,0.406310,0.394956,-1.175504,-1.615768,2.278191,-10.879840
1790545519.8420,-0.036283,0.024118,-0.006738,-0.040006,0.024151,-0.006738,0.255756,-0.689273,-1.116011,0.300631,3.691031,-4.747672
1790545519.8559,-0.036248,0.017914,0.002709,-0.037375,0.019785,0.002709,0.467017,-0.146552,-0.464017,3.328542,1.385871,-7.192776
1790545519.8699,-0.022547,0.008999,-0.022918,-0.026995,0.012235,-0.022918,0.635782,-0.701415,-0.842830,-2.190688,1.832031,-13.092077
1790545519.8842,-0.008590,0.001009,-0.042892,-0.014111,0.004377,-0.042892,0.640639,-0.707485,-1.173076,-1.002520,2.575631,-9.754315
1790545519.8978,-0.001971,-0.005708,-0.053772,-0.005613,-0.002683,-0.053772,0.622427,-0.283750,-1.226498,0.147319,2.687171,-7.619700
1790545519.9114,0.001134,-0.008807,-0.050572,-0.000890,-0.006969,-0.050572,0.411166,-0.196332,-1.020094,1.450471,2.873071,-6.067252
1790545519.9254,0.014996,-0.016626,-0.071716,0.010230,-0.013729,-0.071716,0.570219,-0.765764,-0.907179,-1.309144,1.608951,-9.288581
1790545519.9393,0.002123,-0.021362,-0.075087,0.004555,-0.019072,-0.075087,0.459732,0.997170,-0.674064,0.952207,4.471811,-12.587532
1790545519.9532,-0.012670,-0.014347,-0.089174,-0.007502,-0.015764,-0.089174,-0.469087,1.219358,-0.698347,-0.235960,3.988471,-20.194525
1790545519.9672,-0.010523,-0.001594,-0.138770,-0.009617,-0.005845,-0.138770,-1.032449,0.186123,-0.647353,-3.570495,-0.435949,-10.996273
1790545519.9811,-0.012928,0.011835,-0.182699,-0.011934,0.006531,-0.182699,-1.088299,0.567364,-0.590288,-2.497311,-0.175689,-5.717951
1790545519.9951,-0.022416,0.024772,-0.210550,-0.019272,0.019300,-0.210550,-1.070087,0.913394,-0.462803,-0.657568,-0.250049,-3.932637
1790545520.0092,-0.026631,0.030369,-0.230870,-0.024423,0.027048,-0.230870,-0.499440,0.631713,-0.485872,-2.152360,-0.026969,-6.261308
1790545520.0232,-0.020007,0.029019,-0.225551,-0.021332,0.028428,-0.225551,0.187764,-0.342029,-0.279468,-1.730752,5.103871,-14.877392
1790545520.0372,-0.017073,0.026953,-0.220255,-0.018350,0.027395,-0.220255,0.130699,-0.278893,0.422307,-0.044320,3.058971,-14.916203
1790545520.0512,-0.031757,0.023188,-0.202533,-0.027735,0.024450,-0.202533,0.220546,0.768911,1.043947,2.140375,1.832031,-10.957462
1790545520.0651,-0.031470,0.013166,-0.196910,-0.030350,0.016551,-0.196910,0.558077,-0.207259,1.162933,-0.120976,0.233291,-7.736133
1790545520.0793,-0.037156,0.006841,-0.172732,-0.035114,0.009754,-0.172732,0.537437,0.313608,0.739198,-0.235960,2.761531,-7.115154
1790545520.0940,-0.059422,0.003931,-0.144106,-0.052130,0.005678,-0.144106,0.247257,1.269138,0.697917,2.830278,2.724351,-8.978091
1790545520.1083,-0.070547,-0.005892,-0.141109,-0.065022,-0.002421,-0.141109,0.579932,0.671780,0.761052,0.798895,1.014071,-12.432287
1790545520.1221,-0.080459,-0.012667,-0.127865,-0.075828,-0.009593,-0.127865,0.464588,0.623214,0.939531,0.070663,2.389731,-9.715504
1790545520.1357,-0.087223,-0.016300,-0.111227,-0.083805,-0.014288,-0.111227,0.267897,0.415596,0.940745,-0.005993,3.058971,-10.297672
1790545520.1493,-0.085586,-0.018483,-0.097937,-0.085052,-0.017225,-0.097937,0.147697,-0.162336,0.827830,-0.427600,2.464091,-8.784035
1790545520.1633,-0.083675,-0.019563,-0.085634,-0.084088,-0.018862,-0.085634,0.051780,-0.225471,0.632353,0.837223,2.426911,-10.957462
1790545520.1772,-0.076116,-0.021373,-0.085801,-0.078508,-0.020619,-0.085801,0.010499,-0.590928,0.515795,0.453943,0.790991,-12.471098
1790545520.1912,-0.071326,-0.016718,-0.071711,-0.073481,-0.017889,-0.071711,-0.398667,-0.516865,0.456303,2.906934,1.423051,-11.850119
1790545520.2051,-0.064784,-0.009667,-0.054601,-0.067393,-0.012134,-0.054601,-0.589287,-0.696558,0.319104,3.175230,0.605091,-8.784035
1790545520.2189,-0.056217,-0.000095,-0.039178,-0.059569,-0.003707,-0.039178,-0.705845,-0.793690,0.116343,2.178703,1.237151,-7.076343
1790545520.2329,-0.045887,0.009253,-0.025864,-0.049991,0.005365,-0.025864,-0.656065,-0.877465,-0.023284,2.217030,1.683311,-7.930189
1790545520.2470,-0.035463,0.020857,-0.011587,-0.039821,0.016209,-0.011587,-0.822402,-0.919960,-0.133771,3.865134,2.092291,-10.375294
1790545520.2608,-0.035589,0.029996,-0.003907,-0.036859,0.025860,-0.003907,-0.657279,-0.129554,-0.280682,4.976645,2.389731,-13.014455
1790545520.2747,-0.042961,0.029710,-0.017955,-0.041130,0.028555,-0.017955,-0.036852,0.649925,-0.790621,2.446998,0.456371,-15.847672
1790545520.2887,-0.028968,0.025025,-0.086781,-0.032616,0.026084,-0.086781,0.306750,-0.356598,-1.209500,-6.291782,0.605091,-8.434735
1790545520.3025,-0.007142,0.019491,-0.107329,-0.014784,0.021469,-0.107329,0.465803,-1.006164,-1.175504,-4.107087,1.571771,-5.717951
1790545520.3164,-0.010389,0.008060,-0.096889,-0.011708,0.012083,-0.096889,0.857970,0.143628,-0.805191,3.251886,1.385871,-7.153965
1790545520.3304,0.003772,0.000324,-0.117014,-0.000872,0.003851,-0.117014,0.605429,-0.661348,-1.090514,-2.612295,2.315371,-9.405014
1790545520.3446,0.020562,-0.003644,-0.125124,0.014132,-0.001395,-0.125124,0.379598,-0.955170,-1.267779,-0.465928,3.282051,-9.599070
1790545520.3585,0.021737,-0.011924,-0.140205,0.019456,-0.008765,-0.140205,0.584789,0.080493,-1.374624,0.760567,1.199971,-7.736133
1790545520.3726,0.029170,-0.012194,-0.146266,0.026256,-0.011165,-0.146266,0.171980,-0.287392,-1.247139,-0.619240,2.761531,-5.989630
1790545520.3869,0.038691,-0.019446,-0.165360,0.034961,-0.016962,-0.165360,0.476730,-0.450087,-1.099013,-0.887536,1.199971,-8.589979
1790545520.4009,0.036923,-0.028119,-0.169476,0.036334,-0.024772,-0.169476,0.655209,0.210406,-0.636425,-0.044320,3.356411,-14.683336
1790545520.4149,0.016983,-0.019868,-0.183420,0.022788,-0.021339,-0.183420,-0.546792,1.611526,-0.643710,-2.535639,4.620531,-18.758511
1790545520.4292,0.015343,-0.005046,-0.214567,0.017577,-0.009934,-0.214567,-1.084657,0.438665,-0.601215,-5.793518,1.683311,-15.149070
1790545520.4432,0.011959,0.009159,-0.242863,0.013644,0.003431,-0.242863,-1.055517,0.679065,-0.541722,-2.267343,0.493551,-3.583336
1790545520.4572,-0.007714,0.022630,-0.239434,-0.001307,0.016870,-0.239434,-0.926818,1.382053,-0.188407,0.492271,0.716631,-2.962357
1790545520.4714,-0.022935,0.033958,-0.235203,-0.016446,0.028832,-0.235203,-0.666992,1.170792,-0.470088,0.415615,2.724351,-6.998721
1790545520.4858,-0.011174,0.028745,-0.262683,-0.012756,0.028771,-0.262683,0.237544,-0.595784,-0.383884,-4.107087,0.196111,-18.137532
1790545520.5010,-0.016606,0.024159,-0.222964,-0.015451,0.025543,-0.222964,0.442734,0.118131,0.351886,5.896517,7.669290,-16.701518
1790545520.5154,-0.026030,0.017129,-0.233098,-0.022856,0.019653,-0.233098,0.307964,0.558865,0.883681,-0.580912,-0.398769,-10.491728
1790545520.5294,-0.027569,0.011043,-0.212303,-0.026155,0.013626,-0.212303,0.390526,-0.169621,1.204214,1.105519,1.720491,-8.861658
1790545520.5445,-0.031732,-0.000103,-0.221233,-0.030059,0.004016,-0.221233,0.590859,0.306323,0.886109,-2.382327,0.047391,-8.473546
1790545520.5588,-0.059260,-0.004486,-0.184344,-0.050500,-0.001935,-0.184344,0.312821,1.532607,0.996596,4.133430,1.757671,-7.774944
1790545520.5725,-0.071282,-0.017734,-0.178481,-0.065048,-0.012994,-0.178481,0.827617,0.743414,1.104654,0.223975,0.716631,-9.288581
1790545520.5866,-0.082035,-0.023842,-0.155062,-0.076939,-0.020588,-0.155062,0.470659,0.652354,1.028163,0.300631,3.467951,-9.987182
1790545520.6006,-0.089465,-0.028588,-0.143158,-0.085707,-0.026188,-0.143158,0.272754,0.469018,1.079157,-0.580912,2.278191,-10.646972
1790545520.6148,-0.086826,-0.032636,-0.127921,-0.086490,-0.030702,-0.127921,0.180479,-0.301962,1.145935,0.185647,2.017931,-11.462007
1790545520.6288,-0.083180,-0.031037,-0.116820,-0.084173,-0.030937,-0.116820,-0.220188,-0.355384,0.996596,0.147319,1.274331,-8.628791
1790545520.6428,-0.079360,-0.027432,-0.098376,-0.080804,-0.028484,-0.098376,-0.283323,-0.391809,0.856969,0.683911,2.278191,-9.249770
1790545520.6567,-0.072776,-0.024279,-0.086464,-0.075185,-0.025540,-0.086464,-0.289394,-0.592142,0.673634,1.067191,1.646131,-10.181238
1790545520.6707,-0.065437,-0.016709,-0.073164,-0.068361,-0.019358,-0.073164,-0.625711,-0.719627,0.491513,3.481854,1.162791,-12.936833
1790545520.6849,-0.058552,-0.003645,-0.060059,-0.061495,-0.008359,-0.060059,-0.988740,-0.705057,0.169765,4.593365,0.865351,-11.617252
1790545520.6989,-0.046178,0.012992,-0.051836,-0.050773,0.006586,-0.051836,-1.219427,-1.018306,-0.096132,2.638638,1.348691,-9.288581
1790545520.7129,-0.038480,0.025731,-0.050036,-0.042168,0.019988,-0.050036,-0.979027,-0.675918,-0.311035,3.443526,0.605091,-9.793126
1790545520.7267,-0.046347,0.022513,-0.068769,-0.045093,0.021755,-0.068769,0.146483,0.691206,-0.632783,1.182175,-0.101329,-12.898021
1790545520.7407,-0.038814,0.014930,-0.093154,-0.040698,0.016978,-0.093154,0.535009,-0.241255,-1.167005,-0.849208,1.014071,-12.548721
1790545520.7547,-0.025587,0.005492,-0.110435,-0.030121,0.008938,-0.110435,0.740199,-0.711128,-1.474183,0.722239,1.720491,-9.366203
1790545520.7685,-0.025006,0.003560,-0.111239,-0.026541,0.005173,-0.111239,0.236330,-0.040921,-0.892609,2.217030,2.017931,-7.076343
1790545520.7825,-0.012840,0.000141,-0.125770,-0.016950,0.001651,-0.125770,0.270326,-0.662562,-0.964244,-0.504256,1.534591,-8.861658
1790545520.7965,0.000709,-0.009060,-0.134897,-0.004589,-0.005847,-0.134897,0.741413,-0.800974,-1.133009,0.415615,2.947431,-10.608161
1790545520.8104,0.007434,-0.013071,-0.148481,0.003827,-0.010904,-0.148481,0.419665,-0.238827,-1.418333,-0.235960,3.170511,-8.706413
1790545520.8244,0.014651,-0.013887,-0.162384,0.011404,-0.012992,-0.162384,0.192621,-0.259467,-1.312703,-0.810880,3.467951,-8.861658
1790545520.8384,0.016731,-0.013984,-0.176470,0.015133,-0.013686,-0.176470,0.110059,0.091420,-1.116011,-0.772552,2.464091,-7.115154
1790545520.8532,0.017773,-0.018638,-0.188700,0.016981,-0.017153,-0.188700,0.354102,0.098705,-0.744484,-0.887536,2.241011,-9.637881
1790545520.8673,0.006947,-0.015632,-0.199856,0.009957,-0.016088,-0.199856,-0.216545,0.876970,-0.624284,0.108991,2.612811,-17.206063
1790545520.8817,0.004002,-0.004912,-0.231307,0.005789,-0.008265,-0.231307,-0.801762,0.506657,-0.383884,-5.410238,1.311511,-13.984735
1790545520.8956,-0.002325,0.007684,-0.261418,0.000109,0.002900,-0.261418,-1.005738,0.785909,-0.280682,-2.727279,0.196111,-6.144874
1790545520.9094,-0.015162,0.020574,-0.221029,-0.010581,0.015271,-0.221029,-0.748340,0.654782,-0.131342,2.063719,1.683311,-3.234035
1790545520.9233,-0.021522,0.023247,-0.242956,-0.018240,0.020855,-0.242956,-0.246899,0.672994,-0.141055,-1.769080,0.828171,-7.231588
1790545520.9372,-0.010633,0.018104,-0.250749,-0.012915,0.018929,-0.250749,0.331033,-0.669847,0.099345,-2.918919,2.241011,-14.062357
1790545520.9511,-0.017702,0.020871,-0.234165,-0.016266,0.020289,-0.234165,-0.127913,0.381600,0.572860,0.952207,4.657711,-13.868301
1790545520.9651,-0.021477,0.016749,-0.225748,-0.019914,0.017811,-0.225748,0.188978,0.057424,1.064588,0.568927,0.865351,-10.375294
1790545520.9790,-0.028871,0.006341,-0.202689,-0.026184,0.009782,-0.202689,0.630926,0.124202,1.504107,2.523654,0.753811,-9.676693
1790545520.9929,-0.039062,-0.005775,-0.198874,-0.035199,-0.001108,-0.198874,0.667350,0.511513,1.137436,0.760567,-0.510309,-7.270399
1790545521.0068,-0.051940,-0.016598,-0.191358,-0.046918,-0.011951,-0.191358,0.674635,0.801693,1.094941,0.032335,0.828171,-9.637881
1790545521.0209,-0.067776,-0.025812,-0.181207,-0.061518,-0.021654,-0.181207,0.572647,1.000812,1.050018,0.338959,1.237151,-9.443825
1790545521.0350,-0.076985,-0.033589,-0.160488,-0.072345,-0.030008,-0.160488,0.526510,0.517584,1.210285,0.377287,2.724351,-10.452916
1790545521.0488,-0.084137,-0.040456,-0.145965,-0.080600,-0.037322,-0.145965,0.424522,0.442307,1.192073,-0.350944,1.869211,-9.676693
1790545521.0625,-0.084056,-0.045023,-0.127172,-0.083019,-0.042712,-0.127172,0.258184,-0.147766,1.144721,0.875551,2.092291,-10.763406
1790545521.0767,-0.082977,-0.051234,-0.120608,-0.082990,-0.048678,-0.120608,0.258184,-0.173263,1.009951,0.568927,0.047391,-11.772497
1790545521.0910,-0.082275,-0.056612,-0.112265,-0.082490,-0.054232,-0.112265,0.178051,-0.213330,0.924961,2.255358,-0.696209,-12.160609
1790545521.1057,-0.079869,-0.058269,-0.095260,-0.080655,-0.057058,-0.095260,-0.018640,-0.399093,0.748911,3.366870,0.084571,-9.405014
1790545521.1199,-0.076866,-0.051827,-0.072301,-0.078003,-0.053396,-0.072301,-0.574717,-0.531435,0.696703,4.708349,0.158931,-9.016902
1790545521.1340,-0.072452,-0.042331,-0.063172,-0.074117,-0.045651,-0.063172,-0.862469,-0.520508,0.611713,2.408670,-0.733389,-7.930189
1790545521.1481,-0.066493,-0.029634,-0.048694,-0.068780,-0.034439,-0.048694,-1.028806,-0.698986,0.553434,3.750150,0.047391,-8.745224
1790545521.1622,-0.054525,-0.010961,-0.042182,-0.058802,-0.018005,-0.042182,-1.402762,-0.975811,0.249898,1.795423,0.790991,-9.133336
1790545521.1763,-0.039000,0.009895,-0.034372,-0.044940,0.001525,-0.034372,-1.564243,-1.289060,0.138197,2.485326,0.605091,-8.163056
1790545521.1904,-0.022403,0.033376,-0.025007,-0.029164,0.023821,-0.025007,-1.657732,-1.361908,0.115129,1.910407,1.646131,-6.688231
1790545521.2045,-0.038593,0.034170,-0.029026,-0.035764,0.031066,-0.029026,-0.227473,1.022667,-0.290395,7.046356,-2.332128,-16.002917
1790545521.2184,-0.042767,0.019700,-0.044233,-0.040666,0.023109,-0.044233,0.974528,0.605002,-0.886539,-1.845736,0.010211,-13.713056
1790545521.2326,-0.039701,0.018987,-0.051917,-0.039990,0.020224,-0.051917,0.362600,-0.079774,-0.608500,0.108991,5.996190,-7.464455
1790545521.2468,-0.042317,0.023859,-0.051289,-0.041619,0.022769,-0.051289,-0.314891,0.039212,-0.236973,3.290214,1.832031,-7.969000
1790545521.2609,-0.036717,0.017536,-0.055858,-0.038188,0.019106,-0.055858,0.366243,-0.255825,-0.209047,-1.347472,0.419191,-10.685784
1790545521.2746,-0.021465,0.009181,-0.064777,-0.026482,0.012159,-0.064777,0.650352,-0.842255,-0.561149,-3.148887,2.649991,-11.656063
1790545521.2883,-0.014780,0.003899,-0.073157,-0.018290,0.006377,-0.073157,0.460946,-0.329887,-0.676492,-0.350944,2.501271,-9.094525
1790545521.3022,-0.012373,0.006455,-0.077190,-0.014148,0.006432,-0.077190,0.020212,-0.102843,-0.557506,0.683911,4.694891,-8.667602
1790545521.3162,-0.011841,0.004976,-0.087240,-0.012534,0.005413,-0.087240,0.187764,0.146056,-0.557506,-0.925864,2.464091,-8.240679
1790545521.3300,-0.003348,0.003619,-0.099673,-0.006104,0.004157,-0.099673,0.184122,-0.334744,-0.550221,-2.688951,2.761531,-8.667602
1790545521.3440,-0.001295,0.002772,-0.104481,-0.002738,0.003188,-0.104481,0.210833,0.044069,-0.298894,-2.842263,5.438491,-12.005364
1790545521.3581,-0.011700,0.009429,-0.114509,-0.009011,0.007557,-0.114509,-0.432663,0.919465,-0.181122,-3.110559,3.728211,-15.187882
1790545521.3721,-0.012441,0.018648,-0.122945,-0.011412,0.015320,-0.122945,-0.641495,0.255329,-0.007500,-4.298727,3.207691,-13.713056
1790545521.3862,-0.011365,0.024519,-0.135933,-0.011379,0.021759,-0.135933,-0.464230,0.211620,-0.056065,-4.222071,1.088431,-8.978091
1790545521.4005,-0.014127,0.028115,-0.131854,-0.013303,0.026208,-0.131854,-0.218974,0.210406,0.317890,-0.810880,2.092291,-7.580888
1790545521.4146,-0.021815,0.027796,-0.114542,-0.019261,0.027320,-0.114542,0.101560,0.392527,0.540078,0.875551,2.464091,-6.804665
1790545521.4285,-0.021771,0.017716,-0.103925,-0.021018,0.020597,-0.103925,0.633354,-0.208473,0.917677,0.798895,1.199971,-11.035084
1790545521.4427,-0.032321,0.006400,-0.089337,-0.028930,0.010659,-0.089337,0.678277,0.462948,1.260065,1.680439,0.679451,-11.733686
1790545521.4568,-0.038779,-0.003831,-0.080125,-0.035824,0.000516,-0.080125,0.623641,0.341533,1.181145,-0.887536,1.051251,-9.909560
1790545521.4708,-0.049038,-0.010288,-0.059664,-0.045074,-0.007047,-0.059664,0.462160,0.524869,1.155648,0.913879,2.315371,-8.706413
1790545521.4847,-0.065138,-0.017616,-0.039073,-0.059119,-0.014445,-0.039073,0.492514,0.907324,1.150792,1.680439,1.832031,-8.318301
1790545521.4989,-0.078123,-0.027757,-0.019759,-0.072421,-0.023764,-0.019759,0.667350,0.722774,1.204214,1.067191,1.906391,-8.512357
1790545521.5127,-0.088793,-0.035778,-0.003314,-0.083882,-0.032174,-0.003314,0.547150,0.649925,1.124081,0.568927,2.649991,-10.569350
1790545521.5265,-0.086097,-0.041182,0.012102,-0.085433,-0.038479,0.012102,0.343174,-0.281322,1.056089,0.032335,2.835891,-11.656063
1790545521.5407,-0.082506,-0.041853,0.027757,-0.083384,-0.040841,0.027757,-0.031996,-0.394237,0.928604,1.450471,1.980751,-12.238231
1790545521.5546,-0.079821,-0.043369,0.038780,-0.080890,-0.042610,0.038780,-0.072062,-0.383310,0.710058,2.830278,-0.584669,-11.190329
1790545521.5686,-0.078871,-0.042959,0.055711,-0.079477,-0.042854,0.055711,-0.184978,-0.342029,0.629925,3.558510,-0.324409,-8.395923
1790545521.5827,-0.074560,-0.037097,0.063593,-0.076035,-0.038824,0.063593,-0.585644,-0.458586,0.532793,2.025391,-0.547489,-9.249770
1790545521.5970,-0.068661,-0.028528,0.071718,-0.070873,-0.031617,0.071718,-0.783550,-0.613997,0.354315,2.715294,-0.956469,-7.930189
1790545521.6118,-0.062168,-0.014184,0.079136,-0.064779,-0.019414,0.079136,-1.053089,-0.616425,0.126056,3.443526,0.419191,-9.793126
1790545521.6260,-0.050933,0.003756,0.083981,-0.055087,-0.003195,0.083981,-1.343269,-0.958813,-0.097346,3.865134,0.567911,-10.685784
1790545521.6401,-0.039279,0.025483,0.088172,-0.044021,0.016880,0.088172,-1.563029,-1.009807,-0.196906,3.865134,1.348691,-8.978091
1790545521.6543,-0.033881,0.041200,0.087594,-0.036923,0.033904,0.087594,-1.161148,-0.435518,-0.335318,3.481854,1.460231,-14.062357
1790545521.6684,-0.036213,0.035318,0.068555,-0.036426,0.034893,0.068555,0.375956,0.535796,-0.964244,-2.305671,0.530731,-11.112707
1790545521.6824,-0.023735,0.020987,0.046189,-0.027542,0.025159,0.046189,0.984241,-0.435518,-1.368553,-3.723807,0.456371,-13.363756
1790545521.6967,-0.020841,0.023755,0.035402,-0.022851,0.024176,0.035402,-0.107272,0.017357,-0.708060,-0.887536,2.612811,-8.434735
1790545521.7109,-0.023209,0.019414,0.027243,-0.023101,0.020843,0.027243,0.299465,0.325749,-0.417880,-0.887536,1.720491,-11.190329
1790545521.7251,-0.007478,0.014519,0.015679,-0.012165,0.016416,0.015679,0.379598,-0.788833,-0.782122,-3.685479,2.724351,-12.238231
1790545521.7389,0.001890,0.007509,0.004202,-0.002327,0.010181,0.004202,0.542294,-0.493796,-0.963030,-0.159304,2.575631,-11.927742
1790545521.7526,0.003678,0.007712,-0.002453,0.001877,0.008453,-0.002453,0.196263,0.018572,-0.892609,0.223975,3.728211,-6.649420
1790545521.7668,0.005322,0.009057,-0.012206,0.004289,0.008876,-0.012206,0.054208,0.085349,-0.823403,-0.657568,3.542311,-7.930189
1790545521.7808,0.005127,0.007093,-0.022709,0.004876,0.007628,-0.022709,0.244829,0.227404,-0.676492,-1.155832,2.910251,-8.085434
1790545521.7947,0.013210,0.004543,-0.036337,0.010710,0.005468,-0.036337,0.260613,-0.293463,-0.615785,-3.187215,3.170511,-9.909560
1790545521.8081,0.013406,0.006649,-0.036807,0.012597,0.006295,-0.036807,0.065136,0.156984,-0.414237,-1.270816,4.211551,-7.037532
1790545521.8222,0.003215,0.009160,-0.052685,0.006030,0.008300,-0.052685,-0.178907,0.940105,-0.353530,-3.455511,2.910251,-15.692427
1790545521.8363,-0.000419,0.016085,-0.065498,0.001515,0.013750,-0.065498,-0.477586,0.476303,-0.245472,-3.877119,3.244871,-14.683336
1790545521.8504,-0.003503,0.025216,-0.073153,-0.001998,0.021776,-0.073153,-0.612356,0.421667,0.051993,-3.608823,2.873071,-10.375294
1790545521.8645,-0.001586,0.029795,-0.078892,-0.001710,0.027389,-0.078892,-0.347673,0.002788,0.325175,-2.880591,1.608951,-8.473546
1790545521.8785,-0.002694,0.028606,-0.073679,-0.002399,0.028241,-0.073679,0.060279,-0.019067,0.496369,0.147319,1.832031,-10.142427
1790545521.8925,-0.005450,0.020202,-0.065766,-0.004534,0.022613,-0.065766,0.469445,-0.056705,0.968670,1.220503,0.158931,-10.025993
1790545521.9064,-0.013230,0.011690,-0.056009,-0.010621,0.014967,-0.056009,0.532580,0.351246,1.076729,0.530599,1.088431,-10.996273
1790545521.9203,-0.024091,0.001810,-0.053084,-0.020050,0.005757,-0.053084,0.596930,0.675422,0.941959,-0.427600,0.419191,-8.939280
1790545521.9343,-0.037199,-0.005823,-0.041894,-0.032054,-0.002349,-0.041894,0.503441,0.788338,0.997810,0.262303,1.385871,-8.279490
1790545521.9483,-0.049157,-0.013485,-0.028172,-0.044026,-0.010144,-0.028172,0.526510,0.730059,1.006309,0.147319,1.869211,-8.939280
1790545521.9619,-0.062872,-0.020715,-0.005127,-0.057218,-0.017544,-0.005127,0.530152,0.772554,1.130151,1.450471,2.055111,-7.813756
1790545521.9755,-0.070592,-0.027700,0.012437,-0.066580,-0.024653,0.012437,0.488871,0.443521,1.105869,0.223975,2.501271,-10.181238
1790545521.9892,-0.077492,-0.034618,0.030924,-0.074219,-0.031629,0.030924,0.463374,0.341533,1.082800,1.182175,2.278191,-10.569350
1790545522.0033,-0.076936,-0.040991,0.045380,-0.076121,-0.038182,0.045380,0.403881,-0.131982,0.901893,0.377287,1.980751,-9.948371
1790545522.0175,-0.069220,-0.044076,0.065517,-0.071290,-0.042308,0.065517,0.232687,-0.654063,0.788977,1.028863,3.653851,-12.898021
1790545522.0315,-0.065148,-0.041306,0.077776,-0.066990,-0.041606,0.077776,-0.306392,-0.479227,0.595929,2.906934,0.419191,-11.306763
1790545522.0455,-0.061023,-0.033907,0.092344,-0.062813,-0.036217,0.092344,-0.652422,-0.535077,0.582573,3.251886,0.084571,-9.521448
1790545522.0595,-0.057422,-0.021751,0.113188,-0.059040,-0.026091,0.113188,-0.926818,-0.576358,0.342173,3.788478,0.642271,-6.804665
1790545522.0733,-0.048711,-0.008777,0.120838,-0.051810,-0.013971,0.120838,-1.021521,-0.785191,0.214688,2.102047,0.493551,-8.357112
1790545522.0874,-0.038911,0.004322,0.128960,-0.042781,-0.001166,0.128960,-1.025164,-0.895677,0.112700,2.945262,0.419191,-8.784035
1790545522.1016,-0.025387,0.021060,0.141305,-0.030605,0.014392,0.141305,-1.076158,-1.149433,0.031353,2.906934,3.356411,-8.007811
1790545522.1160,-0.031108,0.027117,0.139549,-0.030957,0.023300,0.139549,-0.551648,0.240760,-0.270969,6.701404,-1.142369,-15.187882
1790545522.1302,-0.035944,0.024828,0.123768,-0.034448,0.024369,0.123768,0.103988,0.550366,-0.818547,-0.044320,0.493551,-16.934385
1790545522.1442,-0.032182,0.020606,0.095749,-0.032862,0.021735,0.095749,0.287324,0.160626,-1.122082,-2.535639,0.642271,-8.395923
1790545522.1583,-0.018443,0.019681,0.080313,-0.022769,0.020297,0.080313,0.248471,-0.637065,-0.774838,-1.654096,2.389731,-4.670049
1790545522.1721,-0.016732,0.010605,0.075731,-0.018543,0.013513,0.075731,0.612714,-0.129554,-0.512583,1.028863,0.456371,-5.174595
1790545522.1860,0.001270,0.003891,0.060267,-0.004674,0.006777,0.060267,0.589645,-0.968526,-0.961815,-2.918919,3.616671,-10.414105
1790545522.1996,0.009781,-0.002765,0.044406,0.005444,0.000098,0.044406,0.516797,-0.385738,-1.173076,-0.734224,2.426911,-11.966553
1790545522.2132,0.014307,-0.007235,0.031824,0.011648,-0.005035,0.031824,0.361386,-0.186618,-1.228927,0.913879,2.092291,-9.676693
1790545522.2271,0.022962,-0.008261,0.019910,0.019568,-0.007293,0.019910,0.127057,-0.433089,-0.999454,-0.427600,2.092291,-7.852567
1790545522.2410,0.027196,-0.013986,0.007736,0.024907,-0.011978,0.007736,0.430592,-0.123483,-0.801549,-1.002520,2.055111,-9.987182
1790545522.2549,0.017178,-0.013455,-0.004524,0.019497,-0.013012,-0.004524,0.021427,0.910966,-0.721415,-1.577440,3.951291,-14.256413
1790545522.2689,0.008479,0.001023,-0.025918,0.011784,-0.003188,-0.025918,-1.056732,0.937677,-0.584217,-4.758662,2.092291,-13.945924
1790545522.2829,0.005999,0.016070,-0.045872,0.007735,0.010293,-0.045872,-1.153863,0.465376,-0.450662,-3.148887,0.530731,-9.560259
1790545522.2969,0.007490,0.028160,-0.057694,0.007563,0.022800,-0.057694,-0.960814,0.419238,-0.348674,-3.915447,-0.175689,-3.544525
1790545522.3108,-0.000345,0.034728,-0.066249,0.002027,0.031150,-0.066249,-0.484871,0.732487,-0.213904,-1.002520,1.162791,-6.067252
1790545522.3247,0.020302,0.022686,-0.077437,0.014819,0.025225,-0.077437,0.769338,-1.313342,-0.319534,-2.803935,0.567911,-12.005364
1790545522.3387,0.008619,0.015990,-0.039951,0.010479,0.018760,-0.039951,0.592073,0.428952,0.865468,5.589893,4.434631,-11.888930
1790545522.3526,-0.003888,0.006373,-0.038144,0.000422,0.010089,-0.038144,0.582360,0.819905,1.081586,-2.267343,0.530731,-14.062357
1790545522.3669,-0.006474,-0.000657,-0.017154,-0.004405,0.002567,-0.017154,0.468231,-0.074917,1.462826,0.185647,2.278191,-12.432287
1790545522.3809,-0.004029,-0.006195,-0.009325,-0.004142,-0.003566,-0.009325,0.309178,-0.274037,1.042733,-0.887536,0.567911,-7.580888
1790545522.3948,-0.019121,-0.007254,0.015262,-0.014628,-0.006148,0.015262,0.089419,0.743414,1.147149,2.561982,1.832031,-8.163056
1790545522.4087,-0.030821,-0.016114,0.030200,-0.025963,-0.013124,0.030200,0.584789,0.625643,1.178717,0.913879,1.311511,-9.172147
1790545522.4223,-0.042607,-0.020476,0.055132,-0.037614,-0.018270,0.055132,0.396596,0.692420,1.126509,0.645583,3.430771,-9.482637
1790545522.4359,-0.048259,-0.022614,0.072036,-0.045065,-0.021311,0.072036,0.192621,0.351246,0.986883,-0.734224,3.021791,-9.987182
1790545522.4494,-0.047578,-0.025687,0.085080,-0.046824,-0.024374,0.085080,0.158625,-0.179334,1.045161,0.185647,1.869211,-12.393476
1790545522.4633,-0.043565,-0.024765,0.099134,-0.044543,-0.024648,0.099134,-0.125485,-0.444017,0.907963,0.990535,1.757671,-11.772497
1790545522.4772,-0.040253,-0.021644,0.113143,-0.041540,-0.022545,0.113143,-0.316105,-0.475584,0.819331,2.140375,0.753811,-9.133336
1790545522.4912,-0.038165,-0.017891,0.123980,-0.039178,-0.019287,0.123980,-0.347673,-0.354170,0.615355,1.718767,0.605091,-7.425644
1790545522.5052,-0.033204,-0.011965,0.133544,-0.034996,-0.014161,0.133544,-0.443590,-0.488940,0.395595,1.680439,1.757671,-10.569350
1790545522.5192,-0.028323,-0.006045,0.139439,-0.030325,-0.008480,0.139439,-0.499440,-0.538720,0.163694,3.826806,0.716631,-12.432287
1790545522.5331,-0.020588,0.006768,0.143970,-0.023509,0.002194,0.143970,-0.954744,-0.717199,-0.110702,4.325070,1.497411,-12.936833
1790545522.5471,-0.009278,0.023760,0.147549,-0.013548,0.017290,0.147549,-1.253423,-0.997665,-0.300108,3.750150,1.088431,-8.667602
1790545522.5610,-0.002721,0.035010,0.141729,-0.005969,0.029694,0.141729,-0.884323,-0.465871,-0.498013,1.527127,0.642271,-9.366203
1790545522.5760,-0.015048,0.029653,0.123994,-0.012325,0.029665,0.123994,0.310392,0.986243,-0.938747,1.527127,0.939711,-12.587532
1790545522.5909,0.001524,0.018647,0.095474,-0.002631,0.021952,0.095474,0.742627,-0.599427,-1.387979,-4.030431,1.237151,-8.395923
1790545522.6058,0.007693,0.020156,0.097404,0.004596,0.020695,0.097404,0.321320,-0.291035,-1.167005,0.760567,4.025651,-2.535434
1790545522.6201,0.014281,0.014825,0.094071,0.011376,0.016586,0.094071,0.338318,-0.504724,-0.654637,3.558510,1.608951,-12.432287
1790545522.6355,0.034577,0.005153,0.075098,0.027617,0.008583,0.075098,0.595716,-1.048659,-1.028593,-2.765607,1.906391,-13.907112
1790545522.6494,0.043203,-0.004242,0.060811,0.038527,-0.000394,0.060811,0.696490,-0.412449,-1.160935,-0.542584,2.389731,-9.793126
1790545522.6627,0.049932,-0.007570,0.051821,0.046510,-0.005417,0.051821,0.358958,-0.388166,-1.213143,0.683911,2.910251,-6.921098
1790545522.6764,0.052496,-0.008792,0.043615,0.050700,-0.007779,0.043615,0.178051,-0.104057,-1.054090,0.760567,2.649991,-6.804665
1790545522.6909,0.056763,-0.015752,0.030959,0.054944,-0.013360,0.030959,0.470659,-0.136839,-0.834331,-0.964192,2.278191,-11.423196
1790545522.7052,0.050514,-0.019909,0.016074,0.051843,-0.017944,0.016074,0.168338,0.566150,-0.664351,-0.810880,-0.026969,-13.402567
1790545522.7194,0.043551,-0.011583,0.002183,0.046038,-0.013492,0.002183,-0.619640,0.662067,-0.404524,-3.033903,2.017931,-15.226693
1790545522.7334,0.038363,0.003425,-0.024723,0.040666,-0.001650,-0.024723,-1.132008,0.722774,-0.284324,-3.877119,0.716631,-6.882287
1790545522.7475,0.034160,0.014375,-0.043983,0.036112,0.009568,-0.043983,-0.941388,0.533368,-0.138627,-3.033903,-0.659029,-8.318301
1790545522.7616,0.025202,0.024696,-0.053063,0.028475,0.020157,-0.053063,-0.804190,0.721560,-0.092490,-0.657568,0.530731,-6.300119
1790545522.7757,0.024377,0.030823,-0.058346,0.025606,0.027623,-0.058346,-0.465444,0.141200,-0.137413,-0.810880,1.385871,-8.473546
1790545522.7896,0.023154,0.029606,-0.057974,0.023890,0.029012,-0.057974,0.038425,0.034355,0.258397,-0.082648,2.055111,-16.507462
1790545522.8037,0.015198,0.027983,-0.050182,0.017806,0.028292,-0.050182,0.071206,0.392527,0.827830,0.377287,2.092291,-16.391028
1790545522.8180,0.010013,0.018339,-0.035038,0.012351,0.021325,-0.035038,0.586003,0.067137,1.382693,0.568927,0.642271,-12.432287
1790545522.8320,0.005911,0.005249,-0.022983,0.007843,0.010071,-0.022983,0.820332,0.025856,1.144721,0.760567,0.047391,-7.736133
1790545522.8459,-0.008096,0.001319,-0.005028,-0.003314,0.003944,-0.005028,0.292180,0.692420,0.939531,1.910407,1.385871,-6.494175
1790545522.8605,-0.025176,-0.006474,0.003980,-0.018618,-0.003348,0.003980,0.494942,1.000812,0.793834,1.143847,1.237151,-9.172147
1790545522.8747,-0.040799,-0.016334,0.018442,-0.034144,-0.012438,0.018442,0.678277,0.867257,0.944388,2.293686,2.017931,-10.491728
1790545522.8885,-0.054514,-0.023760,0.038311,-0.048403,-0.020364,0.038311,0.629712,0.789552,0.927390,1.680439,3.579491,-8.822846
1790545522.9023,-0.062629,-0.031627,0.052621,-0.058361,-0.028248,0.052621,0.601786,0.486016,0.898250,0.377287,2.984611,-9.948371
1790545522.9165,-0.061550,-0.038644,0.064636,-0.060594,-0.035525,0.064636,0.447590,-0.180548,0.808404,0.722239,1.980751,-11.966553
1790545522.9307,-0.055239,-0.041468,0.074855,-0.056845,-0.039685,0.074855,0.122200,-0.547219,0.697917,0.837223,1.125611,-11.384385
1790545522.9447,-0.051895,-0.041612,0.086084,-0.053380,-0.041034,0.086084,-0.074491,-0.397879,0.668777,1.833751,0.753811,-10.297672
1790545522.9587,-0.048087,-0.039644,0.095568,-0.049675,-0.040061,0.095568,-0.278467,-0.439160,0.570432,2.025391,-0.287229,-9.754315
1790545522.9730,-0.046741,-0.034465,0.104557,-0.047621,-0.036144,0.104557,-0.489727,-0.300748,0.362814,3.136902,-0.398769,-9.443825
1790545522.9870,-0.041377,-0.023665,0.111621,-0.043250,-0.027409,0.111621,-0.851542,-0.587285,0.152767,3.596838,0.270471,-9.754315
1790545523.0010,-0.029019,-0.006618,0.116183,-0.033288,-0.012855,0.116183,-1.297132,-1.060801,-0.074278,3.673494,0.382011,-10.414105
1790545523.0153,-0.010563,0.014426,0.119452,-0.017381,0.006241,0.119452,-1.549673,-1.442041,-0.209047,2.561982,0.530731,-8.279490
1790545523.0294,0.002972,0.036812,0.123309,-0.003133,0.027641,0.123309,-1.652875,-1.242922,-0.221189,3.443526,0.567911,-5.834385
1790545523.0434,-0.015710,0.042188,0.114586,-0.011937,0.037824,0.114586,-0.442376,1.391766,-0.525938,1.910407,1.014071,-11.035084
1790545523.0574,-0.011416,0.030121,0.103723,-0.011572,0.032432,0.103723,0.796049,0.125416,-1.107512,-5.563550,0.642271,-17.865854
1790545523.0717,0.008666,0.026446,0.089905,0.002595,0.028242,0.089905,0.453661,-0.998880,-0.834331,-4.950302,5.438491,-8.822846
1790545523.0858,-0.001530,0.027766,0.078817,-0.000293,0.027909,0.078817,-0.013784,0.601360,-0.610928,4.363398,2.947431,-8.395923
1790545523.0999,0.006424,0.027130,0.065880,0.004409,0.027364,0.065880,0.072421,-0.182976,-0.851329,-3.187215,1.980751,-8.434735
1790545523.1137,0.015713,0.023659,0.053247,0.012322,0.024771,0.053247,0.312821,-0.413663,-0.918106,-1.424128,3.021791,-9.948371
1790545523.1281,0.020164,0.020530,0.037606,0.017811,0.021802,0.037606,0.283681,-0.067633,-1.055304,-0.580912,2.649991,-8.201867
1790545523.1422,0.027754,0.024399,0.023871,0.024771,0.023620,0.023871,-0.080561,-0.301962,-0.947246,-0.734224,3.467951,-5.756762
1790545523.1563,0.030227,0.023471,0.010626,0.028591,0.023516,0.010626,0.124629,0.028285,-0.899894,-0.465928,2.538451,-7.736133
1790545523.1702,0.029737,0.020792,-0.004027,0.029393,0.021609,-0.004027,0.246043,0.295396,-0.828260,-1.692424,3.058971,-9.676693
1790545523.1846,0.035248,0.023485,-0.016247,0.033492,0.022922,-0.016247,-0.038066,-0.113770,-0.738413,-2.267343,4.397451,-8.395923
1790545523.1987,0.025434,0.024926,-0.021757,0.027851,0.024325,-0.021757,0.061493,0.811406,-0.456732,-0.389272,6.144910,-11.500819
1790545523.2127,0.019334,0.029060,-0.034692,0.021889,0.027639,-0.034692,-0.216545,0.671780,-0.438520,-3.302199,5.029511,-13.907112
1790545523.2266,0.025815,0.033782,-0.047826,0.024637,0.031939,-0.047826,-0.336745,-0.195117,-0.260041,-4.413711,2.464091,-11.073895
1790545523.2407,0.030886,0.031651,-0.047608,0.029011,0.031738,-0.047608,0.158625,-0.331101,0.265682,-1.500784,1.906391,-8.784035
1790545523.2547,0.030173,0.027693,-0.033470,0.029825,0.028906,-0.033470,0.264255,-0.178120,0.859398,0.568927,1.274331,-8.512357
1790545523.2686,0.017366,0.018178,-0.012380,0.021103,0.021397,-0.012380,0.629712,0.572220,1.016022,2.217030,0.716631,-8.512357
1790545523.2825,0.015883,0.009923,0.001713,0.017449,0.013365,0.001713,0.542294,-0.094344,1.166576,-0.350944,1.051251,-10.258860
1790545523.2966,0.007308,0.002953,0.013540,0.010350,0.006077,0.013540,0.447590,0.439879,1.052446,-0.120976,1.051251,-10.103616
1790545523.3105,-0.002613,0.001038,0.028054,0.001276,0.002550,0.028054,0.150126,0.515156,1.007523,0.645583,2.092291,-9.637881
1790545523.3244,-0.012130,-0.004270,0.046605,-0.008108,-0.002224,0.046605,0.368671,0.415596,1.094941,1.412143,1.608951,-8.512357
1790545523.3383,-0.023401,-0.009975,0.064202,-0.018813,-0.007650,0.064202,0.423308,0.572220,1.088871,1.335487,2.203831,-9.094525
1790545523.3519,-0.029479,-0.013883,0.078023,-0.026279,-0.012013,0.078023,0.324962,0.294182,1.041519,0.223975,2.649991,-8.978091
1790545523.3655,-0.031421,-0.016810,0.090102,-0.029879,-0.015371,0.090102,0.227831,0.021000,0.966242,-0.044320,2.575631,-10.103616
1790545523.3800,-0.034574,-0.018218,0.105864,-0.033166,-0.017364,0.105864,0.093061,0.033141,0.871539,1.373815,2.278191,-10.258860
1790545523.3941,-0.038498,-0.020965,0.118494,-0.036898,-0.019884,0.118494,0.195049,0.126630,0.736769,1.182175,2.203831,-10.025993
1790545523.4080,-0.035737,-0.021065,0.130348,-0.036085,-0.020711,0.130348,0.022641,-0.342029,0.543721,1.335487,2.166651,-9.249770
1790545523.4220,-0.027187,-0.015466,0.144232,-0.029856,-0.017039,0.144232,-0.381669,-0.788833,0.480585,2.255358,2.873071,-11.733686
1790545523.4358,-0.018831,-0.007475,0.159445,-0.022139,-0.010345,0.159445,-0.624497,-0.816758,0.262040,4.056774,1.497411,-13.441378
1790545523.4498,-0.010740,0.004394,0.172777,-0.014160,-0.000027,0.172777,-0.898893,-0.803403,0.055636,3.328542,0.976891,-8.939280
1790545523.4638,0.002065,0.018342,0.182965,-0.002802,0.012831,0.182965,-1.054303,-1.104510,-0.107059,2.140375,0.679451,-6.416553
1790545523.4776,0.012417,0.032384,0.189319,0.007851,0.026518,0.189319,-1.033663,-0.989166,-0.195692,2.178703,0.828171,-4.592427
1790545523.4917,0.008859,0.027905,0.188732,0.008557,0.027489,0.188732,0.151340,0.308751,-0.428807,1.028863,-1.179549,-15.459560
1790545523.5057,0.008284,0.021205,0.170772,0.008366,0.023090,0.170772,0.487657,0.309966,-0.930248,-1.692424,2.761531,-13.790679
1790545523.5197,0.021973,0.016615,0.145776,0.017891,0.018558,0.145776,0.354102,-0.612782,-1.457185,-2.305671,3.170511,-13.557812
1790545523.5337,0.014912,0.013186,0.130884,0.015805,0.014798,0.130884,0.192621,0.488445,-1.294490,3.405198,0.753811,-6.843476
1790545523.5476,0.027198,0.009377,0.097757,0.023780,0.011004,0.097757,0.286110,-0.452516,-0.884110,-3.187215,1.274331,-6.261308
1790545523.5615,0.040706,0.000578,0.079387,0.035628,0.003706,0.079387,0.575075,-0.662562,-1.129367,-2.075704,1.051251,-9.560259
1790545523.5752,0.054094,-0.012980,0.061741,0.048554,-0.007974,0.061741,0.972100,-0.731768,-1.247139,-1.040848,1.608951,-8.628791
1790545523.5888,0.063670,-0.018413,0.042928,0.059135,-0.015281,0.042928,0.475516,-0.555718,-1.411048,0.530599,3.096151,-7.891378
1790545523.6027,0.064334,-0.020402,0.028421,0.062774,-0.018866,0.028421,0.204762,0.010073,-1.220428,1.488799,3.133331,-8.318301
1790545523.6167,0.067865,-0.023773,0.011583,0.066338,-0.022301,0.011583,0.204762,-0.059134,-1.034664,-1.040848,1.683311,-9.366203
1790545523.6314,0.052669,-0.027006,0.001290,0.056769,-0.025594,0.001290,0.102774,1.125869,-0.920535,0.837223,0.419191,-12.898021
1790545523.6458,0.047305,-0.017038,-0.015166,0.050144,-0.019605,-0.015166,-0.778693,0.602574,-0.683777,-3.493839,0.790991,-14.955014
1790545523.6598,0.041087,-0.003197,-0.029150,0.043804,-0.008120,-0.029150,-1.133223,0.682707,-0.500441,-2.688951,-0.547489,-9.715504
1790545523.6740,0.041238,0.009969,-0.050352,0.042008,0.004542,-0.050352,-1.068873,0.409525,-0.353530,-4.337055,-0.547489,-5.756762
1790545523.6882,0.027389,0.024253,-0.055099,0.031774,0.018340,-0.055099,-0.941388,1.019025,-0.260041,0.223975,2.203831,-6.494175
1790545523.7022,0.024325,0.029201,-0.064578,0.026560,0.025943,-0.064578,-0.335531,0.460519,-0.120415,-3.417183,2.203831,-8.939280
1790545523.7162,0.027273,0.022880,-0.055338,0.027059,0.023799,-0.055338,0.441520,-0.342029,0.603214,-0.082648,3.170511,-18.176343
1790545523.7305,0.015730,0.018671,-0.041887,0.019129,0.020210,-0.041887,0.290966,0.613501,1.126509,-0.235960,2.055111,-11.539630
1790545523.7445,0.022138,0.014604,-0.028710,0.021235,0.016286,-0.028710,0.318891,-0.487726,1.229711,-2.497311,1.534591,-6.377742
1790545523.7584,0.032655,0.006638,-0.022774,0.029229,0.009533,-0.022774,0.382027,-0.609140,0.774408,-4.222071,-1.439808,-7.037532
1790545523.7724,0.015553,0.004663,0.000803,0.019656,0.006124,0.000803,0.162267,0.825976,0.864254,3.060246,1.348691,-6.688231
1790545523.7867,0.001140,-0.004241,0.012418,0.006695,-0.001132,0.012418,0.594502,0.822334,0.938317,0.722239,1.348691,-10.142427
1790545523.8007,-0.012316,-0.013426,0.026197,-0.006613,-0.009738,0.026197,0.663708,0.771340,1.011165,0.760567,1.869211,-9.094525
1790545523.8144,-0.019899,-0.016452,0.038631,-0.015913,-0.014438,0.038631,0.295823,0.470232,0.917677,-0.619240,3.505131,-10.530539
1790545523.8281,-0.022862,-0.018823,0.053171,-0.020777,-0.017507,0.053171,0.222974,0.073208,0.924961,0.377287,3.133331,-10.491728
1790545523.8421,-0.020381,-0.018067,0.067480,-0.020500,-0.017899,0.067480,-0.002856,-0.332316,0.725842,1.220503,3.616671,-12.238231
1790545523.8561,-0.017409,-0.017935,0.082846,-0.018337,-0.017924,0.082846,-0.036852,-0.441588,0.635996,3.021918,1.869211,-12.471098
1790545523.8704,-0.012965,-0.015446,0.095494,-0.014576,-0.016189,0.095494,-0.235972,-0.524150,0.422307,3.251886,0.939711,-12.121798
1790545523.8849,-0.008890,-0.008973,0.106019,-0.010596,-0.011138,0.106019,-0.538293,-0.513223,0.179478,3.443526,0.121751,-9.172147
1790545523.8992,-0.002300,0.000725,0.112772,-0.004789,-0.002834,0.112772,-0.758053,-0.677132,-0.057280,3.290214,0.196111,-7.891378
1790545523.9133,0.006518,0.011234,0.117141,0.003126,0.007014,0.117141,-0.845471,-0.803403,-0.166552,2.446998,0.121751,-7.115154
1790545523.9273,0.017106,0.022689,0.119710,0.012912,0.017987,0.119710,-0.890394,-0.929673,-0.228474,2.945262,0.679451,-8.628791
1790545523.9413,0.027447,0.037897,0.116710,0.023086,0.031924,0.116710,-1.061588,-0.956385,-0.256399,3.788478,2.166651,-8.318301
1790545523.9552,0.015355,0.040189,0.109103,0.017674,0.037710,0.109103,-0.231115,0.858758,-0.669207,3.865134,1.534591,-13.014455
1790545523.9691,0.002318,0.033128,0.091737,0.006925,0.034502,0.091737,0.486443,1.190219,-1.165791,0.722239,2.873071,-17.438931
1790545523.9832,0.013636,0.028017,0.064447,0.011623,0.029963,0.064447,0.465803,-0.447659,-1.469327,-0.849208,2.835891,-7.697322
1790545523.9972,0.017773,0.025210,0.024889,0.015928,0.026636,0.024889,0.494942,0.013715,-0.856185,-0.849208,2.464091,-2.962357
1790545524.0111,0.019843,0.017942,0.010434,0.018669,0.020550,0.010434,0.525296,0.102347,-0.709274,-1.999048,2.129471,-10.530539
1790545524.0250,0.033965,0.013000,-0.008379,0.029376,0.015265,-0.008379,0.409952,-0.724483,-1.029807,-2.420655,3.542311,-11.772497
1790545524.0386,0.041790,0.005396,-0.027617,0.038066,0.008357,-0.027617,0.562934,-0.280107,-1.173076,-1.692424,2.278191,-10.064805
1790545524.0522,0.048786,0.003145,-0.043275,0.045570,0.004709,-0.043275,0.320106,-0.348099,-1.109941,0.070663,3.207691,-6.144874
1790545524.0661,0.050977,0.004292,-0.055837,0.049355,0.004417,-0.055837,0.048138,-0.038493,-0.918106,0.300631,3.616671,-7.503266
1790545524.0800,0.053037,-0.001582,-0.069391,0.051932,0.000218,-0.069391,0.416023,0.024642,-0.782122,-0.925864,2.055111,-9.715504
1790545524.0940,0.043916,-0.008723,-0.079978,0.046321,-0.006041,-0.079978,0.502227,0.772554,-0.440948,-1.347472,2.835891,-15.071448
1790545524.1080,0.028268,-0.000207,-0.091611,0.033684,-0.001957,-0.091611,-0.551648,1.253354,-0.182336,-2.382327,4.508991,-15.498371
1790545524.1221,0.025168,0.013631,-0.105686,0.027722,0.008954,-0.105686,-0.953530,0.577077,-0.164124,-5.218598,2.129471,-8.201867
1790545524.1365,0.023995,0.023489,-0.112975,0.025113,0.019129,-0.112975,-0.767766,0.394956,-0.058494,-2.688951,0.158931,-4.592427
1790545524.1506,0.011308,0.036313,-0.092414,0.015449,0.031158,-0.092414,-0.612356,0.874542,-0.046352,0.300631,3.282051,-3.699769
1790545524.1645,0.015763,0.034412,-0.102104,0.015669,0.033436,-0.102104,0.033568,-0.176905,-0.064564,-2.727279,0.493551,-12.703965
1790545524.1785,0.014998,0.027996,-0.079149,0.015199,0.029628,-0.079149,0.537437,-0.209687,0.580145,3.750150,5.550031,-16.002917
1790545524.1925,0.005500,0.026384,-0.058875,0.008410,0.027357,-0.058875,0.157410,0.394956,1.091299,1.948735,4.360271,-15.265504
1790545524.2064,-0.002244,0.020794,-0.041887,0.000952,0.022763,-0.041887,0.334675,0.301467,1.432473,-0.159304,1.125611,-9.754315
1790545524.2204,-0.006708,0.010045,-0.031628,-0.004410,0.013861,-0.031628,0.575075,0.189766,1.149578,-1.002520,-0.882109,-8.512357
1790545524.2345,-0.024959,-0.002543,-0.009978,-0.018794,0.002378,-0.009978,0.707417,1.004455,1.224854,1.143847,-0.584669,-6.222497
1790545524.2483,-0.041059,-0.015214,-0.001338,-0.034379,-0.009936,-0.001338,0.881039,1.078518,1.193287,-0.925864,1.646131,-8.706413
1790545524.2619,-0.051722,-0.023697,0.010027,-0.046519,-0.019569,0.010027,0.629712,0.676637,1.126509,-0.235960,2.910251,-11.073895
1790545524.2755,-0.058251,-0.028549,0.020075,-0.054732,-0.025855,0.020075,0.328605,0.394956,1.033020,-0.312616,2.538451,-11.888930
1790545524.2893,-0.057814,-0.034151,0.030974,-0.056889,-0.031662,0.030974,0.303108,-0.130768,0.962600,0.108991,1.125611,-12.160609
1790545524.3034,-0.053417,-0.036174,0.044239,-0.054458,-0.034820,0.044239,0.057851,-0.457372,0.747697,1.527127,1.088431,-12.160609
1790545524.3174,-0.055436,-0.037892,0.064276,-0.055143,-0.036970,0.064276,-0.004070,-0.100414,0.669992,3.711822,-0.026969,-11.462007
1790545524.3313,-0.051603,-0.037088,0.087413,-0.052665,-0.037053,0.087413,-0.216545,-0.567859,0.595929,3.865134,-0.584669,-9.133336
1790545524.3452,-0.044653,-0.034192,0.103577,-0.047057,-0.035050,0.103577,-0.404737,-0.703843,0.479371,2.370342,-1.142369,-8.667602
1790545524.3592,-0.035776,-0.025283,0.113730,-0.039160,-0.028213,0.113730,-0.785978,-0.765764,0.230472,1.680439,-0.584669,-8.512357
1790545524.3723,-0.033907,-0.012440,0.123338,-0.035483,-0.017172,0.123338,-1.091942,-0.427019,0.132127,4.823333,-0.138509,-9.754315
1790545524.3860,-0.020077,0.005950,0.129362,-0.024699,-0.000987,0.129362,-1.422188,-1.116651,-0.063350,2.178703,0.642271,-10.763406
1790545524.3996,-0.006032,0.024561,0.134684,-0.011632,0.016896,0.134684,-1.491394,-1.217425,-0.196906,3.443526,0.010211,-9.676693
1790545524.4136,-0.004581,0.035752,0.138647,-0.006697,0.030095,0.138647,-1.004523,-0.176905,-0.263684,3.635166,-2.332128,-15.692427
1790545524.4276,-0.010949,0.033233,0.126110,-0.009673,0.032292,0.126110,0.107631,0.804121,-0.807619,-3.762135,0.679451,-14.605714
1790545524.4418,-0.000222,0.023083,0.111676,-0.003058,0.025846,0.111676,0.752340,-0.476798,-1.037092,-1.539112,2.798711,-12.277042
1790545524.4558,-0.003254,0.021004,0.101547,-0.003195,0.022457,0.101547,0.117344,0.146056,-0.538080,2.485326,0.939711,-7.464455
1790545524.4698,0.006648,0.012567,0.096737,0.003695,0.015534,0.096737,0.537437,-0.481655,-0.601215,-1.807408,0.605091,-9.249770
1790545524.4839,0.022428,0.001717,0.083851,0.016808,0.005862,0.083851,0.772981,-0.794904,-0.893823,-2.727279,1.534591,-8.512357
1790545524.4976,0.033519,-0.008272,0.069425,0.028506,-0.004032,0.069425,0.772981,-0.588500,-0.992169,-0.964192,2.203831,-8.279490
1790545524.5115,0.041337,-0.010832,0.048867,0.037488,-0.008792,0.048867,0.352887,-0.479227,-0.875611,0.492271,3.467951,-6.804665
1790545524.5257,0.045625,-0.014534,0.033696,0.043184,-0.012811,0.033696,0.362600,-0.220614,-0.766339,0.300631,3.096151,-8.163056
1790545524.5396,0.055265,-0.017529,0.015622,0.051640,-0.016113,0.015622,0.388097,-0.492582,-0.598787,-2.114032,4.471811,-8.551168
1790545524.5537,0.046897,-0.013738,0.013229,0.048320,-0.014451,0.013229,-0.354957,0.550366,-0.447019,2.102047,0.642271,-12.044175
1790545524.5680,0.047468,0.003885,0.004334,0.047723,-0.001616,0.004334,-1.219427,0.171553,-0.206619,-5.141942,3.133331,-14.722147
1790545524.5820,0.043885,0.019417,-0.001377,0.045036,0.013107,-0.001377,-1.248566,0.544295,-0.045138,-4.413711,-0.473129,-8.279490
1790545524.5959,0.043034,0.032037,-0.005923,0.043634,0.026358,-0.005923,-1.113796,0.376743,-0.122843,-3.302199,-1.068009,-5.795574
