t,imu_roll,imu_pitch,imu_yaw,lpf_roll,lpf_pitch,lpf_yaw,gyro_x,gyro_y,gyro_z,acc_x,acc_y,acc_z
1790539094.8936,-0.032761,-0.044860,0.013505,-0.022933,-0.031402,0.013505,-0.007100,0.004415,0.005920,0.262303,1.311511,-10.297672
1790539094.9092,-0.035503,-0.042598,0.011417,-0.031732,-0.039239,0.011417,0.000185,-0.008940,-0.002579,0.300631,1.348691,-9.948371
1790539094.9229,-0.033796,-0.039393,0.011417,-0.033177,-0.039347,0.011417,0.009898,-0.000441,-0.003794,0.223975,1.460231,-10.181238
1790539094.9366,-0.029295,-0.038199,0.013041,-0.030460,-0.038544,0.013041,0.013541,0.001987,-0.003794,0.070663,1.423051,-10.025993
1790539094.9507,-0.028224,-0.038180,0.013357,-0.028895,-0.038289,0.013357,-0.019241,-0.050221,0.004705,0.185647,1.385871,-10.142427
1790539094.9645,-0.022331,-0.038429,0.015026,-0.024300,-0.038387,0.015026,-0.123657,-0.222629,0.007134,-0.005993,1.311511,-10.297672
1790539094.9790,-0.027473,-0.036624,0.011486,-0.026521,-0.037153,0.011486,-0.181936,-0.180134,0.005920,0.683911,1.385871,-10.336483
1790539094.9936,-0.035502,-0.034201,0.006919,-0.032807,-0.035086,0.006919,-0.154011,-0.083003,0.021703,0.875551,1.348691,-9.443825
1790539095.0076,-0.041338,-0.030102,0.002998,-0.038779,-0.031598,0.002998,-0.140655,0.006844,0.081196,0.722239,1.497411,-9.172147
1790539095.0217,-0.046635,-0.031603,0.009840,-0.044278,-0.031601,0.009840,-0.172223,0.114902,0.183184,0.683911,1.088431,-9.948371
1790539095.0377,-0.039216,-0.033608,0.028968,-0.040734,-0.033006,0.028968,-0.230502,-0.115785,0.299742,-0.312616,0.865351,-9.909560
1790539095.0524,-0.034176,-0.036998,0.044306,-0.036144,-0.035800,0.044306,-0.103017,-0.188633,0.411443,-0.082648,0.865351,-9.987182
1790539095.0670,-0.028247,-0.038798,0.060165,-0.030616,-0.037899,0.060165,0.003828,-0.197132,0.509789,-0.274288,1.125611,-9.521448
1790539095.0819,-0.022140,-0.027679,0.067848,-0.024683,-0.030745,0.067848,-0.143084,-0.283336,0.392017,-0.235960,2.835891,-10.414105
1790539095.0962,-0.018672,-0.034820,0.071025,-0.020476,-0.033598,0.071025,-0.104231,-0.288193,0.341023,0.108991,0.270471,-13.402567
1790539095.1100,-0.020004,-0.035947,0.072792,-0.020145,-0.035243,0.072792,-0.194078,-0.015011,0.310669,0.262303,0.865351,-10.452916
1790539095.1239,-0.018366,-0.034091,0.081782,-0.018900,-0.034437,0.081782,-0.112730,-0.039294,0.343451,-0.159304,1.311511,-8.900469
1790539095.1377,-0.016147,-0.029674,0.088999,-0.016973,-0.031103,0.088999,-0.247500,-0.112142,0.282744,-0.120976,1.497411,-9.094525
1790539095.1514,-0.015052,-0.021697,0.092709,-0.015628,-0.024519,0.092709,-0.384698,-0.159494,0.258461,0.147319,1.794851,-8.784035
1790539095.1651,-0.013956,-0.015160,0.093139,-0.014458,-0.017968,0.093139,-0.332490,-0.276052,0.226893,0.415615,1.794851,-8.939280
1790539095.1790,-0.011848,-0.009910,0.092586,-0.012631,-0.012328,0.092586,-0.320348,-0.371969,0.177114,0.568927,1.869211,-10.220049
1790539095.1930,-0.011142,-0.002955,0.089494,-0.011588,-0.005767,0.089494,-0.388340,-0.322189,0.109122,0.760567,2.055111,-9.948371
1790539095.2068,-0.008401,0.004418,0.087119,-0.009357,0.001362,0.087119,-0.430835,-0.395038,0.053271,0.568927,2.166651,-10.181238
1790539095.2208,-0.009369,0.002180,0.089828,-0.009365,0.001935,0.089828,-0.039882,0.288524,-0.196842,-0.849208,1.720491,-15.071448
1790539095.2352,-0.021436,-0.001469,0.075711,-0.017815,-0.000448,0.075711,0.621826,1.038864,-0.497949,-0.274288,3.914111,-12.781588
1790539095.2495,-0.010515,0.006759,0.049109,-0.012705,0.004597,0.049109,0.551406,0.363801,-0.805127,-3.187215,5.029511,-7.076343
1790539095.2634,0.000811,0.007035,0.025992,-0.003244,0.006304,0.025992,0.833087,0.473074,-0.978750,-2.420655,2.761531,-4.786483
1790539095.2773,-0.013068,0.017470,0.170846,-0.010121,0.014120,0.170846,0.856155,0.847030,-0.813626,0.070663,3.393591,-3.466902
1790539095.2912,-0.005298,0.014019,0.144571,-0.006745,0.014049,0.144571,0.354715,-0.228700,-1.075881,-0.849208,4.285911,-18.137532
1790539095.3050,-0.004385,0.013881,0.144471,-0.005093,0.013931,0.144471,-0.154011,-0.081789,-1.562752,1.910407,2.241011,-18.176343
1790539095.3189,-0.016836,0.015896,0.154666,-0.013313,0.015306,0.154666,-0.291209,0.565349,-1.676881,2.983590,1.423051,-11.190329
1790539095.3328,-0.004012,0.011813,-0.025645,-0.006802,0.012861,-0.025645,-0.320348,0.248458,-1.489904,-2.267343,-0.287229,-7.231588
1790539095.3467,-0.011330,0.004511,-0.066257,-0.009972,0.007016,-0.066257,0.200519,0.815462,-1.415841,0.032335,0.456371,-9.987182
1790539095.3608,-0.007641,0.006257,-0.104485,-0.008340,0.006485,-0.104485,-0.093304,0.345589,-1.510544,-1.347472,1.832031,-9.016902
1790539095.3743,-0.012740,0.009973,-0.123657,-0.011420,0.008927,-0.123657,-0.326419,0.559278,-1.397629,0.492271,1.943571,-12.005364
1790539095.3879,-0.019533,0.015392,-0.143712,-0.017099,0.013453,-0.143712,-0.453904,0.698905,-1.248289,0.377287,1.794851,-10.996273
1790539095.4020,-0.022701,0.021039,-0.161553,-0.021020,0.018763,-0.161553,-0.453904,0.403868,-0.924113,0.185647,1.646131,-9.831937
1790539095.4158,-0.022578,0.025090,-0.184226,-0.022111,0.023192,-0.184226,-0.349488,0.350446,-0.591438,-0.849208,1.460231,-8.357112
1790539095.4298,-0.030289,0.033090,-0.178032,-0.027836,0.030120,-0.178032,-0.418694,0.602987,-0.377749,0.338959,2.501271,-8.822846
1790539095.4437,-0.034798,0.044445,-0.169465,-0.032710,0.040147,-0.169465,-0.561963,0.488858,-0.502806,-0.044320,3.319231,-9.443825
1790539095.4575,-0.020737,0.031824,-0.186714,-0.024329,0.034321,-0.186714,0.739598,-0.908620,-0.241765,-0.389272,1.980751,-16.080539
1790539095.4713,-0.031239,0.030613,-0.056707,-0.029166,0.031726,-0.056707,0.752953,-0.239627,0.366520,4.631693,4.992331,-7.464455
1790539095.4855,-0.029337,0.019127,-0.024893,-0.029285,0.022906,-0.024893,1.148764,-0.699787,0.685839,1.833751,2.835891,-6.610609
1790539095.5001,-0.026621,-0.000947,0.002270,-0.027420,0.006209,0.002270,1.496008,-1.009393,0.744118,2.600310,1.497411,-5.601518
1790539095.5146,-0.036588,-0.010001,-0.018815,-0.033838,-0.005138,-0.018815,0.989711,-0.218987,0.850962,4.171758,2.873071,-6.338930
1790539095.5293,-0.044489,-0.002887,0.006351,-0.041294,-0.003562,0.006351,-0.506112,0.242387,1.016086,2.025391,3.356411,-18.215154
1790539095.5435,-0.023378,-0.003286,-0.070048,-0.028753,-0.003369,-0.070048,-0.168581,-0.963256,0.979662,-5.180270,0.567911,-13.402567
1790539095.5576,-0.021696,-0.002535,-0.047574,-0.023813,-0.002785,-0.047574,-0.209861,-0.344044,0.881316,0.530599,0.902531,-10.724595
1790539095.5717,-0.024678,-0.007463,-0.044681,-0.024419,-0.006059,-0.044681,-0.031383,0.267884,0.721049,-0.887536,-0.696209,-9.366203
1790539095.5858,-0.024208,-0.009509,-0.030345,-0.024271,-0.008474,-0.030345,-0.015599,-0.166779,0.738047,0.147319,0.530731,-7.697322
1790539095.5995,-0.028010,-0.010705,-0.015571,-0.026888,-0.010036,-0.015571,-0.008314,0.102761,0.700409,0.568927,1.125611,-10.103616
1790539095.6132,-0.028347,-0.013677,-0.013695,-0.027909,-0.012585,-0.013695,0.012327,0.095476,0.529215,-0.772552,0.307651,-9.560259
1790539095.6267,-0.024197,-0.014971,-0.022334,-0.025311,-0.014255,-0.022334,-0.004671,-0.074504,0.345879,-1.615768,0.902531,-9.288581
1790539095.6407,-0.019689,-0.014759,-0.029519,-0.021375,-0.014608,-0.029519,-0.126086,-0.118213,0.205039,-1.424128,0.790991,-9.249770
1790539095.6545,-0.017365,-0.012420,-0.031492,-0.018568,-0.013076,-0.031492,-0.225645,-0.102429,0.104265,-0.427600,1.088431,-8.706413
1790539095.6684,-0.012631,-0.007108,-0.034594,-0.014412,-0.008899,-0.034594,-0.340989,-0.227486,0.015633,-0.772552,1.906391,-9.482637
1790539095.6823,-0.006800,0.001816,-0.029317,-0.009083,-0.001399,-0.029317,-0.401696,-0.407179,-0.059644,-0.082648,2.947431,-8.046623
1790539095.6960,0.000277,0.007536,-0.024416,-0.002531,0.004855,-0.024416,-0.357987,-0.580801,-0.134921,0.568927,2.612811,-11.462007
1790539095.7100,-0.009756,0.000051,-0.025549,-0.007588,0.001492,-0.025549,0.423921,0.673408,-0.429957,1.642111,1.497411,-16.352217
1790539095.7239,-0.011875,-0.009720,-0.050847,-0.010589,-0.006356,-0.050847,0.722600,0.584775,-0.717709,-2.880591,2.278191,-12.548721
1790539095.7377,-0.010127,-0.011001,-0.063796,-0.010266,-0.009608,-0.063796,0.546549,0.450005,-0.863406,-1.654096,2.426911,-4.087881
1790539095.7522,0.001864,-0.016697,-0.096655,-0.001775,-0.014570,-0.096655,0.406923,-0.345258,-0.999390,-2.152360,1.423051,-7.736133
1790539095.7664,0.000586,-0.018280,-0.127173,-0.000122,-0.017167,-0.127173,0.034181,0.431793,-1.205794,-1.500784,1.348691,-12.238231
1790539095.7803,-0.000701,-0.018067,-0.127265,-0.000527,-0.017797,-0.127265,-0.082377,0.018985,-0.856121,1.910407,1.274331,-12.238231
1790539095.7944,0.005790,-0.017359,-0.149345,0.003895,-0.017491,-0.149345,-0.166152,-0.255411,-1.015174,-0.619240,0.902531,-12.005364
1790539095.8084,0.004643,-0.013746,-0.135003,0.004418,-0.014869,-0.135003,0.092460,0.276383,-1.219150,-0.235960,3.393591,-6.959909
1790539095.8223,0.004254,-0.013291,-0.149602,0.004304,-0.013764,-0.149602,-0.021669,0.209605,-1.307782,0.108991,1.832031,-9.870749
1790539095.8359,0.002038,-0.013719,-0.173748,0.002718,-0.013733,-0.173748,-0.156439,0.322520,-1.197295,0.223975,0.196111,-8.939280
1790539095.8494,-0.002595,-0.016279,-0.184986,-0.001001,-0.015515,-0.184986,0.054822,0.345589,-0.995748,1.450471,0.605091,-11.384385
1790539095.8634,-0.000662,-0.021351,-0.193078,-0.000764,-0.019600,-0.193078,0.263654,-0.143710,-0.710424,0.875551,0.679451,-9.637881
1790539095.8773,0.001375,-0.025532,-0.196475,0.000733,-0.023753,-0.196475,0.290365,-0.158280,-0.630291,0.798895,1.423051,-9.793126
1790539095.8912,-0.004726,-0.023253,-0.195392,-0.003088,-0.023403,-0.195392,-0.134585,0.378371,-0.383820,1.258831,2.203831,-12.199420
1790539095.9051,-0.010604,-0.016404,-0.211228,-0.008349,-0.018504,-0.211228,-0.587460,0.613915,-0.375321,-1.539112,1.088431,-14.256413
1790539095.9189,-0.018194,-0.010117,-0.226698,-0.015240,-0.012633,-0.226698,-0.679734,0.644268,-0.255121,-0.312616,-0.398769,-10.918651
1790539095.9329,-0.015950,-0.007191,-0.240575,-0.015737,-0.008824,-0.240575,-0.466045,-0.029581,-0.161632,-0.772552,-0.584669,-8.784035
1790539095.9468,-0.010898,-0.015225,-0.233738,-0.012350,-0.013305,-0.233738,0.440919,-0.658506,0.371376,1.565455,0.233291,-7.270399
1790539095.9607,-0.022226,-0.023890,-0.214927,-0.019263,-0.020714,-0.214927,0.650965,0.395369,0.848534,2.753622,1.646131,-9.055714
1790539095.9744,-0.032460,-0.036071,-0.198603,-0.028501,-0.031464,-0.198603,0.723814,0.365015,1.091363,2.255358,0.010211,-9.482637
1790539095.9887,-0.028739,-0.040894,-0.178143,-0.028668,-0.038065,-0.178143,0.278224,-0.204417,1.249201,-2.267343,1.125611,-10.879840
1790539096.0031,-0.024730,-0.045986,-0.161179,-0.025911,-0.043610,-0.161179,0.162880,0.003201,0.831536,-4.222071,-0.621849,-10.452916
1790539096.0171,-0.030363,-0.050481,-0.151996,-0.029027,-0.048420,-0.151996,0.207803,0.349232,0.925025,-0.427600,0.344831,-10.685784
1790539096.0311,-0.035661,-0.060165,-0.141261,-0.033671,-0.056642,-0.141261,0.586616,0.269098,1.061009,0.108991,0.307651,-8.822846
1790539096.0450,-0.050364,-0.066758,-0.126269,-0.045356,-0.063723,-0.126269,0.512553,0.796036,1.080435,1.642111,1.608951,-8.745224
1790539096.0586,-0.055437,-0.069094,-0.104356,-0.052412,-0.067483,-0.104356,0.273367,0.491286,0.852177,-1.500784,2.278191,-9.443825
1790539096.0741,-0.059176,-0.070553,-0.091218,-0.057147,-0.069632,-0.091218,0.098531,0.260599,0.680983,-0.427600,1.274331,-8.822846
1790539096.0881,-0.058505,-0.071885,-0.082152,-0.058098,-0.071209,-0.082152,0.092460,0.032340,0.496433,-0.964192,1.423051,-11.267951
1790539096.1022,-0.050541,-0.075088,-0.082273,-0.052808,-0.073924,-0.082273,0.115529,-0.509167,0.360449,-0.695896,0.084571,-11.888930
1790539096.1162,-0.042424,-0.073968,-0.081033,-0.045539,-0.073955,-0.081033,-0.117587,-0.756852,0.232964,2.370342,0.939711,-12.471098
1790539096.1303,-0.033512,-0.068578,-0.086847,-0.037120,-0.070191,-0.086847,-0.513397,-0.890407,0.149188,2.676966,-0.250049,-9.443825
1790539096.1443,-0.025328,-0.059507,-0.090467,-0.028866,-0.062712,-0.090467,-0.814504,-0.946258,0.211110,4.056774,-0.696209,-10.336483
1790539096.1583,-0.022075,-0.046291,-0.090319,-0.024112,-0.051217,-0.090319,-1.147179,-0.662149,0.130976,3.558510,-0.807749,-7.115154
1790539096.1722,-0.014613,-0.033462,-0.092349,-0.017463,-0.038789,-0.092349,-1.081615,-0.693716,-0.063287,1.603783,-0.287229,-9.055714
1790539096.1862,-0.008806,-0.019337,-0.099700,-0.011403,-0.025173,-0.099700,-1.118040,-0.652436,-0.196842,2.523654,0.307651,-8.822846
1790539096.2000,-0.004607,-0.006125,-0.109937,-0.006646,-0.011840,-0.109937,-1.018480,-0.436318,-0.416602,1.910407,0.902531,-9.210958
1790539096.2139,-0.012971,-0.009202,-0.112454,-0.011074,-0.009993,-0.112454,0.125242,0.833674,-0.836695,-1.079176,0.939711,-14.838581
1790539096.2277,-0.009744,-0.020511,-0.108264,-0.010143,-0.017356,-0.108264,0.825802,0.284882,-1.455908,-4.682006,2.464091,-15.110259
1790539096.2415,-0.002819,-0.023645,-0.113419,-0.005016,-0.021758,-0.113419,0.363214,-0.056292,-1.374560,-3.187215,3.616671,-11.345574
1790539096.2558,-0.007240,-0.029044,-0.121797,-0.006573,-0.026858,-0.121797,0.445775,0.451220,-0.646075,-0.389272,1.869211,-8.201867
1790539096.2699,0.000948,-0.041804,-0.122607,-0.001308,-0.037320,-0.122607,0.852513,-0.271195,-0.795414,-2.918919,0.902531,-12.160609
1790539096.2838,0.022990,-0.055186,-0.120657,0.015701,-0.049826,-0.120657,1.043133,-1.074957,-0.922899,-3.723807,1.683311,-6.804665
1790539096.2974,0.026824,-0.060006,-0.145060,0.023487,-0.056952,-0.145060,0.625468,-0.381682,-0.949610,1.412143,3.207691,-6.377742
1790539096.3110,0.027294,-0.064473,-0.158997,0.026152,-0.062217,-0.158997,0.436062,-0.056292,-0.869477,0.837223,2.278191,-8.395923
1790539096.3249,0.035441,-0.072988,-0.172216,0.032654,-0.069756,-0.172216,0.511339,-0.452102,-0.966608,-0.695896,0.233291,-8.434735
1790539096.3390,0.027095,-0.082638,-0.193050,0.028763,-0.078774,-0.193050,0.482200,0.541066,-0.837909,1.910407,-1.625708,-15.265504
1790539096.3529,0.009316,-0.069072,-0.200105,0.015150,-0.071982,-0.200105,-0.927419,1.491739,-0.689784,-2.573967,2.649991,-14.023546
1790539096.3668,0.011637,-0.055910,-0.209379,0.012691,-0.060732,-0.209379,-1.115611,0.357731,-0.697069,-5.985158,-0.993649,-9.405014
1790539096.3808,0.004220,-0.044181,-0.229585,0.006762,-0.049146,-0.229585,-1.152036,0.881026,-0.607222,-1.730752,-1.216729,-4.825294
1790539096.3949,-0.010628,-0.028458,-0.246654,-0.005411,-0.034664,-0.246654,-1.120468,1.042507,-0.593867,0.530599,0.642271,-4.359560
1790539096.4088,-0.022326,-0.013517,-0.238770,-0.017251,-0.019861,-0.238770,-0.967486,1.075289,-0.410531,-1.654096,2.575631,-9.210958
1790539096.4228,-0.005603,-0.017977,-0.246124,-0.009097,-0.018543,-0.246124,0.141026,-1.039747,-0.230838,-3.532167,-1.216729,-21.281238
1790539096.4369,-0.004509,-0.020122,-0.250898,-0.005886,-0.019648,-0.250898,0.156809,-0.365898,0.581423,3.673494,2.612811,-15.886483
1790539096.4507,-0.006956,-0.021848,-0.244815,-0.006635,-0.021188,-0.244815,0.056036,-0.049007,1.046439,0.607255,0.605091,-8.589979
1790539096.4645,0.010921,-0.035644,-0.212446,0.005654,-0.031307,-0.212446,0.703173,-1.037319,0.684625,-2.880591,-1.700068,-5.523895
1790539096.4784,-0.000593,-0.045126,-0.247545,0.001281,-0.040980,-0.247545,0.670392,0.363801,0.447867,2.140375,0.493551,-4.087881
1790539096.4924,-0.019771,-0.053776,-0.249308,-0.013456,-0.049937,-0.249308,0.613327,1.240412,0.475793,1.258831,1.571771,-12.820399
1790539096.5070,-0.035558,-0.063118,-0.243460,-0.028927,-0.059164,-0.243460,0.646109,0.978157,0.693124,0.837223,1.534591,-11.733686
1790539096.5206,-0.047076,-0.065063,-0.227679,-0.041631,-0.063293,-0.227679,0.260012,0.738971,0.778114,0.798895,2.984611,-10.452916
1790539096.5341,-0.051049,-0.066801,-0.211109,-0.048224,-0.065749,-0.211109,0.199304,0.214462,0.807253,0.338959,2.129471,-9.055714
1790539096.5480,-0.049063,-0.070194,-0.191410,-0.048811,-0.068860,-0.191410,0.295222,-0.127926,0.653057,-0.504256,1.646131,-8.201867
1790539096.5619,-0.045219,-0.073004,-0.178395,-0.046297,-0.071761,-0.178395,0.261226,-0.335545,0.568067,0.338959,1.794851,-8.667602
1790539096.5758,-0.035140,-0.073814,-0.173623,-0.038487,-0.073198,-0.173623,0.052393,-0.914690,0.619061,2.178703,1.534591,-12.432287
1790539096.5897,-0.025185,-0.067711,-0.172098,-0.029176,-0.069357,-0.172098,-0.473330,-0.953543,0.604492,2.983590,1.014071,-12.509909
1790539096.6037,-0.018816,-0.061296,-0.174239,-0.021924,-0.063714,-0.174239,-0.617813,-0.841842,0.407801,3.788478,-0.844929,-7.774944
1790539096.6177,-0.009153,-0.049500,-0.179160,-0.012984,-0.053764,-0.179160,-0.846072,-0.953543,0.137047,1.948735,0.790991,-6.183686
1790539096.6315,-0.001100,-0.037182,-0.182950,-0.004666,-0.042157,-0.182950,-0.928634,-0.835771,-0.008650,2.446998,0.605091,-7.503266
1790539096.6454,0.005764,-0.024989,-0.186267,0.002635,-0.030139,-0.186267,-0.945632,-0.681575,-0.125208,2.561982,0.605091,-10.336483
1790539096.6594,-0.000749,-0.021300,-0.184548,0.000266,-0.023952,-0.184548,-0.434478,0.384442,-0.346182,2.868606,-0.993649,-15.770049
1790539096.6733,-0.007291,-0.022289,-0.194228,-0.005024,-0.022788,-0.194228,0.081533,0.670979,-0.892546,-0.964192,2.352551,-13.441378
1790539096.6871,0.003517,-0.027762,-0.173159,0.000954,-0.026270,-0.173159,0.476129,-0.209274,-1.458336,-4.835318,2.724351,-9.249770
1790539096.7009,-0.002372,-0.030450,-0.215181,-0.001374,-0.029196,-0.215181,0.415422,0.292167,-1.021245,2.561982,3.021791,-6.106063
1790539096.7147,0.001132,-0.038598,-0.225504,0.000380,-0.035777,-0.225504,0.614541,-0.161922,-0.670358,-0.082648,1.460231,-8.279490
1790539096.7286,0.012800,-0.052461,-0.226782,0.009074,-0.047456,-0.226782,0.949644,-0.575945,-0.984820,-2.343999,0.828171,-11.112707
1790539096.7424,0.025188,-0.063373,-0.243657,0.020354,-0.058598,-0.243657,0.913220,-0.679147,-1.275000,-1.194160,2.724351,-8.357112
1790539096.7563,0.031471,-0.072148,-0.266729,0.028136,-0.068083,-0.266729,0.718957,-0.433890,-1.202152,0.798895,2.129471,-7.503266
1790539096.7701,0.036322,-0.082047,-0.278011,0.033866,-0.077858,-0.278011,0.601185,-0.379254,-0.990891,1.067191,-0.064149,-8.900469
1790539096.7840,0.047723,-0.095514,-0.289870,0.043566,-0.090217,-0.289870,0.916862,-0.777492,-0.882832,-0.120976,0.642271,-9.405014
1790539096.7980,0.036860,-0.106482,-0.303626,0.038872,-0.101602,-0.303626,0.754167,0.748684,-0.731065,0.798895,1.014071,-12.121798
1790539096.8120,0.012736,-0.093730,-0.311523,0.020577,-0.096092,-0.311523,-1.000268,1.751566,-0.671572,0.300631,0.010211,-14.139979
1790539096.8261,0.016198,-0.082173,-0.284387,0.017512,-0.086349,-0.284387,-1.059761,0.118545,-0.690998,-5.180270,-2.666748,-10.879840
1790539096.8401,0.010986,-0.066866,-0.282178,0.012944,-0.072711,-0.282178,-1.292876,0.689191,-0.774774,-2.420655,-1.068009,-6.843476
1790539096.8540,-0.005686,-0.049594,-0.286001,-0.000097,-0.056529,-0.286001,-1.391222,1.350899,-0.504020,-0.810880,-0.510309,-6.959909
1790539096.8679,-0.006710,-0.034592,-0.299646,-0.004726,-0.041173,-0.299646,-1.336585,0.592060,-0.395961,-4.030431,-1.588528,-4.631238
1790539096.8818,-0.008958,-0.016363,-0.296926,-0.007689,-0.023806,-0.296926,-1.159321,0.329805,-0.425101,-1.117504,2.947431,-7.774944
1790539096.8956,0.003505,-0.021741,-0.311673,0.000147,-0.022361,-0.311673,0.352286,-1.107739,0.128548,3.788478,1.794851,-17.710609
1790539096.9094,-0.008199,-0.024214,-0.332037,-0.005696,-0.023658,-0.332037,0.256369,0.372300,1.022156,5.129957,2.724351,-10.608161
1790539096.9232,-0.006442,-0.032025,-0.323473,-0.006218,-0.029515,-0.323473,0.558691,-0.344044,0.960235,0.875551,1.199971,-9.249770
1790539096.9370,-0.006839,-0.044031,-0.324626,-0.006653,-0.039676,-0.324626,0.818517,-0.218987,0.593564,1.565455,0.382011,-6.998721
1790539096.9508,-0.022314,-0.053399,-0.331953,-0.017616,-0.049282,-0.331953,0.698317,0.788751,0.568067,4.171758,1.497411,-10.220049
1790539096.9646,-0.036287,-0.068237,-0.327861,-0.030686,-0.062550,-0.327861,1.083200,0.884668,0.721049,1.182175,1.757671,-12.665154
1790539096.9781,-0.051203,-0.077623,-0.323104,-0.045048,-0.073101,-0.323104,0.852513,0.985442,0.859461,0.913879,3.505131,-9.637881
1790539096.9920,-0.064657,-0.081266,-0.314820,-0.058774,-0.078817,-0.314820,0.414208,0.864028,0.938381,0.798895,3.319231,-8.667602
1790539097.0062,-0.054201,-0.089728,-0.294452,-0.055573,-0.086455,-0.294452,0.637610,-0.711929,0.984518,-1.194160,2.352551,-10.064805
1790539097.0203,-0.046496,-0.089857,-0.281323,-0.049219,-0.088836,-0.281323,-0.056880,-0.675504,0.892243,1.488799,0.642271,-13.751868
1790539097.0343,-0.036931,-0.089795,-0.261704,-0.040617,-0.089507,-0.261704,-0.150368,-0.879480,0.915312,2.715294,-1.068009,-13.557812
1790539097.0484,-0.028636,-0.086928,-0.230841,-0.032231,-0.087701,-0.230841,-0.391983,-0.974183,0.962664,4.018446,-1.328269,-7.736133
1790539097.0624,-0.028686,-0.081508,-0.214494,-0.029749,-0.083366,-0.214494,-0.541322,-0.391395,0.832750,4.440053,-1.068009,-8.163056
1790539097.0764,-0.023381,-0.073404,-0.202056,-0.025292,-0.076393,-0.202056,-0.719801,-0.588086,0.502504,2.102047,-0.733389,-8.434735
1790539097.0903,-0.021740,-0.060764,-0.204851,-0.022805,-0.065452,-0.204851,-0.989341,-0.395038,0.251176,4.056774,-0.138509,-10.491728
1790539097.1044,-0.015664,-0.043002,-0.211808,-0.017806,-0.049737,-0.211808,-1.313517,-0.652436,-0.056002,3.443526,0.456371,-10.103616
1790539097.1200,-0.007050,-0.021567,-0.212854,-0.010277,-0.030018,-0.212854,-1.450715,-0.742282,-0.201699,3.098574,0.084571,-8.434735
1790539097.1352,-0.015806,-0.014845,-0.194276,-0.014147,-0.019397,-0.194276,-0.662736,0.494929,-0.460311,4.708349,-2.443668,-15.381938
1790539097.1500,-0.028106,-0.029210,-0.167634,-0.023919,-0.026266,-0.167634,0.908363,1.338757,-1.112305,-4.988630,0.790991,-10.724595
1790539097.1650,-0.019605,-0.024703,-0.350001,-0.020899,-0.025172,-0.350001,0.421492,-0.365898,-0.975107,-1.462456,7.409030,-2.341378
1790539097.1792,-0.020137,-0.027118,-0.350949,-0.020366,-0.026534,-0.350949,0.125242,0.050553,-0.559871,0.990535,0.679451,-8.240679
1790539097.1933,-0.005808,-0.042207,-0.330266,-0.010175,-0.037505,-0.330266,1.034634,-0.726498,-0.735921,-3.033903,1.088431,-10.452916
1790539097.2074,0.016286,-0.055692,-0.341957,0.008347,-0.050236,-0.341957,1.103840,-1.352996,-0.936255,-1.577440,2.910251,-7.891378
1790539097.2210,0.023043,-0.062763,-0.360325,0.018634,-0.059005,-0.360325,0.735955,-0.506739,-0.860978,0.837223,3.058971,-6.300119
1790539097.2346,0.022625,-0.064690,-0.375188,0.021428,-0.062985,-0.375188,0.359571,0.014128,-0.694640,1.028863,4.360271,-8.900469
1790539097.2490,0.031154,-0.071181,-0.385054,0.028236,-0.068722,-0.385054,0.523480,-0.412036,-0.595081,-2.535639,2.687171,-10.918651
1790539097.2631,0.022551,-0.077718,-0.398577,0.024257,-0.075019,-0.398577,0.545335,0.668551,-0.408103,-0.695896,3.282051,-13.790679
1790539097.2769,0.009342,-0.071280,-0.401554,0.013816,-0.072402,-0.401554,-0.449047,1.077717,-0.153133,-2.458983,1.943571,-14.178791
1790539097.2909,0.002512,-0.057399,-0.369783,0.005903,-0.061900,-0.369783,-1.102256,0.769325,-0.149491,-4.413711,-0.212869,-10.258860
1790539097.3047,-0.000694,-0.045297,-0.324382,0.001285,-0.050278,-0.324382,-1.031836,0.623628,-0.182272,-4.452038,-0.696209,-7.037532
1790539097.3185,-0.008041,-0.033297,-0.321624,-0.005243,-0.038391,-0.321624,-0.827860,0.847030,-0.156775,-1.884064,0.865351,-4.010259
1790539097.3323,-0.015601,-0.023050,-0.325433,-0.012494,-0.027652,-0.325433,-0.672450,0.724401,-0.147062,-1.462456,1.757671,-6.688231
1790539097.3462,-0.012779,-0.018022,-0.325177,-0.012694,-0.020911,-0.325177,-0.293637,-0.142496,0.077554,-1.309144,3.170511,-12.005364
1790539097.3600,-0.006634,-0.024037,-0.314591,-0.008452,-0.023099,-0.314591,0.485842,-0.444817,0.747760,-1.692424,2.166651,-9.210958
1790539097.3739,-0.016154,-0.033015,-0.294293,-0.013843,-0.030040,-0.294293,0.552620,0.369872,1.223704,2.715294,0.047391,-12.354665
1790539097.3880,-0.025499,-0.045979,-0.277337,-0.022003,-0.041197,-0.277337,0.813660,0.405082,1.005158,1.718767,-0.138509,-8.201867
1790539097.4021,-0.039470,-0.065379,-0.267405,-0.034230,-0.058124,-0.267405,1.319958,0.820319,0.719835,1.182175,0.344831,-7.037532
1790539097.4160,-0.063219,-0.087113,-0.259307,-0.054522,-0.078416,-0.259307,1.557929,1.542733,0.808467,1.795423,1.051251,-8.900469
1790539097.4300,-0.080023,-0.098014,-0.253440,-0.072373,-0.092134,-0.253440,0.871939,1.160278,0.861890,0.262303,2.501271,-8.395923
1790539097.4436,-0.086911,-0.107387,-0.244674,-0.082550,-0.102811,-0.244674,0.709244,0.437864,0.877674,1.105519,2.315371,-12.199420
1790539097.4573,-0.086784,-0.115093,-0.232521,-0.085513,-0.111408,-0.232521,0.495555,-0.101215,0.844892,1.565455,0.642271,-11.617252
1790539097.4711,-0.080692,-0.120262,-0.221260,-0.082138,-0.117606,-0.221260,0.301292,-0.526165,0.693124,1.757095,0.344831,-12.587532
1790539097.4851,-0.077181,-0.126629,-0.198455,-0.078668,-0.123922,-0.198455,0.226016,-0.466672,0.696766,4.210086,-2.741108,-11.539630
1790539097.4991,-0.069133,-0.131999,-0.180105,-0.071994,-0.129576,-0.180105,0.188377,-0.817559,0.745332,4.708349,-2.220588,-11.539630
1790539097.5137,-0.056252,-0.128167,-0.164002,-0.060975,-0.128589,-0.164002,-0.417480,-1.124737,0.847320,4.018446,-1.365448,-10.336483
1790539097.5278,-0.048018,-0.117483,-0.154778,-0.051905,-0.120815,-0.154778,-0.866712,-0.844270,0.651843,3.136902,-0.621849,-7.464455
1790539097.5418,-0.045493,-0.104075,-0.143121,-0.047417,-0.109097,-0.143121,-1.147179,-0.472743,0.440582,4.171758,-1.811608,-8.512357
1790539097.5557,-0.039815,-0.087373,-0.136249,-0.042095,-0.093890,-0.136249,-1.319587,-0.597799,0.211110,2.446998,-0.733389,-7.930189
1790539097.5695,-0.027200,-0.068444,-0.129682,-0.031669,-0.076078,-0.129682,-1.474997,-1.044604,0.075126,1.527127,-0.287229,-7.580888
1790539097.5835,-0.016759,-0.045442,-0.137653,-0.021232,-0.054633,-0.137653,-1.671688,-0.982682,0.123691,2.178703,0.493551,-6.338930
1790539097.5975,-0.008733,-0.022540,-0.131348,-0.012483,-0.032168,-0.131348,-1.777319,-0.855197,0.143118,3.098574,-0.621849,-7.231588
1790539097.6115,-0.003753,-0.003514,-0.117502,-0.006372,-0.012110,-0.117502,-1.447072,-0.359827,0.078768,-0.197632,0.753811,-12.509909
1790539097.6254,-0.041249,-0.019402,-0.107120,-0.030786,-0.017215,-0.107120,0.959357,2.864934,-0.615721,0.108991,-2.183408,-21.281238
1790539097.6394,-0.035623,-0.028856,-0.159484,-0.034172,-0.025363,-0.159484,0.950858,0.125829,-0.894974,-7.288309,4.917971,-7.969000
1790539097.6533,-0.038725,-0.035000,-0.187208,-0.037359,-0.032109,-0.187208,0.484628,-0.029581,-0.370464,4.593365,1.311511,-8.357112
1790539097.6671,-0.027846,-0.051787,-0.179517,-0.030700,-0.045883,-0.179517,1.222826,-0.529807,-0.398390,-2.075704,1.014071,-6.804665
1790539097.6807,-0.004115,-0.076087,-0.178828,-0.012091,-0.067026,-0.178828,1.891819,-1.352996,-0.698283,-5.103614,2.352551,-8.667602
1790539097.6942,0.009859,-0.093539,-0.220584,0.003274,-0.085585,-0.220584,1.629564,-0.943830,-0.672786,-0.580912,4.248731,-6.455364
1790539097.7082,0.019782,-0.109229,-0.249804,0.014830,-0.102136,-0.249804,1.426802,-0.727712,-0.551372,0.415615,3.691031,-6.144874
1790539097.7220,0.011554,-0.121578,-0.259171,0.012537,-0.115746,-0.259171,0.867083,0.678264,-0.724994,-1.347472,0.716631,-17.128441
1790539097.7359,-0.001831,-0.114082,-0.261122,0.002480,-0.114581,-0.261122,-0.589888,1.122640,-0.618149,-4.337055,0.010211,-21.281238
1790539097.7498,-0.000442,-0.100968,-0.244320,0.000434,-0.105052,-0.244320,-1.080401,0.169539,-0.472452,-5.870174,-1.774428,-14.760958
1790539097.7640,-0.008992,-0.085971,-0.236363,-0.006164,-0.091695,-0.236363,-1.206672,0.787537,-0.538016,-1.692424,-1.105189,-7.580888
1790539097.7780,-0.037200,-0.061968,-0.253563,-0.027889,-0.070886,-0.253563,-1.700828,1.627723,-0.403246,2.178703,0.270471,-2.186133
1790539097.7919,-0.041517,-0.037482,-0.243606,-0.037429,-0.047503,-0.243606,-1.768820,0.821533,-0.649717,-3.187215,0.344831,-3.971448
1790539097.8059,-0.057271,-0.018133,-0.261825,-0.051318,-0.026944,-0.261825,-1.228527,1.241626,-0.517376,0.070663,3.765391,-10.336483
1790539097.8197,-0.039331,-0.021696,-0.250596,-0.042927,-0.023270,-0.250596,0.103387,-1.072529,-0.301258,-5.793518,-2.034688,-21.281238
1790539097.8336,-0.031983,-0.018808,-0.241774,-0.035266,-0.020146,-0.241774,-0.243857,-0.563803,0.409015,-0.504256,2.092291,-17.050819
1790539097.8477,-0.029673,-0.020692,-0.226451,-0.031351,-0.020528,-0.226451,-0.001029,-0.356185,0.824251,1.182175,-0.287229,-10.297672
1790539097.8616,-0.027468,-0.033595,-0.209629,-0.028633,-0.029675,-0.209629,0.772380,-0.290621,0.785399,0.377287,-0.659029,-9.172147
1790539097.8757,-0.032633,-0.052429,-0.204261,-0.031433,-0.045603,-0.204261,1.200972,0.158611,0.585065,1.757095,-0.547489,-7.503266
1790539097.8922,-0.049380,-0.067993,-0.202384,-0.043996,-0.061276,-0.202384,0.996996,0.923521,0.642130,0.913879,2.352551,-10.181238
1790539097.9060,-0.067936,-0.078636,-0.196347,-0.060754,-0.073428,-0.196347,0.813660,1.284121,0.867960,0.262303,2.352551,-10.685784
1790539097.9197,-0.077332,-0.082868,-0.189952,-0.072359,-0.080036,-0.189952,0.383854,0.680692,0.903171,-0.504256,2.873071,-9.754315
1790539097.9337,-0.073076,-0.089214,-0.179457,-0.072861,-0.086461,-0.179457,0.519838,-0.256625,0.956593,-1.309144,2.575631,-8.473546
1790539097.9476,-0.063109,-0.089850,-0.162628,-0.066034,-0.088833,-0.162628,-0.048381,-0.747139,0.942023,-0.312616,0.382011,-11.345574
1790539097.9613,-0.057043,-0.088677,-0.147974,-0.059741,-0.088724,-0.147974,-0.226859,-0.600228,0.931096,2.293686,-0.770569,-13.557812
1790539097.9753,-0.047538,-0.083594,-0.135256,-0.051199,-0.085133,-0.135256,-0.487900,-0.965684,1.118074,3.520182,-0.324409,-10.530539
1790539097.9892,-0.040803,-0.073664,-0.125160,-0.043922,-0.077104,-0.125160,-0.827860,-0.792062,0.971163,3.788478,-0.361589,-9.870749
1790539098.0034,-0.028100,-0.060431,-0.110423,-0.032847,-0.065433,-0.110423,-1.068260,-1.129593,0.820609,1.603783,-0.435949,-6.532986
1790539098.0177,-0.026327,-0.045344,-0.107019,-0.028283,-0.051371,-0.107019,-1.187246,-0.512809,0.648201,3.711822,-0.659029,-6.377742
1790539098.0316,-0.015617,-0.029104,-0.098288,-0.019417,-0.035784,-0.098288,-1.206672,-0.855197,0.385946,0.492271,0.902531,-9.909560
1790539098.0456,-0.024800,-0.023085,-0.095822,-0.023185,-0.026895,-0.095822,-0.537680,0.544708,0.021703,3.750150,-0.324409,-18.370399
1790539098.0595,-0.027868,-0.031822,-0.094661,-0.026463,-0.030344,-0.094661,0.625468,0.517997,-0.796628,-3.992103,2.017931,-15.731238
1790539098.0734,-0.020027,-0.041675,-0.104266,-0.021958,-0.038276,-0.104266,0.807590,-0.166779,-1.176655,-3.455511,2.426911,-8.706413
1790539098.0873,-0.026114,-0.037696,-0.157919,-0.024867,-0.037870,-0.157919,-0.011956,0.180466,-0.427529,3.098574,3.021791,-4.708860
1790539098.1011,-0.014433,-0.046503,-0.138586,-0.017563,-0.043913,-0.138586,0.589044,-0.512809,-0.470024,-4.068759,0.493551,-8.900469
1790539098.1149,0.001201,-0.064710,-0.142343,-0.004428,-0.058471,-0.142343,1.343026,-0.846698,-0.865834,-3.838791,2.017931,-12.238231
1790539098.1285,0.014647,-0.072377,-0.176853,0.008924,-0.068205,-0.176853,0.927790,-0.834557,-1.029744,-0.657568,3.988471,-4.670049
1790539098.1421,0.018004,-0.075166,-0.198967,0.015280,-0.073078,-0.198967,0.517410,-0.380468,-0.926542,2.025391,3.653851,-4.631238
1790539098.1557,0.018935,-0.084476,-0.212463,0.017839,-0.081056,-0.212463,0.695889,-0.057506,-0.905901,0.990535,1.608951,-11.112707
1790539098.1696,0.020254,-0.095292,-0.228805,0.019529,-0.091022,-0.228805,0.865868,0.016557,-0.672786,-1.577440,3.319231,-13.441378
1790539098.1834,-0.002976,-0.096533,-0.237970,0.003776,-0.094880,-0.237970,0.041466,1.719998,-0.750491,0.683911,0.567911,-19.301868
1790539098.1972,-0.009300,-0.084119,-0.239392,-0.005377,-0.087348,-0.239392,-0.985698,0.735329,-0.789344,-4.375383,-0.621849,-12.509909
1790539098.2112,-0.008758,-0.070602,-0.233054,-0.007744,-0.075626,-0.233054,-1.142323,0.237531,-0.665501,-2.573967,-1.328269,-7.192776
1790539098.2250,-0.020295,-0.052247,-0.229448,-0.016530,-0.059261,-0.229448,-1.523563,1.118998,-0.555014,-1.194160,-0.733389,-3.428091
1790539098.2389,-0.029419,-0.035240,-0.233046,-0.025552,-0.042446,-0.233046,-1.345084,0.806963,-0.538016,-0.695896,-0.547489,-7.192776
1790539098.2529,-0.043569,-0.018575,-0.240646,-0.038164,-0.025737,-0.240646,-1.175104,1.194274,-0.512519,-1.040848,1.423051,-9.133336
1790539098.2671,-0.035895,-0.022170,-0.240218,-0.036576,-0.023240,-0.240218,0.196876,-0.397466,-0.266048,-2.229015,0.790991,-15.381938
1790539098.2812,-0.032141,-0.025980,-0.237950,-0.033471,-0.025158,-0.237950,0.280652,-0.453316,0.411443,2.600310,2.166651,-11.733686
1790539098.2951,-0.035753,-0.030390,-0.224206,-0.035068,-0.028820,-0.224206,0.239371,0.086977,0.986946,0.760567,0.642271,-10.530539
1790539098.3090,-0.024398,-0.042056,-0.210515,-0.027599,-0.038085,-0.210515,0.769951,-0.851555,0.655486,-0.772552,0.344831,-8.240679
1790539098.3228,-0.031847,-0.053325,-0.216892,-0.030572,-0.048753,-0.216892,0.901079,0.233888,0.512217,2.906934,1.869211,-6.416553
1790539098.3369,-0.050392,-0.064269,-0.213247,-0.044446,-0.059614,-0.213247,0.786949,1.163921,0.628774,2.140375,1.683311,-11.229140
1790539098.3509,-0.064827,-0.076125,-0.206073,-0.058712,-0.071172,-0.206073,0.891365,0.955088,0.829108,0.568927,2.612811,-11.423196
1790539098.3647,-0.078842,-0.079886,-0.199958,-0.072803,-0.077271,-0.199958,0.369284,0.973301,0.857033,0.108991,3.058971,-9.094525
1790539098.3784,-0.080242,-0.084396,-0.189776,-0.078010,-0.082259,-0.189776,0.351072,0.106403,0.866746,-0.657568,2.352551,-10.414105
1790539098.3924,-0.072508,-0.087006,-0.177100,-0.074158,-0.085582,-0.177100,0.153167,-0.557733,0.870389,-0.619240,1.497411,-10.996273
1790539098.4064,-0.064197,-0.086392,-0.163865,-0.067186,-0.086149,-0.163865,-0.146726,-0.656078,0.778114,0.568927,0.047391,-13.247322
1790539098.4205,-0.053506,-0.083650,-0.148992,-0.057610,-0.084400,-0.148992,-0.308207,-0.963256,0.859461,3.098574,-0.250049,-12.315854
1790539098.4346,-0.045876,-0.076658,-0.133307,-0.049396,-0.078980,-0.133307,-0.646953,-0.834557,0.802397,4.248414,-1.068009,-10.336483
1790539098.4485,-0.033311,-0.067403,-0.117281,-0.038137,-0.070876,-0.117281,-0.821789,-1.067672,0.699195,1.335487,-0.844929,-7.969000
1790539098.4624,-0.029225,-0.054797,-0.111308,-0.031899,-0.059621,-0.111308,-1.006339,-0.611155,0.554712,3.251886,-0.250049,-7.076343
1790539098.4763,-0.022244,-0.040979,-0.106533,-0.025140,-0.046571,-0.106533,-1.064617,-0.734997,0.387160,2.217030,0.270471,-7.309210
1790539098.4901,-0.014071,-0.026432,-0.106400,-0.017392,-0.032474,-0.106400,-1.056118,-0.748353,0.195326,1.910407,1.274331,-9.210958
1790539098.5042,-0.020344,-0.018804,-0.108761,-0.019458,-0.022905,-0.108761,-0.578961,0.405082,-0.164060,1.833751,1.348691,-14.372847
1790539098.5185,-0.028959,-0.024160,-0.123672,-0.026109,-0.023783,-0.123672,0.403280,0.782680,-0.935041,-0.427600,2.464091,-14.139979
1790539098.5326,-0.020468,-0.035680,-0.128959,-0.022161,-0.032111,-0.128959,0.818517,-0.150995,-1.376988,-3.378855,0.828171,-7.774944
1790539098.5466,-0.030572,-0.030685,-0.189424,-0.028049,-0.031113,-0.189424,0.105816,0.434222,-0.544087,2.945262,3.579491,-1.603965
1790539098.5605,-0.023424,-0.037264,-0.181989,-0.024811,-0.035419,-0.181989,0.433634,-0.227486,-0.502806,-3.915447,0.790991,-11.073895
1790539098.5744,-0.007129,-0.054072,-0.184713,-0.012433,-0.048476,-0.184713,1.177903,-0.908620,-0.864620,-3.340527,0.790991,-12.471098
1790539098.5880,0.004494,-0.062176,-0.206277,-0.000584,-0.058066,-0.206277,0.789378,-0.673076,-1.063740,-1.002520,3.728211,-8.163056
1790539098.6017,0.013651,-0.067607,-0.220622,0.009380,-0.064745,-0.220622,0.457917,-0.654864,-0.935041,1.067191,2.203831,-9.637881
1790539098.6152,0.019008,-0.073474,-0.236742,0.016120,-0.070855,-0.236742,0.500412,-0.289407,-0.873119,-0.427600,1.906391,-7.891378
1790539098.6291,0.031720,-0.086469,-0.246758,0.027040,-0.081785,-0.246758,0.914434,-0.810274,-0.763847,-0.925864,0.865351,-9.405014
1790539098.6429,0.005120,-0.088137,-0.259387,0.011696,-0.086231,-0.259387,0.142240,1.981039,-0.597509,0.070663,3.244871,-21.164805
1790539098.6567,-0.008043,-0.075645,-0.264859,-0.002122,-0.078821,-0.264859,-0.900708,1.224628,-0.531945,-5.601878,1.646131,-14.799770
1790539098.6706,-0.004026,-0.063756,-0.249286,-0.003455,-0.068275,-0.249286,-1.030621,0.071193,-0.483380,-6.445094,-2.257768,-10.841028
1790539098.6844,-0.018229,-0.048296,-0.248622,-0.013797,-0.054290,-0.248622,-1.345084,1.055862,-0.530731,0.338959,-0.956469,-3.932637
1790539098.6983,-0.037541,-0.027433,-0.257877,-0.030418,-0.035490,-0.257877,-1.500494,1.392180,-0.485808,0.645583,0.530731,-4.204315
1790539098.7122,-0.048128,-0.013070,-0.258838,-0.042815,-0.019796,-0.258838,-1.143537,1.036436,-0.445741,-2.458983,-0.510309,-8.628791
1790539098.7260,-0.043682,-0.010824,-0.257550,-0.043422,-0.013515,-0.257550,-0.308207,-0.163136,-0.298830,-3.148887,-1.885968,-21.281238
1790539098.7399,-0.039554,-0.019780,-0.254761,-0.040714,-0.017901,-0.254761,0.564761,-0.421749,0.236607,2.945262,0.753811,-17.827042
1790539098.7538,-0.039390,-0.013586,-0.251915,-0.039787,-0.014880,-0.251915,-0.259641,-0.288193,0.826680,1.872079,3.467951,-6.067252
1790539098.7683,-0.030195,-0.024265,-0.240162,-0.033073,-0.021450,-0.240162,0.720171,-0.843056,0.779328,1.143847,1.199971,-7.503266
1790539098.7823,-0.028028,-0.035777,-0.227550,-0.029542,-0.031479,-0.227550,0.709244,-0.358613,0.711336,1.527127,-0.138509,-8.395923
1790539098.7963,-0.045636,-0.045191,-0.223260,-0.040808,-0.041077,-0.223260,0.692246,1.003654,0.768401,2.830278,1.720491,-8.978091
1790539098.8102,-0.056026,-0.054926,-0.214869,-0.051461,-0.050771,-0.214869,0.708030,0.656410,0.813324,0.453943,2.092291,-11.423196
1790539098.8238,-0.068799,-0.061498,-0.209793,-0.063597,-0.058280,-0.209793,0.568404,0.800892,0.908027,1.258831,3.021791,-9.405014
1790539098.8374,-0.079482,-0.065686,-0.204293,-0.074717,-0.063464,-0.204293,0.398424,0.669765,0.921383,0.798895,2.910251,-8.163056
1790539098.8513,-0.080556,-0.069304,-0.196155,-0.078804,-0.067552,-0.196155,0.280652,0.022627,0.830322,0.185647,2.501271,-10.608161
1790539098.8652,-0.076424,-0.071911,-0.182454,-0.077138,-0.070604,-0.182454,0.104601,-0.396252,0.877674,1.067191,1.014071,-13.829490
1790539098.8791,-0.066427,-0.068204,-0.169618,-0.069640,-0.068924,-0.169618,-0.334918,-0.838199,0.785399,1.258831,1.014071,-11.733686
1790539098.8929,-0.058705,-0.061907,-0.143687,-0.061985,-0.064012,-0.143687,-0.649381,-0.868553,0.806039,4.440053,-1.402628,-10.220049
1790539098.9069,-0.047092,-0.054315,-0.122990,-0.051560,-0.057224,-0.122990,-0.714945,-1.085884,0.753831,2.676966,-0.882109,-8.473546
1790539098.9210,-0.032867,-0.044127,-0.103202,-0.038475,-0.048056,-0.103202,-0.897066,-1.157519,0.585065,0.913879,-0.770569,-6.921098
1790539098.9348,-0.029285,-0.028122,-0.100530,-0.032042,-0.034102,-0.100530,-1.211529,-0.543163,0.458795,3.443526,0.605091,-8.784035
1790539098.9488,-0.017212,-0.009658,-0.094832,-0.021661,-0.016991,-0.094832,-1.382723,-1.027606,0.206253,2.217030,0.828171,-10.841028
1790539098.9627,-0.021178,-0.001900,-0.090195,-0.021323,-0.006427,-0.090195,-0.671235,0.229032,-0.143420,2.638638,-0.138509,-17.128441
1790539098.9766,-0.026294,-0.012102,-0.097370,-0.024803,-0.010400,-0.097370,0.720171,0.664909,-0.942325,-2.497311,1.571771,-12.820399
1790539098.9905,-0.012118,-0.025051,-0.111672,-0.015923,-0.020656,-0.111672,0.954501,-0.643937,-1.427982,-2.842263,1.832031,-10.685784
1790539099.0046,-0.014189,-0.027982,-0.147822,-0.014709,-0.025784,-0.147822,0.471272,0.179252,-0.570798,0.338959,2.129471,-3.389280
1790539099.0191,-0.012665,-0.040955,-0.145260,-0.013279,-0.036404,-0.145260,0.806376,0.074835,-0.545301,-2.114032,-0.212869,-12.587532
1790539099.0331,0.009622,-0.056212,-0.153791,0.002752,-0.050270,-0.153791,1.092913,-1.265577,-1.064954,-4.835318,1.794851,-13.014455
1790539099.0470,0.013878,-0.068573,-0.184332,0.010540,-0.063082,-0.184332,1.040705,-0.254197,-1.204580,0.760567,2.649991,-6.416553
1790539099.0607,0.020010,-0.073603,-0.216000,0.017169,-0.070447,-0.216000,0.595115,-0.413250,-1.196081,0.722239,3.244871,-5.834385
1790539099.0743,0.026728,-0.082752,-0.235671,0.023860,-0.079060,-0.235671,0.716529,-0.430248,-1.157229,0.262303,1.460231,-6.688231
1790539099.0882,0.022965,-0.094312,-0.242093,0.023233,-0.089736,-0.242093,0.740812,0.256957,-0.893760,1.680439,-0.101329,-14.217602
1790539099.1020,0.002568,-0.091044,-0.251261,0.008767,-0.090651,-0.251261,-0.297280,1.582800,-0.760204,-1.309144,0.344831,-18.137532
1790539099.1159,0.003087,-0.077125,-0.251628,0.004791,-0.081183,-0.251628,-1.076759,0.335876,-0.718923,-7.134997,-0.361589,-12.044175
1790539099.1299,0.001824,-0.060839,-0.251897,0.002714,-0.066942,-0.251897,-1.345084,0.481573,-0.828196,-2.650623,-0.919289,-4.553616
1790539099.1437,-0.011407,-0.043222,-0.257617,-0.007170,-0.050338,-0.257617,-1.447072,1.106856,-0.704354,-0.504256,-0.882109,-6.377742
1790539099.1575,-0.028938,-0.021384,-0.280708,-0.022407,-0.030070,-0.280708,-1.479854,1.047363,-0.576869,1.795423,0.902531,-2.845923
1790539099.1714,-0.040590,-0.004838,-0.296924,-0.035136,-0.012408,-0.296924,-1.036692,1.043721,-0.597509,-1.002520,3.021791,-7.386832
1790539099.1853,-0.032358,-0.004967,-0.298066,-0.033191,-0.007199,-0.298066,-0.049595,-0.442389,-0.434814,-1.769080,0.939711,-15.964105
1790539099.2015,-0.035276,-0.005031,-0.299051,-0.034650,-0.005681,-0.299051,0.111886,0.057837,0.304599,1.373815,3.170511,-7.736133
1790539099.2163,-0.034404,-0.008113,-0.283855,-0.034478,-0.007384,-0.283855,0.132527,-0.200775,0.821823,0.300631,0.828171,-10.918651
1790539099.2308,-0.033365,-0.017546,-0.271242,-0.033699,-0.014497,-0.271242,0.542907,-0.198347,0.532857,0.645583,0.010211,-7.231588
1790539099.2457,-0.043397,-0.032443,-0.267402,-0.040487,-0.027059,-0.267402,1.020065,0.502213,0.500075,1.105519,0.939711,-4.902916
1790539099.2599,-0.060033,-0.047563,-0.260526,-0.054169,-0.041412,-0.260526,1.054060,1.018224,0.717407,1.757095,1.646131,-10.802217
1790539099.2739,-0.073965,-0.059102,-0.253691,-0.068026,-0.053795,-0.253691,0.867083,0.957517,0.926239,-0.465928,2.575631,-9.599070
1790539099.2877,-0.085730,-0.064301,-0.248693,-0.080419,-0.061149,-0.248693,0.478557,0.783894,1.002730,0.108991,3.096151,-7.813756
1790539099.3014,-0.089141,-0.068224,-0.240274,-0.086524,-0.066101,-0.240274,0.301292,0.182894,0.928668,0.262303,2.426911,-9.715504
1790539099.3154,-0.078491,-0.071033,-0.227063,-0.080901,-0.069553,-0.227063,0.122814,-0.823630,0.863104,0.147319,1.237151,-13.402567
1790539099.3294,-0.069928,-0.067245,-0.215052,-0.073220,-0.067937,-0.215052,-0.325205,-0.734997,0.723478,1.757095,1.348691,-13.014455
1790539099.3434,-0.060580,-0.063411,-0.195996,-0.064372,-0.064769,-0.195996,-0.406552,-0.868553,0.803611,2.906934,-0.287229,-12.548721
1790539099.3573,-0.049990,-0.054510,-0.175956,-0.054305,-0.057588,-0.175956,-0.768367,-1.045818,0.721049,3.290214,-0.287229,-8.589979
1790539099.3714,-0.035580,-0.043012,-0.156802,-0.041197,-0.047385,-0.156802,-0.954131,-1.231581,0.701623,1.642111,-0.324409,-7.969000
1790539099.3855,-0.029243,-0.028969,-0.141742,-0.032829,-0.034494,-0.141742,-1.114397,-0.730141,0.598421,2.293686,-0.212869,-6.416553
1790539099.3995,-0.021059,-0.013533,-0.132518,-0.024590,-0.019821,-0.132518,-1.150822,-0.703430,0.400516,0.760567,0.828171,-8.201867
1790539099.4134,-0.013733,-0.000878,-0.127216,-0.016990,-0.006561,-0.127216,-0.955345,-0.636652,0.137047,1.373815,1.014071,-10.025993
1790539099.4274,-0.023087,-0.006202,-0.127699,-0.021258,-0.006310,-0.127699,0.262440,0.621199,-0.408103,3.711822,-0.510309,-15.847672
1790539099.4414,-0.019078,-0.020398,-0.140053,-0.019732,-0.016171,-0.140053,1.020065,0.060266,-1.159657,-3.455511,1.906391,-13.324944
1790539099.4552,-0.017236,-0.033152,-0.154940,-0.017985,-0.028058,-0.154940,0.925361,0.014128,-1.103806,0.338959,1.274331,-9.831937
1790539099.4691,-0.022707,-0.035613,-0.189535,-0.021290,-0.033346,-0.189535,0.392353,0.242387,-0.360751,3.251886,4.100011,-8.046623
1790539099.4831,-0.008435,-0.050882,-0.190237,-0.012292,-0.045621,-0.190237,1.061345,-0.788420,-0.599937,-3.608823,0.939711,-13.247322
1790539099.4970,0.011949,-0.072326,-0.198869,0.004677,-0.064315,-0.198869,1.531218,-1.219440,-0.913186,-3.225543,1.274331,-11.966553
1790539099.5108,0.026927,-0.083544,-0.232563,0.020252,-0.077775,-0.232563,1.079557,-0.964470,-0.984820,-0.734224,4.471811,-7.231588
1790539099.5255,0.033753,-0.090277,-0.248133,0.029703,-0.086527,-0.248133,0.552620,-0.520094,-0.688570,1.297159,2.315371,-7.736133
1790539099.5397,0.027492,-0.105401,-0.253740,0.028155,-0.099739,-0.253740,0.978784,0.470646,-0.755348,0.185647,-0.250049,-12.121798
1790539099.5538,0.014928,-0.106264,-0.261538,0.018896,-0.104306,-0.261538,0.023254,1.029151,-0.565941,-3.033903,0.605091,-16.158161
1790539099.5677,0.009873,-0.103938,-0.259865,0.012580,-0.104049,-0.259865,-0.310635,0.619985,-0.684927,-4.643678,-1.774428,-12.238231
1790539099.5816,0.001953,-0.098256,-0.254763,0.005141,-0.099994,-0.254763,-0.620241,0.799678,-0.630291,-3.340527,-2.778288,-9.909560
1790539099.5957,-0.012829,-0.080888,-0.261979,-0.007438,-0.086620,-0.261979,-1.274664,1.271980,-0.606008,-2.075704,0.233291,-7.542077
1790539099.6095,-0.018088,-0.067157,-0.261280,-0.014893,-0.072996,-0.261280,-1.288020,0.768111,-0.442099,-2.880591,-2.183408,-3.932637
1790539099.6235,-0.028475,-0.048428,-0.264549,-0.024400,-0.055798,-0.264549,-1.402149,0.915022,-0.395961,-1.002520,0.047391,-5.640329
1790539099.6375,-0.036923,-0.028669,-0.265938,-0.033166,-0.036808,-0.265938,-1.522349,0.649125,-0.088784,-0.120976,-0.324409,-8.978091
1790539099.6515,-0.053708,-0.010347,-0.268302,-0.047546,-0.018285,-0.268302,-1.397292,1.237984,-0.034147,0.223975,0.121751,-11.850119
1790539099.6654,-0.025165,-0.016358,-0.256696,-0.031879,-0.016936,-0.256696,0.183521,-1.864149,0.315526,-7.441621,-4.377028,-16.546273
1790539099.6794,-0.022669,-0.028334,-0.260329,-0.025432,-0.024915,-0.260329,0.768737,-0.531021,0.915312,3.558510,0.158931,-9.948371
1790539099.6934,-0.031684,-0.033385,-0.258641,-0.029808,-0.030844,-0.258641,0.427563,0.430579,0.759902,1.603783,2.092291,-7.580888
1790539099.7073,-0.029890,-0.041022,-0.244876,-0.029865,-0.037968,-0.244876,0.589044,-0.013797,0.338594,-2.382327,2.092291,-9.560259
1790539099.7212,-0.039737,-0.058463,-0.245939,-0.036776,-0.052315,-0.245939,1.200972,0.550779,0.445439,2.600310,0.567911,-12.859210
1790539099.7351,-0.059308,-0.068815,-0.246191,-0.052548,-0.063865,-0.246191,0.840371,1.237984,0.627560,2.791950,3.728211,-12.005364
1790539099.7487,-0.071463,-0.076848,-0.238228,-0.065788,-0.072953,-0.238228,0.655822,0.797250,0.824251,0.913879,2.612811,-9.560259
1790539099.7623,-0.074646,-0.079574,-0.228023,-0.071989,-0.077588,-0.228023,0.253941,0.201106,0.735619,0.070663,2.426911,-9.327392
1790539099.7767,-0.080046,-0.083441,-0.220959,-0.077629,-0.081685,-0.220959,0.285509,0.280025,0.653057,0.875551,1.274331,-6.532986
1790539099.7907,-0.071332,-0.087721,-0.209053,-0.073221,-0.085910,-0.209053,0.205375,-0.650007,0.659128,0.147319,0.047391,-13.713056
1790539099.8046,-0.064194,-0.083201,-0.202786,-0.066902,-0.084014,-0.202786,-0.385912,-0.667005,0.609348,3.136902,0.828171,-14.722147
1790539099.8186,-0.056734,-0.074724,-0.198373,-0.059784,-0.077511,-0.198373,-0.714945,-0.737426,0.486720,4.171758,-0.584669,-13.247322
1790539099.8325,-0.042351,-0.061258,-0.194606,-0.047581,-0.066134,-0.194606,-1.019694,-1.184230,0.362877,1.143847,0.344831,-5.601518
1790539099.8464,-0.024926,-0.044075,-0.191676,-0.031723,-0.050693,-0.191676,-1.313517,-1.512048,0.321596,2.140375,0.047391,-5.601518
1790539099.8604,-0.015093,-0.024888,-0.187363,-0.020082,-0.032630,-0.187363,-1.470141,-1.061602,0.342237,2.446998,-0.101329,-4.320748
1790539099.8744,-0.000430,-0.010164,-0.180742,-0.006326,-0.016904,-0.180742,-1.119254,-1.220654,0.305813,1.680439,0.530731,-9.793126
1790539099.8883,-0.007660,-0.006929,-0.181064,-0.007260,-0.009922,-0.181064,-0.342203,0.388084,-0.097283,4.171758,-0.287229,-16.274595
1790539099.9021,-0.014705,-0.012502,-0.184295,-0.012471,-0.011728,-0.184295,0.359571,0.711046,-0.716495,-1.769080,1.571771,-16.701518
1790539099.9160,-0.005564,-0.017657,-0.192386,-0.007636,-0.015878,-0.192386,0.375355,-0.300334,-1.344206,-2.114032,1.460231,-8.628791
1790539099.9299,-0.013883,-0.023394,-0.228420,-0.012009,-0.021140,-0.228420,0.646109,0.593274,-0.892546,1.297159,2.649991,-4.592427
1790539099.9438,-0.010673,-0.028755,-0.234033,-0.011074,-0.026470,-0.234033,0.637610,0.071193,-0.578083,-1.999048,3.021791,-4.398371
1790539099.9578,0.000403,-0.043295,-0.237669,-0.003040,-0.038248,-0.237669,1.080772,-0.483670,-0.828196,-4.068759,2.389731,-11.267951
1790539099.9714,0.012216,-0.056427,-0.252472,0.007639,-0.050973,-0.252472,1.040705,-0.648793,-1.113519,-1.539112,2.426911,-9.094525
1790539099.9849,0.021009,-0.062409,-0.271475,0.016998,-0.058978,-0.271475,0.548977,-0.544377,-1.118376,0.032335,2.426911,-7.153965
1790539099.9989,0.023522,-0.065305,-0.287798,0.021565,-0.063407,-0.287798,0.216302,-0.141282,-1.045527,0.683911,1.274331,-7.115154
1790539100.0132,0.014887,-0.068493,-0.303799,0.016891,-0.066967,-0.303799,0.238157,0.675836,-0.910758,0.300631,1.906391,-10.685784
1790539100.0277,-0.006204,-0.058455,-0.316441,0.000725,-0.061008,-0.316441,-0.738013,1.564588,-0.828196,-0.274288,1.014071,-16.585084
1790539100.0418,-0.004554,-0.043571,-0.311031,-0.002970,-0.048802,-0.311031,-1.161749,0.289739,-0.788129,-6.636734,-0.770569,-11.190329
1790539100.0560,-0.008013,-0.029721,-0.314198,-0.006500,-0.035445,-0.314198,-1.142323,0.575062,-0.799057,-3.263871,-1.253909,-8.551168
1790539100.0700,-0.023064,-0.008632,-0.322485,-0.018095,-0.016676,-0.322485,-1.358440,1.455315,-0.589010,-2.075704,1.757671,-3.893825
1790539100.0839,-0.028674,0.008121,-0.331748,-0.025500,0.000682,-0.331748,-1.224884,0.868884,-0.637576,-2.343999,0.419191,-3.622147
1790539100.0979,-0.019830,0.005022,-0.336649,-0.021531,0.003720,-0.336649,0.182306,-0.414464,-0.465168,-2.573967,1.162791,-11.306763
1790539100.1118,-0.022652,0.001096,-0.333553,-0.022316,0.001883,-0.333553,0.402066,-0.091502,0.366520,5.666549,5.289771,-12.471098
1790539100.1258,-0.032889,-0.006615,-0.325818,-0.029717,-0.004065,-0.325818,0.466416,0.536209,0.821823,1.412143,0.493551,-10.646972
1790539100.1396,-0.020764,-0.015591,-0.310756,-0.023450,-0.012133,-0.310756,0.604828,-1.008179,0.929882,-0.504256,1.311511,-11.035084
1790539100.1535,-0.020931,-0.026873,-0.303831,-0.021686,-0.022451,-0.303831,0.701959,-0.106072,0.636059,0.338959,-0.101329,-7.930189
1790539100.1675,-0.040712,-0.035732,-0.299286,-0.035004,-0.031748,-0.299286,0.672820,1.202773,0.666413,2.638638,2.278191,-10.103616
1790539100.1813,-0.054784,-0.051416,-0.289724,-0.048850,-0.045515,-0.289724,1.105054,0.802107,0.944451,2.255358,1.237151,-10.297672
1790539100.1952,-0.066572,-0.059125,-0.277726,-0.061255,-0.055042,-0.277726,0.714101,0.673408,0.988160,1.220503,3.579491,-7.076343
1790539100.2088,-0.073329,-0.060461,-0.265362,-0.069707,-0.058835,-0.265362,0.236943,0.440292,0.967520,-0.159304,4.062831,-8.861658
1790539100.2224,-0.071277,-0.067053,-0.250761,-0.070806,-0.064588,-0.250761,0.429991,-0.183777,1.095005,-0.849208,1.423051,-10.336483
1790539100.2363,-0.067456,-0.069030,-0.236508,-0.068461,-0.067697,-0.236508,-0.019241,-0.396252,1.002730,1.182175,-0.844929,-15.149070
1790539100.2503,-0.059562,-0.065436,-0.223788,-0.062232,-0.066114,-0.223788,-0.381055,-0.727712,0.836393,2.332014,-0.212869,-14.062357
1790539100.2643,-0.051095,-0.059942,-0.212135,-0.054436,-0.061794,-0.212135,-0.530395,-0.850341,0.733191,3.635166,-0.696209,-11.462007
1790539100.2789,-0.043675,-0.051326,-0.200860,-0.046904,-0.054467,-0.200860,-0.774437,-0.778706,0.631203,2.868606,-1.253909,-7.464455
1790539100.2930,-0.034901,-0.042668,-0.189221,-0.038501,-0.046208,-0.189221,-0.782936,-0.787205,0.588708,0.875551,-0.621849,-5.368651
1790539100.3068,-0.029941,-0.033302,-0.183621,-0.032509,-0.037174,-0.183621,-0.738013,-0.550448,0.486720,2.025391,0.530731,-9.094525
1790539100.3208,-0.019769,-0.021248,-0.178502,-0.023591,-0.026026,-0.178502,-0.921349,-0.810274,0.212324,0.875551,0.716631,-10.841028
1790539100.3347,-0.011688,-0.006212,-0.177976,-0.015259,-0.012156,-0.177976,-1.145965,-0.710714,0.031417,2.102047,0.567911,-10.530539
1790539100.3488,-0.016719,-0.008651,-0.181039,-0.016281,-0.009702,-0.181039,0.081533,0.435436,-0.445741,0.223975,0.158931,-14.411658
1790539100.3628,-0.022559,-0.023493,-0.192200,-0.020676,-0.019356,-0.192200,1.043133,0.670979,-1.045527,-1.577440,1.423051,-13.519000
1790539100.3766,-0.014336,-0.036391,-0.199404,-0.016238,-0.031280,-0.199404,1.058917,-0.180134,-1.011532,-3.493839,2.426911,-6.804665
1790539100.3906,-0.015115,-0.045775,-0.208357,-0.015452,-0.041426,-0.208357,0.642466,0.037197,-0.450598,1.258831,0.716631,-9.172147
1790539100.4045,-0.001446,-0.062323,-0.208386,-0.005648,-0.056054,-0.208386,1.139050,-0.720428,-0.642432,-3.915447,0.270471,-11.772497
1790539100.4185,0.009847,-0.075441,-0.219074,0.005198,-0.069625,-0.219074,1.054060,-0.609941,-0.902259,-2.152360,3.356411,-10.414105
1790539100.4323,0.022893,-0.086698,-0.236102,0.017585,-0.081576,-0.236102,0.929004,-0.819987,-1.183940,-0.465928,2.352551,-7.115154
1790539100.4459,0.029772,-0.089927,-0.264562,0.026116,-0.087422,-0.264562,0.550192,-0.631795,-0.891331,1.373815,2.873071,-3.428091
1790539100.4600,0.032988,-0.105192,-0.271111,0.030927,-0.099861,-0.271111,1.003067,-0.194704,-0.572012,-0.197632,-0.250049,-7.774944
1790539100.4738,0.013812,-0.107723,-0.280962,0.018946,-0.105365,-0.280962,0.177450,1.477170,-0.608436,-1.807408,1.757671,-18.486833
1790539100.4876,0.008900,-0.095020,-0.287018,0.011914,-0.098123,-0.287018,-1.006339,0.605416,-0.579297,-6.253454,-0.844929,-16.701518
1790539100.5015,0.007879,-0.081521,-0.294046,0.009090,-0.086501,-0.294046,-1.127753,0.389298,-0.664287,-5.946830,-2.146228,-12.160609
1790539100.5157,-0.007867,-0.064031,-0.306031,-0.002780,-0.070772,-0.306031,-1.288020,1.167563,-0.664287,0.108991,0.121751,-3.855014
1790539100.5300,-0.029598,-0.043462,-0.333199,-0.021553,-0.051655,-0.333199,-1.552703,1.031579,-0.420244,1.527127,-0.287229,-0.594874
1790539100.5440,-0.039658,-0.025446,-0.337885,-0.034227,-0.033309,-0.337885,-1.319587,0.862814,-0.466382,-0.925864,0.976891,-11.927742
1790539100.5580,-0.054000,-0.009687,-0.344985,-0.048068,-0.016773,-0.344985,-1.111969,1.166349,-0.474881,-0.580912,2.166651,-14.489280
1790539100.5719,-0.032223,-0.007912,-0.335536,-0.036976,-0.010571,-0.335536,-0.212290,-1.384563,-0.155561,-4.720334,0.493551,-18.292777
1790539100.5858,-0.032327,-0.010053,-0.334811,-0.033722,-0.010208,-0.334811,0.060892,-0.296692,0.507360,3.328542,0.158931,-8.318301
1790539100.5998,-0.029351,-0.018713,-0.328428,-0.030662,-0.016162,-0.328428,0.530765,-0.527379,0.739261,2.332014,0.196111,-6.688231
1790539100.6138,-0.027335,-0.033566,-0.323615,-0.028333,-0.028345,-0.323615,1.071058,-0.252983,0.472150,0.683911,1.534591,-8.667602
1790539100.6278,-0.031087,-0.046338,-0.319868,-0.030260,-0.040940,-0.319868,0.977570,0.134328,0.609348,1.105519,2.575631,-9.870749
1790539100.6417,-0.043135,-0.056617,-0.312995,-0.039273,-0.051914,-0.312995,0.746883,0.738971,0.758688,1.297159,2.166651,-13.208511
1790539100.6556,-0.059762,-0.066372,-0.305037,-0.053615,-0.062034,-0.305037,0.738384,1.021866,1.017300,1.565455,2.278191,-9.676693
1790539100.6692,-0.071775,-0.069448,-0.296469,-0.066327,-0.067224,-0.296469,0.332860,0.798464,0.983304,0.338959,3.058971,-8.163056
1790539100.6828,-0.076702,-0.072461,-0.284787,-0.073590,-0.070890,-0.284787,0.234515,0.305522,0.982090,-0.005993,1.757671,-7.774944
1790539100.6966,-0.077037,-0.077211,-0.270117,-0.076003,-0.075315,-0.270117,0.281866,-0.001655,0.937167,-0.389272,0.939711,-9.327392
1790539100.7105,-0.072439,-0.078603,-0.254732,-0.073508,-0.077616,-0.254732,-0.045952,-0.415678,0.795112,1.143847,-0.807749,-15.498371
1790539100.7244,-0.065088,-0.073435,-0.244644,-0.067614,-0.074690,-0.244644,-0.398053,-0.731355,0.827894,4.056774,2.278191,-15.614805
1790539100.7382,-0.055028,-0.066451,-0.230221,-0.058804,-0.068923,-0.230221,-0.644524,-0.926832,0.704051,3.251886,-0.696209,-13.363756
1790539100.7521,-0.045182,-0.056508,-0.213660,-0.049269,-0.060232,-0.213660,-0.876425,-0.969327,0.731977,2.370342,-0.696209,-7.076343
1790539100.7660,-0.030740,-0.042139,-0.203377,-0.036299,-0.047567,-0.203377,-1.071902,-1.167232,0.633631,0.377287,0.456371,-4.281937
1790539100.7804,-0.024802,-0.030256,-0.191330,-0.028251,-0.035449,-0.191330,-0.943203,-0.660935,0.538928,2.025391,-0.324409,-6.300119
1790539100.7945,-0.022913,-0.023533,-0.185776,-0.024514,-0.027108,-0.185776,-0.543750,-0.204417,0.177114,1.258831,0.679451,-14.566903
1790539100.8086,-0.026161,-0.028495,-0.185854,-0.025667,-0.028079,-0.185854,0.329218,0.378371,-0.412959,-1.730752,1.497411,-15.110259
1790539100.8225,-0.018208,-0.037711,-0.191391,-0.020446,-0.034822,-0.191391,0.731099,-0.181349,-1.129303,-5.525222,3.356411,-13.674245
1790539100.8364,-0.027441,-0.050874,-0.214738,-0.025342,-0.046058,-0.214738,0.975141,0.619985,-0.978750,2.600310,1.125611,-8.046623
1790539100.8504,-0.019128,-0.051336,-0.224744,-0.020992,-0.049753,-0.224744,0.234515,-0.380468,-0.542873,-1.462456,2.575631,-5.252217
1790539100.8642,-0.008530,-0.064714,-0.224454,-0.012269,-0.060226,-0.224454,0.931432,-0.554090,-0.574440,-2.152360,0.456371,-8.784035
1790539100.8781,0.009153,-0.080538,-0.237188,0.002726,-0.074444,-0.237188,1.283533,-1.048246,-0.962966,-2.267343,3.058971,-8.551168
1790539100.8916,0.026701,-0.086610,-0.259423,0.019509,-0.082960,-0.259423,0.755382,-1.202442,-1.106235,-0.197632,4.025651,-5.329839
1790539100.9050,0.032366,-0.092579,-0.271009,0.028509,-0.089693,-0.271009,0.557476,-0.609941,-0.856121,2.446998,1.980751,-5.756762
1790539100.9189,0.027572,-0.106504,-0.283126,0.027853,-0.101461,-0.283126,0.942359,0.375943,-0.937469,0.492271,0.605091,-16.468651
1790539100.9329,0.015742,-0.108501,-0.292460,0.019375,-0.106389,-0.292460,0.085175,0.932020,-0.721352,-1.500784,0.196111,-18.680889
1790539100.9467,0.005945,-0.104984,-0.297769,0.009974,-0.105406,-0.297769,-0.377413,0.850672,-0.722566,-2.420655,-1.588528,-14.722147
1790539100.9606,0.003214,-0.100846,-0.299812,0.005242,-0.102214,-0.299812,-0.461189,0.464575,-0.711638,-3.302199,-1.662888,-8.395923
1790539100.9744,-0.007401,-0.085590,-0.306252,-0.003608,-0.090577,-0.306252,-1.177533,1.031579,-0.665501,-1.654096,-0.175689,-4.553616
1790539100.9884,-0.013659,-0.067674,-0.312276,-0.010644,-0.074545,-0.312276,-1.351155,0.623628,-0.546515,-1.270816,-0.026969,-6.649420
1790539101.0024,-0.027791,-0.046826,-0.319735,-0.022647,-0.055142,-0.319735,-1.523563,1.112927,-0.476095,-0.312616,0.419191,-6.921098
1790539101.0166,-0.036898,-0.026000,-0.325004,-0.032622,-0.034742,-0.325004,-1.586699,0.874955,-0.439671,-2.190688,-0.770569,-8.434735
1790539101.0313,-0.048532,-0.007319,-0.330488,-0.043759,-0.015546,-0.330488,-1.370581,1.010939,-0.368036,-2.458983,-0.547489,-10.763406
1790539101.0454,-0.035264,-0.007437,-0.330716,-0.037813,-0.009869,-0.330716,-0.185579,-0.816345,-0.077856,-4.107087,-3.484708,-21.281238
1790539101.0593,-0.030447,-0.013639,-0.324403,-0.032656,-0.012508,-0.324403,0.353501,-0.505524,0.674912,1.412143,0.642271,-16.080539
1790539101.0732,-0.025975,-0.015025,-0.306629,-0.027979,-0.014270,-0.306629,0.153167,-0.431462,0.949308,-0.504256,2.426911,-8.434735
1790539101.0870,-0.024024,-0.018686,-0.296084,-0.025210,-0.017362,-0.296084,0.524695,-0.193490,0.457580,-0.120976,3.579491,-5.135783
1790539101.1009,-0.036152,-0.027657,-0.301511,-0.032869,-0.024568,-0.301511,0.722600,0.547137,0.489148,4.133430,2.426911,-7.852567
1790539101.1149,-0.050168,-0.037484,-0.298201,-0.044979,-0.033609,-0.298201,0.779664,0.819105,0.534071,2.255358,2.947431,-9.482637
1790539101.1286,-0.069329,-0.043803,-0.291605,-0.062024,-0.040745,-0.291605,0.569618,1.264695,0.736833,1.143847,2.687171,-7.309210
1790539101.1422,-0.073530,-0.049040,-0.280180,-0.070078,-0.046551,-0.280180,0.371713,0.290953,0.819395,-0.849208,2.129471,-11.306763
1790539101.1562,-0.077659,-0.053024,-0.268853,-0.075385,-0.051082,-0.268853,0.260012,0.236316,0.813324,0.032335,1.423051,-8.434735
1790539101.1701,-0.078430,-0.055899,-0.258083,-0.077516,-0.054454,-0.258083,0.184735,-0.050221,0.764758,0.952207,1.757671,-10.181238
1790539101.1840,-0.064308,-0.055231,-0.246892,-0.068271,-0.054998,-0.246892,0.015969,-1.087099,0.642130,0.415615,3.430771,-10.879840
1790539101.1981,-0.054420,-0.045475,-0.237537,-0.058575,-0.048332,-0.237537,-0.697947,-0.903763,0.544999,3.175230,2.203831,-12.044175
1790539101.2120,-0.045290,-0.033561,-0.227895,-0.049276,-0.037993,-0.227895,-0.950488,-0.936545,0.563211,4.325070,0.233291,-11.267951
1790539101.2260,-0.032706,-0.020669,-0.221753,-0.037677,-0.025866,-0.221753,-1.000268,-1.195157,0.293671,4.171758,0.344831,-9.133336
1790539101.2400,-0.019302,-0.005891,-0.221361,-0.024814,-0.011884,-0.221361,-0.910421,-1.124737,0.240249,1.143847,2.315371,-5.096972
1790539101.2539,-0.025245,-0.005383,-0.220824,-0.025116,-0.007333,-0.220824,-0.048381,0.299452,0.004705,2.523654,1.571771,-10.452916
1790539101.2682,-0.031051,-0.014184,-0.231525,-0.029270,-0.012129,-0.231525,0.637610,0.525282,-0.638790,0.147319,2.761531,-15.537182
1790539101.2848,-0.020361,-0.022514,-0.253445,-0.023034,-0.019398,-0.253445,0.523480,-0.375611,-1.379417,-1.500784,2.129471,-14.295224
1790539101.2991,-0.029128,-0.029660,-0.271205,-0.027300,-0.026582,-0.271205,0.531979,0.660052,-1.194867,2.293686,1.460231,-8.667602
1790539101.3134,-0.020586,-0.033955,-0.282927,-0.022600,-0.031743,-0.282927,0.332860,-0.358613,-0.727422,-1.654096,1.311511,-7.270399
1790539101.3281,-0.009797,-0.045885,-0.294510,-0.013638,-0.041643,-0.294510,0.788163,-0.528593,-0.884047,-1.500784,0.753811,-9.521448
1790539101.3422,0.004128,-0.055544,-0.316729,-0.001202,-0.051374,-0.316729,0.861012,-0.728927,-1.258002,-1.692424,3.467951,-7.658511
1790539101.3556,0.015214,-0.061496,-0.335972,0.010289,-0.058460,-0.335972,0.550192,-0.693716,-1.391558,0.108991,2.612811,-7.891378
1790539101.3694,0.014801,-0.067156,-0.348536,0.013448,-0.064547,-0.348536,0.445775,0.006844,-1.188796,1.833751,1.720491,-7.697322
1790539101.3834,0.006814,-0.074144,-0.364768,0.008804,-0.071265,-0.364768,0.438490,0.723187,-1.103806,-1.347472,0.716631,-19.185434
1790539101.3975,-0.001666,-0.070048,-0.379294,0.001475,-0.070413,-0.379294,-0.360415,0.789965,-0.905901,-2.688951,0.121751,-17.438931
1790539101.4115,-0.005266,-0.064469,-0.390238,-0.003244,-0.066252,-0.390238,-0.561963,0.497357,-0.792986,-3.263871,-2.071868,-12.277042
1790539101.4254,-0.007355,-0.052919,-0.403665,-0.006122,-0.056919,-0.403665,-0.897066,0.582347,-0.766275,-2.343999,-0.026969,-3.505713
1790539101.4393,-0.012721,-0.036267,-0.416627,-0.010741,-0.042463,-0.416627,-1.271022,0.681907,-0.728636,-2.267343,0.047391,-6.804665
1790539101.4533,-0.025492,-0.021091,-0.431694,-0.021067,-0.027502,-0.431694,-1.201816,1.156636,-0.750491,-0.925864,-0.287229,-5.019350
1790539101.4672,-0.034885,-0.007102,-0.443960,-0.030740,-0.013222,-0.443960,-1.052476,1.054648,-0.809984,-3.493839,0.382011,-8.939280
1790539101.4811,-0.031348,0.003600,-0.449827,-0.031166,-0.001446,-0.449827,-0.767153,-0.161922,-0.436028,-0.082648,1.608951,-9.793126
1790539101.4951,-0.021185,-0.006681,-0.449910,-0.024179,-0.005111,-0.449910,0.541693,-0.747139,0.316740,-1.462456,-3.001368,-21.048371
1790539101.5090,-0.027549,-0.013072,-0.438011,-0.026538,-0.010684,-0.438011,0.432420,0.339518,0.918954,-0.235960,1.125611,-7.891378
1790539101.5230,-0.015932,-0.024736,-0.421869,-0.019114,-0.020521,-0.421869,0.722600,-0.668219,0.648201,-3.072231,-0.250049,-6.261308
1790539101.5374,-0.020684,-0.034725,-0.409928,-0.020213,-0.030463,-0.409928,0.751739,0.468218,0.249962,-1.769080,1.460231,-6.028441
1790539101.5514,-0.038028,-0.046472,-0.407515,-0.032684,-0.041669,-0.407515,0.840371,1.108070,0.429655,2.293686,1.720491,-12.742777
1790539101.5653,-0.050777,-0.059390,-0.394065,-0.045349,-0.054073,-0.394065,0.986069,0.843387,0.685839,0.415615,2.835891,-11.539630
1790539101.5788,-0.071210,-0.065478,-0.376302,-0.063451,-0.062057,-0.376302,0.573260,1.358184,0.823037,1.718767,3.244871,-8.745224
1790539101.5924,-0.079285,-0.071749,-0.361347,-0.074535,-0.068841,-0.361347,0.489484,0.600559,0.838821,-0.695896,1.980751,-8.473546
1790539101.6060,-0.080456,-0.082425,-0.351177,-0.078680,-0.078350,-0.351177,0.739598,0.082120,0.745332,-0.312616,0.865351,-7.969000
1790539101.6199,-0.072090,-0.087689,-0.341824,-0.074067,-0.084888,-0.341824,0.311006,-0.582015,0.744118,-1.117504,0.939711,-13.713056
1790539101.6333,-0.061246,-0.084344,-0.334310,-0.065092,-0.084507,-0.334310,-0.332490,-0.931688,0.679768,2.025391,0.456371,-14.178791
1790539101.6463,-0.050588,-0.081300,-0.329364,-0.054939,-0.082262,-0.329364,-0.373771,-1.105311,0.852177,4.401726,-0.659029,-12.082986
1790539101.6592,-0.044569,-0.075131,-0.327240,-0.047680,-0.077270,-0.327240,-0.634811,-0.833343,0.769615,5.321597,-1.142369,-9.870749
1790539101.6726,-0.038971,-0.065222,-0.323610,-0.041584,-0.068837,-0.323610,-0.872783,-0.764137,0.602063,3.826806,-0.659029,-7.192776
1790539101.6864,-0.035140,-0.051781,-0.321696,-0.037073,-0.056898,-0.321696,-1.118040,-0.574731,0.372590,3.903462,-1.030829,-8.046623
1790539101.7005,-0.030615,-0.034139,-0.320769,-0.032552,-0.040966,-0.320769,-1.292876,-0.575945,0.189255,3.711822,0.679451,-8.628791
1790539101.7146,-0.019283,-0.014828,-0.322078,-0.023264,-0.022669,-0.322078,-1.400935,-0.998466,-0.079070,2.830278,0.902531,-8.007811
1790539101.7285,-0.016414,0.004442,-0.325768,-0.018469,-0.003691,-0.325768,-1.357226,-0.374397,-0.126422,2.906934,2.092291,-8.745224
1790539101.7425,-0.029601,-0.004275,-0.332736,-0.026262,-0.004100,-0.332736,0.484628,0.997583,-0.663073,3.021918,-1.625708,-20.427392
1790539101.7563,-0.020292,-0.018396,-0.330488,-0.022083,-0.014108,-0.330488,1.066202,-0.120641,-1.256788,-5.371910,1.646131,-7.891378
1790539101.7702,-0.026102,-0.013777,-0.355222,-0.024896,-0.013876,-0.355222,0.139811,0.252100,-0.648503,2.561982,4.657711,-1.914455
1790539101.7846,-0.032430,-0.023693,-0.362609,-0.030170,-0.020748,-0.362609,0.672820,0.430579,-0.540444,1.182175,0.605091,-5.989630
1790539101.7988,-0.012998,-0.041455,-0.369805,-0.018150,-0.035243,-0.369805,1.262893,-1.053103,-0.850051,-4.222071,1.646131,-11.656063
1790539101.8126,-0.000547,-0.058203,-0.383135,-0.005828,-0.051315,-0.383135,1.251966,-0.770207,-1.028530,-0.312616,1.869211,-10.569350
1790539101.8265,0.011020,-0.065411,-0.398488,0.005966,-0.061182,-0.398488,0.710458,-0.753209,-1.040671,0.262303,2.947431,-5.989630
1790539101.8405,0.020701,-0.074507,-0.410507,0.016281,-0.070510,-0.410507,0.652179,-0.676718,-1.007889,0.837223,1.051251,-7.503266
1790539101.8547,0.018044,-0.080395,-0.423095,0.017515,-0.077430,-0.423095,0.522266,0.216890,-0.737135,0.453943,3.058971,-9.443825
1790539101.8686,-0.004346,-0.076819,-0.432491,0.002212,-0.077002,-0.432491,-0.245072,1.575515,-0.688570,2.791950,2.315371,-16.313406
1790539101.8825,-0.012666,-0.058726,-0.443637,-0.008202,-0.064209,-0.443637,-1.380294,0.924735,-0.670358,-6.905029,-0.361589,-15.692427
1790539101.8963,-0.017268,-0.041426,-0.455546,-0.014548,-0.048261,-0.455546,-1.326872,0.672193,-0.755348,-4.758662,-0.064149,-11.539630
1790539101.9102,-0.029412,-0.024282,-0.466392,-0.024953,-0.031476,-0.466392,-1.322016,1.162707,-0.603580,-1.999048,-0.212869,-6.300119
1790539101.9241,-0.050707,-0.008884,-0.474073,-0.042981,-0.015662,-0.474073,-0.899494,1.593727,-0.575655,0.453943,1.720491,-3.350469
1790539101.9380,-0.059444,0.001467,-0.486488,-0.054505,-0.003672,-0.486488,-0.815718,0.904095,-0.568370,-1.500784,0.010211,-6.649420
1790539101.9519,-0.049533,-0.004653,-0.491784,-0.051024,-0.004359,-0.491784,0.341359,-0.606298,-0.363180,-0.887536,-0.212869,-20.466203
1790539101.9658,-0.042347,-0.009266,-0.482235,-0.044950,-0.007794,-0.482235,0.412993,-0.721642,0.282744,3.481854,3.988471,-11.811308
1790539101.9796,-0.046045,-0.016547,-0.469798,-0.045716,-0.013921,-0.469798,0.484628,0.021413,0.792684,1.948735,1.088431,-8.163056
1790539101.9936,-0.041243,-0.027950,-0.456039,-0.042585,-0.023742,-0.456039,0.709244,-0.497025,0.906813,0.415615,0.270471,-8.163056
1790539102.0075,-0.049561,-0.042655,-0.448864,-0.047468,-0.036981,-0.448864,1.041919,0.517997,0.592350,0.492271,1.423051,-10.414105
1790539102.0214,-0.065268,-0.054678,-0.437332,-0.059928,-0.049369,-0.437332,0.881652,0.957517,0.910455,1.718767,2.055111,-9.793126
1790539102.0357,-0.075952,-0.068433,-0.425892,-0.071145,-0.062714,-0.425892,0.973927,0.755969,0.954165,-0.925864,1.646131,-7.464455
1790539102.0498,-0.089920,-0.074997,-0.411307,-0.084288,-0.071312,-0.411307,0.607256,0.888311,0.989375,0.607255,3.170511,-6.455364
1790539102.0635,-0.089459,-0.078387,-0.402320,-0.087908,-0.076264,-0.402320,0.315862,0.071193,0.931096,-2.037376,2.761531,-7.774944
1790539102.0776,-0.078620,-0.079985,-0.385897,-0.081406,-0.078869,-0.385897,0.028110,-0.852769,1.136286,0.338959,1.311511,-12.199420
1790539102.0915,-0.071835,-0.076196,-0.370783,-0.074707,-0.076998,-0.370783,-0.373771,-0.592943,1.063437,0.913879,0.828171,-14.916203
1790539102.1054,-0.064978,-0.074853,-0.353696,-0.067896,-0.075496,-0.353696,-0.300922,-0.663363,1.114431,1.565455,-1.328269,-10.569350
1790539102.1195,-0.058588,-0.068941,-0.333264,-0.061380,-0.070907,-0.333264,-0.578961,-0.726498,1.093791,2.561982,-0.510309,-8.085434
1790539102.1333,-0.054892,-0.060060,-0.316202,-0.056839,-0.063314,-0.316202,-0.806005,-0.509167,0.957807,2.255358,-0.696209,-8.318301
1790539102.1471,-0.047475,-0.050276,-0.303747,-0.050284,-0.054187,-0.303747,-0.883710,-0.662149,0.702837,0.990535,-1.142369,-10.142427
1790539102.1609,-0.040406,-0.037416,-0.298679,-0.043370,-0.042447,-0.298679,-1.019694,-0.560161,0.235392,0.530599,0.084571,-9.987182
1790539102.1748,-0.031087,-0.019966,-0.297548,-0.034772,-0.026710,-0.297548,-1.352369,-0.794490,-0.082713,2.293686,0.047391,-9.948371
1790539102.1886,-0.027385,-0.007713,-0.299684,-0.029601,-0.013412,-0.299684,-1.009981,-0.322189,-0.315828,2.561982,-0.659029,-13.674245
1790539102.2027,-0.038813,-0.013493,-0.310974,-0.036049,-0.013469,-0.310974,0.388711,1.029151,-0.797843,-1.270816,1.199971,-14.139979
1790539102.2165,-0.039356,-0.021543,-0.327772,-0.038364,-0.019121,-0.327772,0.597543,0.372300,-1.336922,-2.382327,1.571771,-14.256413
1790539102.2305,-0.041477,-0.014708,-0.343493,-0.040543,-0.016032,-0.343493,-0.219575,0.317664,-0.794200,-0.159304,2.464091,-3.816203
1790539102.2444,-0.041212,-0.021384,-0.351546,-0.041012,-0.019779,-0.351546,0.402066,0.252100,-0.630291,-2.842263,-0.212869,-11.151518
1790539102.2583,-0.028163,-0.036265,-0.359807,-0.032017,-0.031319,-0.359807,1.017636,-0.697359,-0.766275,-2.688951,0.344831,-13.092077
1790539102.2720,-0.014415,-0.042194,-0.368564,-0.019696,-0.038931,-0.368564,0.613327,-0.648793,-0.958109,-2.842263,2.873071,-6.338930
1790539102.2855,-0.011330,-0.047075,-0.378867,-0.013840,-0.044632,-0.378867,0.470058,-0.158280,-0.924113,0.798895,2.910251,-9.443825
1790539102.3004,0.001794,-0.056060,-0.392074,-0.002896,-0.052632,-0.392074,0.589044,-0.721642,-0.949610,-0.849208,0.828171,-8.551168
1790539102.3144,0.008916,-0.067323,-0.401656,0.005372,-0.062915,-0.401656,0.853727,-0.444817,-0.835481,0.338959,2.203831,-10.064805
1790539102.3284,-0.001219,-0.074275,-0.414199,0.000759,-0.070867,-0.414199,0.440919,0.746256,-0.760204,1.642111,0.382011,-16.623896
1790539102.3423,-0.016379,-0.058554,-0.424662,-0.011237,-0.062248,-0.424662,-1.124110,1.293834,-0.545301,-4.030431,2.166651,-17.594175
1790539102.3562,-0.023354,-0.041936,-0.439509,-0.019719,-0.048030,-0.439509,-1.294090,0.791179,-0.619364,-3.417183,-0.510309,-9.948371
1790539102.3700,-0.034146,-0.025883,-0.457967,-0.029818,-0.032527,-0.457967,-1.343870,1.065575,-0.638790,-1.500784,-0.993649,-5.019350
1790539102.3839,-0.049942,-0.011366,-0.471606,-0.043905,-0.017714,-0.471606,-1.084044,1.139638,-0.501592,0.683911,0.233291,-3.544525
1790539102.3979,-0.048159,-0.008324,-0.476040,-0.046883,-0.011141,-0.476040,-0.224431,0.163468,-0.584154,-3.187215,1.162791,-10.841028
1790539102.4119,-0.039430,-0.021821,-0.477359,-0.041666,-0.018617,-0.477359,0.935075,-0.674290,-0.017149,1.220503,1.274331,-12.354665
1790539102.4258,-0.052706,-0.023769,-0.459818,-0.049394,-0.022223,-0.459818,0.317076,0.609058,0.848534,5.321597,5.921830,-10.258860
1790539102.4397,-0.049430,-0.033790,-0.446098,-0.049419,-0.030320,-0.446098,0.638824,-0.514023,1.104718,2.523654,0.939711,-10.996273
1790539102.4536,-0.049372,-0.047590,-0.429525,-0.049386,-0.042409,-0.429525,0.967856,-0.102429,1.093791,-0.350944,1.423051,-8.706413
1790539102.4676,-0.052975,-0.058004,-0.420862,-0.051898,-0.053326,-0.420862,0.630325,0.309165,0.736833,-1.807408,-0.212869,-9.366203
1790539102.4814,-0.070740,-0.072745,-0.410588,-0.065088,-0.066919,-0.410588,0.979998,1.135996,1.027013,1.565455,0.493551,-11.927742
1790539102.4953,-0.077132,-0.090059,-0.392623,-0.073518,-0.083117,-0.392623,1.238610,0.422080,1.101076,-0.350944,1.980751,-11.073895
1790539102.5089,-0.092898,-0.095151,-0.370203,-0.087084,-0.091541,-0.370203,0.495555,0.962373,1.194565,2.102047,3.505131,-7.736133
1790539102.5224,-0.093160,-0.100642,-0.351614,-0.091337,-0.097912,-0.351614,0.433634,0.072407,1.133858,-1.270816,2.389731,-8.512357
1790539102.5365,-0.082565,-0.100813,-0.332451,-0.085197,-0.099943,-0.332451,-0.061736,-0.841842,1.212777,0.760567,1.237151,-10.336483
1790539102.5511,-0.076452,-0.094992,-0.320504,-0.079076,-0.096477,-0.320504,-0.542536,-0.531021,0.986946,1.642111,-0.547489,-12.859210
1790539102.5651,-0.070837,-0.093389,-0.312525,-0.073309,-0.094315,-0.312525,-0.354344,-0.635438,1.047653,3.673494,-2.480848,-11.578441
1790539102.5791,-0.063339,-0.088580,-0.304177,-0.066330,-0.090301,-0.304177,-0.498827,-0.760494,0.813324,3.673494,-1.105189,-11.345574
1790539102.5931,-0.047803,-0.076849,-0.294314,-0.053361,-0.080884,-0.294314,-0.932276,-1.305644,0.742904,1.603783,0.010211,-6.377742
1790539102.6070,-0.044498,-0.062762,-0.289986,-0.047157,-0.068199,-0.289986,-1.114397,-0.566232,0.466079,3.711822,-0.287229,-6.688231
1790539102.6209,-0.003192,-0.037198,-0.273088,-0.016381,-0.046498,-0.273088,-1.873236,-2.416584,-0.544087,-19.246640,0.196111,-12.354665
1790539102.6350,0.010625,-0.028404,-0.294870,0.002523,-0.033832,-0.294870,-0.752583,-0.986325,-1.119590,1.757095,-0.361589,-7.231588
1790539102.6488,0.020423,-0.018333,-0.315778,0.015053,-0.022983,-0.315778,-0.878854,-0.879480,-0.822125,3.788478,-0.659029,-7.852567
1790539102.6626,0.025618,-0.003716,-0.332196,0.022448,-0.009496,-0.332196,-1.059761,-0.397466,-0.908329,1.795423,1.608951,-7.348021
1790539102.6765,0.012721,-0.012186,-0.354534,0.015639,-0.011379,-0.354534,0.460345,1.244054,-1.607675,-1.270816,0.010211,-17.012007
1790539102.6903,0.002748,-0.030493,-0.377707,0.006616,-0.024759,-0.377707,1.287176,1.018224,-1.642885,-0.925864,1.869211,-15.071448
1790539102.7041,0.008234,-0.035568,-0.388274,0.007749,-0.032325,-0.388274,0.602400,-0.057506,-1.299283,-2.650623,5.178231,-7.852567
1790539102.7182,0.008519,-0.048384,-0.400940,0.008288,-0.043566,-0.400940,0.871939,0.090619,-0.882832,-0.044320,0.716631,-8.395923
1790539102.7317,0.021230,-0.062308,-0.405381,0.017347,-0.056685,-0.405381,1.136622,-0.663363,-0.789344,-2.995575,2.612811,-8.085434
1790539102.7453,0.033986,-0.079358,-0.411969,0.028994,-0.072556,-0.411969,1.273820,-0.839414,-0.652145,-0.925864,1.571771,-9.443825
1790539102.7594,0.045237,-0.098751,-0.417660,0.040364,-0.090893,-0.417660,1.567643,-0.904977,-0.471238,1.718767,3.802571,-8.007811
1790539102.7737,0.031020,-0.111531,-0.422463,0.033824,-0.105339,-0.422463,0.800305,0.936876,-0.219911,1.258831,-1.030829,-14.411658
1790539102.7876,0.019444,-0.108596,-0.425901,0.023758,-0.107619,-0.425901,-0.285138,0.881026,-0.200485,-1.539112,-0.770569,-18.176343
1790539102.8022,0.017666,-0.095312,-0.425579,0.019494,-0.099004,-0.425579,-1.064617,0.294595,-0.008650,-3.455511,-2.109048,-9.987182
1790539102.8162,0.010299,-0.076959,-0.425885,0.013057,-0.083572,-0.425885,-1.464070,0.870099,-0.131279,-3.148887,-0.919289,-4.631238
1790539102.8302,-0.007197,-0.058788,-0.451889,-0.001121,-0.066224,-0.451889,-1.659547,1.104428,-0.207769,1.028863,-1.885968,-3.117602
1790539102.8441,-0.012173,-0.038909,-0.440809,-0.008857,-0.047103,-0.440809,-1.536919,0.662480,-0.261192,-1.539112,-0.250049,-3.272846
1790539102.8580,-0.025876,-0.023685,-0.445786,-0.020770,-0.030711,-0.445786,-1.206672,1.036436,-0.041432,-0.274288,-0.212869,-8.512357
1790539102.8720,-0.027103,-0.015523,-0.449068,-0.025203,-0.020080,-0.449068,-0.684591,0.164682,-0.156775,-1.424128,-0.361589,-21.281238
1790539102.8859,-0.020601,-0.029564,-0.453822,-0.021982,-0.026719,-0.453822,0.892580,-0.589300,0.253605,2.102047,-0.584669,-16.313406
1790539102.9015,-0.019659,-0.024370,-0.439773,-0.020356,-0.025074,-0.439773,-0.086019,-0.335545,0.735619,2.370342,4.434631,-5.640329
1790539102.9155,-0.014589,-0.024963,-0.435711,-0.016319,-0.024996,-0.435711,0.013541,-0.681575,0.884958,2.140375,0.790991,-6.882287
1790539102.9296,-0.014006,-0.036356,-0.434199,-0.014700,-0.032948,-0.434199,0.830658,-0.437532,0.768401,2.178703,0.753811,-4.087881
1790539102.9436,-0.026085,-0.044716,-0.431461,-0.022669,-0.041185,-0.431461,0.688604,0.640626,0.639702,3.290214,3.691031,-12.160609
1790539102.9570,-0.037979,-0.050078,-0.424154,-0.033386,-0.047410,-0.424154,0.491913,0.793608,0.673698,0.568927,3.393591,-11.190329
1790539102.9706,-0.044391,-0.053115,-0.413220,-0.041090,-0.051403,-0.413220,0.375355,0.384442,0.721049,0.338959,3.542311,-8.240679
1790539102.9842,-0.049648,-0.049960,-0.403087,-0.047080,-0.050393,-0.403087,-0.069021,0.247244,0.713764,1.335487,4.434631,-9.521448
1790539102.9983,-0.051558,-0.049016,-0.394875,-0.050215,-0.049429,-0.394875,0.007470,-0.040508,0.656700,1.795423,2.612811,-8.473546
1790539103.0122,-0.041554,-0.046911,-0.386853,-0.044152,-0.047667,-0.386853,-0.111516,-0.821201,0.547427,0.952207,2.724351,-11.462007
1790539103.0262,-0.031268,-0.039710,-0.379403,-0.035133,-0.042097,-0.379403,-0.490328,-0.889193,0.458795,2.063719,2.464091,-12.044175
1790539103.0407,-0.020160,-0.027830,-0.367781,-0.024652,-0.032110,-0.367781,-0.830288,-1.023963,0.467294,2.868606,1.311511,-8.512357
1790539103.0553,-0.011134,-0.015562,-0.358197,-0.015190,-0.020527,-0.358197,-0.840001,-0.834557,0.432083,1.948735,1.199971,-7.425644
1790539103.0694,0.004418,-0.008815,-0.344301,-0.001464,-0.012329,-0.344301,-0.561963,-1.402775,-0.416602,5.359925,0.121751,-7.619700
1790539103.0834,0.009198,-0.015474,-0.351550,0.005999,-0.014531,-0.351550,0.361999,-0.178920,-1.043099,-0.120976,0.010211,-13.247322
1790539103.0973,-0.005896,-0.027943,-0.371693,-0.002328,-0.023920,-0.371693,0.871939,1.075289,-1.169370,3.328542,1.237151,-9.521448
1790539103.1114,0.002298,-0.028766,-0.396311,0.000910,-0.027312,-0.396311,0.121599,-0.340401,-1.472906,-0.657568,2.687171,-10.025993
1790539103.1252,0.002186,-0.036869,-0.410578,0.001803,-0.034002,-0.410578,0.479771,0.181680,-1.487475,0.798895,-0.026969,-14.256413
1790539103.1390,0.006691,-0.045501,-0.427611,0.005224,-0.042051,-0.427611,0.573260,-0.061148,-1.495974,-1.462456,0.939711,-11.927742
1790539103.1531,0.018568,-0.050854,-0.445864,0.014565,-0.048213,-0.445864,0.414208,-0.668219,-1.156014,-0.734224,1.720491,-7.969000
1790539103.1669,0.027764,-0.057605,-0.467035,0.023804,-0.054788,-0.467035,0.561119,-0.506739,-1.117162,-0.695896,2.426911,-8.240679
1790539103.1807,0.034999,-0.066611,-0.487478,0.031640,-0.063064,-0.487478,0.701959,-0.319761,-1.145087,-1.424128,2.092291,-7.969000
1790539103.1944,0.043603,-0.076657,-0.500546,0.040014,-0.072579,-0.500546,0.726242,-0.583230,-0.913186,0.185647,1.423051,-9.560259
1790539103.2080,0.046809,-0.085048,-0.513538,0.044771,-0.081308,-0.513538,0.652179,-0.223843,-0.711638,0.300631,1.832031,-8.706413
1790539103.2222,0.036738,-0.088613,-0.524242,0.039148,-0.086422,-0.524242,0.290365,0.723187,-0.449384,0.070663,2.538451,-13.092077
1790539103.2360,0.021516,-0.089478,-0.524762,0.026806,-0.088561,-0.524762,-0.010742,1.154208,-0.218697,-1.270816,-0.175689,-14.993826
1790539103.2501,0.010845,-0.085450,-0.518563,0.015634,-0.086383,-0.518563,-0.427193,0.900452,-0.172559,-3.033903,-1.774428,-13.169700
1790539103.2640,-0.001847,-0.076822,-0.512009,0.003397,-0.079690,-0.512009,-0.780508,1.109285,-0.177416,-2.037376,-1.105189,-6.649420
1790539103.2779,-0.009802,-0.068643,-0.505565,-0.005842,-0.071957,-0.505565,-0.775652,0.649125,-0.138563,-0.542584,-1.142369,-5.485084
1790539103.2919,-0.013526,-0.060097,-0.498908,-0.011221,-0.063655,-0.498908,-0.774437,0.422080,-0.051145,-1.500784,-0.993649,-6.144874
1790539103.3064,-0.013188,-0.051292,-0.492173,-0.012598,-0.055001,-0.492173,-0.725872,0.124615,0.066627,-2.190688,-0.696209,-8.163056
1790539103.3203,-0.020789,-0.038264,-0.488546,-0.018332,-0.043285,-0.488546,-1.064617,0.612700,0.078768,-1.155832,-0.844929,-11.073895
1790539103.3343,-0.021175,-0.025955,-0.483716,-0.020322,-0.031154,-0.483716,-0.915278,0.062694,0.169829,-0.734224,0.828171,-8.784035
1790539103.3486,-0.003841,-0.033073,-0.477876,-0.008785,-0.032497,-0.477876,0.381426,-1.373636,0.479435,1.987063,-0.844929,-15.692427
1790539103.3640,-0.003999,-0.043229,-0.469642,-0.005435,-0.040010,-0.469642,0.630325,-0.220201,0.911670,1.872079,0.716631,-10.181238
1790539103.3785,-0.011363,-0.048874,-0.465181,-0.009584,-0.046215,-0.465181,0.359571,0.401440,0.500075,0.415615,0.344831,-4.941727
1790539103.3928,-0.023958,-0.058654,-0.465945,-0.019646,-0.054923,-0.465945,0.615755,0.721973,0.396873,1.373815,0.047391,-6.765853
1790539103.4074,-0.041525,-0.072023,-0.464053,-0.034962,-0.066893,-0.464053,0.896222,1.155422,0.320382,0.837223,0.716631,-10.608161
1790539103.4216,-0.056120,-0.085056,-0.462825,-0.049773,-0.079607,-0.462825,0.937503,0.957517,0.401730,1.297159,1.906391,-12.820399
1790539103.4351,-0.062876,-0.093600,-0.462311,-0.058945,-0.089402,-0.462311,0.750525,0.470646,0.440582,0.492271,3.616671,-11.656063
1790539103.4490,-0.059039,-0.097447,-0.460420,-0.059010,-0.095034,-0.460420,0.359571,-0.308833,0.385946,0.645583,3.133331,-12.393476
1790539103.4630,-0.053671,-0.102790,-0.458346,-0.055272,-0.100463,-0.458346,0.331646,-0.555304,0.411443,2.370342,0.158931,-8.473546
1790539103.4769,-0.050123,-0.102520,-0.459919,-0.051668,-0.101903,-0.459919,-0.004671,-0.487312,0.468508,3.481854,1.162791,-9.016902
1790539103.4908,-0.044794,-0.099730,-0.453360,-0.046856,-0.100382,-0.453360,-0.299708,-0.569874,0.421156,3.213558,-0.696209,-10.685784
1790539103.5048,-0.044791,-0.096442,-0.446530,-0.045411,-0.097624,-0.446530,-0.377413,-0.192276,0.220823,3.826806,-1.737248,-10.996273
1790539103.5187,-0.041024,-0.086324,-0.445356,-0.042340,-0.089714,-0.445356,-0.835145,-0.432676,-0.008650,3.328542,-0.956469,-10.841028
1790539103.5325,-0.037026,-0.072615,-0.446373,-0.038620,-0.077745,-0.446373,-1.118040,-0.505524,-0.150705,3.558510,-1.068009,-8.085434
1790539103.5468,-0.028177,-0.053497,-0.454335,-0.031310,-0.060772,-0.454335,-1.375438,-0.766565,-0.267262,2.255358,0.270471,-7.037532
1790539103.5615,-0.012445,-0.030230,-0.461112,-0.018105,-0.039392,-0.461112,-1.623123,-1.207299,-0.312186,1.795423,0.382011,-5.950818
1790539103.5756,0.002509,-0.008663,-0.466954,-0.003675,-0.017882,-0.466954,-1.580628,-1.230367,-0.298830,2.178703,0.530731,-6.610609
1790539103.5895,-0.021068,-0.014328,-0.461569,-0.015850,-0.015394,-0.461569,0.193234,1.656863,-0.692212,6.816388,-3.670608,-20.582637
1790539103.6035,-0.027842,-0.027403,-0.455548,-0.024245,-0.023800,-0.455548,0.880438,0.902880,-1.202152,-4.835318,0.753811,-14.450469
1790539103.6174,-0.018531,-0.018864,-0.515879,-0.020245,-0.020345,-0.515879,-0.322777,-0.662149,-1.242219,2.332014,4.732071,-7.736133
1790539103.6312,-0.020487,-0.018610,-0.524786,-0.020414,-0.019130,-0.524786,0.029325,0.403868,-0.848836,-1.347472,1.534591,-6.727042
1790539103.6452,-0.008920,-0.028169,-0.515713,-0.012368,-0.025457,-0.515713,0.652179,-0.556518,-0.572012,-3.838791,1.348691,-12.082986
1790539103.6588,0.007713,-0.034378,-0.534041,0.001688,-0.031702,-0.534041,0.670392,-0.962042,-0.682499,-2.037376,3.133331,-5.756762
1790539103.6724,0.012529,-0.039444,-0.556187,0.009277,-0.037121,-0.556187,0.528337,-0.325831,-0.575655,0.377287,3.096151,-7.813756
1790539103.6863,0.020951,-0.046396,-0.569888,0.017449,-0.043613,-0.569888,0.562333,-0.509167,-0.614507,-0.580912,2.278191,-9.016902
1790539103.7001,0.027382,-0.053740,-0.584845,0.024402,-0.050702,-0.584845,0.586616,-0.421749,-0.643646,0.147319,2.203831,-9.327392
1790539103.7139,0.016209,-0.057394,-0.593854,0.018667,-0.055387,-0.593854,0.219945,0.813034,-0.675214,1.718767,1.274331,-15.032637
1790539103.7277,0.003597,-0.040342,-0.605726,0.008118,-0.044855,-0.605726,-1.125325,1.071646,-0.329184,-3.340527,5.289771,-16.041728
1790539103.7416,-0.002952,-0.026941,-0.586822,0.000369,-0.032315,-0.586822,-1.091329,0.765682,-0.319471,-4.605350,-0.361589,-10.918651
1790539103.7553,-0.023838,-0.012062,-0.586170,-0.016576,-0.018138,-0.586170,-1.160535,1.661719,-0.342539,-0.772552,0.270471,-7.697322
1790539103.7691,-0.028400,0.000083,-0.573446,-0.024853,-0.005384,-0.573446,-0.963844,0.673408,-0.283046,-2.612295,0.158931,-5.368651
1790539103.7829,-0.015883,-0.001418,-0.568033,-0.018574,-0.002608,-0.568033,0.039038,-0.833343,-0.176202,-1.079176,0.790991,-12.509909
1790539103.7967,-0.015690,-0.007679,-0.575913,-0.016555,-0.006158,-0.575913,0.597543,-0.380468,0.708908,5.436581,5.103871,-11.539630
1790539103.8109,-0.023908,-0.022322,-0.566091,-0.021702,-0.017473,-0.566091,1.088056,0.230246,1.279555,3.443526,3.282051,-12.238231
1790539103.8249,-0.025400,-0.041142,-0.548778,-0.024291,-0.034041,-0.548778,1.361238,-0.223843,1.561236,1.718767,1.757671,-8.706413
1790539103.8388,-0.032014,-0.053013,-0.537877,-0.029697,-0.047322,-0.537877,0.921719,0.510712,0.955379,-1.424128,1.608951,-5.873196
1790539103.8527,-0.046393,-0.060151,-0.527692,-0.041384,-0.056302,-0.527692,0.493127,0.905309,0.888601,0.875551,1.051251,-9.055714
1790539103.8665,-0.060664,-0.070850,-0.519864,-0.054880,-0.066485,-0.519864,0.766309,0.896810,0.850962,1.450471,1.683311,-11.345574
1790539103.8801,-0.072156,-0.078570,-0.518679,-0.066973,-0.074944,-0.518679,0.683747,0.714688,0.911670,1.067191,2.873071,-7.736133
1790539103.8937,-0.075992,-0.084394,-0.515606,-0.073286,-0.081559,-0.515606,0.507697,0.241173,0.785399,0.185647,2.761531,-9.327392
1790539103.9076,-0.075383,-0.091050,-0.499783,-0.074754,-0.088203,-0.499783,0.372927,-0.114571,0.859461,0.722239,0.121751,-12.238231
1790539103.9214,-0.068901,-0.096017,-0.484147,-0.070657,-0.093673,-0.484147,0.256369,-0.518880,0.809682,0.415615,0.047391,-13.130889
1790539103.9353,-0.061479,-0.096384,-0.470368,-0.064232,-0.095570,-0.470368,-0.058094,-0.608727,0.734405,1.028863,0.196111,-13.014455
1790539103.9493,-0.054808,-0.096126,-0.441032,-0.057635,-0.095960,-0.441032,-0.237787,-0.719213,0.837607,3.635166,-2.183408,-10.181238
1790539103.9631,-0.043007,-0.093594,-0.417615,-0.047395,-0.094304,-0.417615,-0.371342,-1.034890,0.814538,1.795423,-1.291089,-7.891378
1790539103.9771,-0.036639,-0.087079,-0.400391,-0.039866,-0.089246,-0.400391,-0.699161,-0.497025,-0.150705,1.067191,-2.406488,-7.969000
1790539103.9911,-0.032618,-0.077428,-0.402102,-0.034793,-0.080974,-0.402102,-0.856999,-0.312476,-0.824554,2.140375,-2.220588,-10.336483
1790539104.0051,-0.027134,-0.065844,-0.415301,-0.029432,-0.070383,-0.415301,-0.949274,-0.408393,-1.188796,2.715294,-1.439808,-10.452916
1790539104.0190,-0.016512,-0.045376,-0.439749,-0.020388,-0.052878,-0.439749,-1.487139,-0.770207,-1.312639,2.025391,0.456371,-7.425644
1790539104.0329,-0.000842,-0.022773,-0.457170,-0.006706,-0.031804,-0.457170,-1.727539,-1.118666,-1.346635,1.872079,-0.212869,-6.416553
1790539104.0470,-0.004975,-0.008409,-0.480946,-0.005494,-0.015427,-0.480946,-1.059761,0.439078,-1.466835,1.373815,1.014071,-9.016902
1790539104.0614,-0.010122,-0.019085,-0.510654,-0.008734,-0.017988,-0.510654,0.720171,0.668551,-2.026554,0.683911,2.166651,-16.817952
1790539104.0756,-0.010232,-0.026170,-0.562316,-0.009783,-0.023715,-0.562316,0.667963,0.344375,-2.235387,-0.044320,3.579491,-8.745224
1790539104.0895,-0.001683,-0.031172,-0.592066,-0.004113,-0.028935,-0.592066,0.427563,-0.503096,-1.431625,0.837223,1.460231,-5.950818
1790539104.1034,0.008199,-0.040236,-0.599994,0.004505,-0.036845,-0.599994,0.603614,-0.371969,-1.333279,-2.497311,0.865351,-8.978091
1790539104.1169,0.025577,-0.051952,-0.623502,0.019256,-0.047420,-0.623502,0.987283,-1.005751,-1.147515,-3.072231,3.691031,-10.375294
1790539104.1305,0.036164,-0.062883,-0.646584,0.031091,-0.058244,-0.646584,0.912006,-0.550448,-1.011532,-2.420655,3.319231,-9.637881
1790539104.1444,0.027735,-0.074531,-0.663453,0.028742,-0.069645,-0.663453,0.902293,0.649125,-0.521018,-0.197632,2.910251,-11.927742
1790539104.1583,0.016923,-0.072251,-0.667314,0.020468,-0.071470,-0.667314,-0.172223,0.964802,-0.385034,-4.490366,1.980751,-16.740329
1790539104.1722,0.009969,-0.060701,-0.660916,0.013119,-0.063932,-0.660916,-0.893423,0.698905,-0.173773,-4.796990,0.493551,-15.149070
1790539104.1861,-0.000836,-0.051148,-0.648874,0.003350,-0.054983,-0.648874,-0.849714,0.887097,-0.194414,-1.309144,-1.179549,-9.521448
1790539104.1999,-0.018186,-0.034389,-0.639448,-0.011725,-0.040567,-0.639448,-1.352369,1.219771,0.065413,0.223975,-0.250049,-3.078790
1790539104.2139,-0.018962,-0.017912,-0.629384,-0.016791,-0.024708,-0.629384,-1.221242,0.434222,-0.060858,-3.838791,0.419191,-5.252217
1790539104.2278,-0.025563,-0.010886,-0.631472,-0.022932,-0.015033,-0.631472,-0.456332,0.587203,-0.026862,-1.155832,1.832031,-7.425644
1790539104.2416,-0.010838,-0.017260,-0.623000,-0.014466,-0.016592,-0.623000,0.426349,-1.030034,0.185613,-1.845736,1.534591,-14.217602
1790539104.2555,-0.016643,-0.018121,-0.625346,-0.015990,-0.017662,-0.625346,0.202947,0.107617,0.946880,3.980118,5.364131,-12.975644
1790539104.2694,-0.026893,-0.032249,-0.605718,-0.023622,-0.027873,-0.605718,0.926576,0.426937,1.380328,2.408670,0.233291,-11.927742
1790539104.2832,-0.028674,-0.048321,-0.591826,-0.027158,-0.042187,-0.591826,1.177903,-0.283336,1.607373,3.788478,1.980751,-10.530539
1790539104.2971,-0.032012,-0.057736,-0.573716,-0.030556,-0.053071,-0.573716,0.654608,0.365015,0.872817,-2.727279,0.865351,-7.192776
1790539104.3113,-0.051146,-0.061401,-0.572746,-0.044969,-0.058902,-0.572746,0.306149,1.105642,0.821823,3.366870,2.464091,-10.608161
1790539104.3253,-0.058314,-0.073977,-0.562611,-0.054310,-0.069454,-0.562611,0.869511,0.428151,0.797540,0.645583,1.311511,-12.160609
1790539104.3390,-0.072204,-0.078606,-0.563435,-0.066836,-0.075861,-0.563435,0.444561,0.782680,0.944451,3.098574,3.467951,-9.637881
1790539104.3526,-0.071216,-0.081425,-0.559140,-0.069902,-0.079756,-0.559140,0.279438,-0.098787,0.838821,-0.274288,3.170511,-10.569350
1790539104.3662,-0.064656,-0.082088,-0.546070,-0.066230,-0.081388,-0.546070,-0.002243,-0.652436,0.974805,1.987063,1.199971,-11.112707
1790539104.3800,-0.061668,-0.088637,-0.511430,-0.063037,-0.086463,-0.511430,0.162880,-0.209274,0.553498,-0.350944,-3.335988,-8.939280
1790539104.3940,-0.051643,-0.090364,-0.501143,-0.055061,-0.089193,-0.501143,-0.005886,-0.591729,-0.182272,-1.692424,-1.588528,-11.927742
1790539104.4079,-0.035089,-0.088229,-0.503126,-0.041080,-0.088519,-0.503126,-0.220789,-1.118666,-0.654574,-0.082648,-0.621849,-12.315854
1790539104.4218,-0.036243,-0.081160,-0.525822,-0.037694,-0.083367,-0.525822,-0.546179,-0.092716,-0.935041,4.593365,-0.324409,-9.133336
1790539104.4357,-0.026378,-0.072854,-0.529407,-0.029773,-0.076008,-0.529407,-0.674878,-0.535878,-1.013960,-0.810880,-0.435949,-8.007811
1790539104.4495,-0.022027,-0.061818,-0.548797,-0.024351,-0.066075,-0.548797,-0.824217,-0.419320,-0.887689,2.945262,0.344831,-8.434735
1790539104.4634,-0.013585,-0.049553,-0.564563,-0.016815,-0.054510,-0.564563,-0.881282,-0.692502,-0.695855,1.795423,0.753811,-6.532986
1790539104.4774,-0.005805,-0.035972,-0.577483,-0.009108,-0.041533,-0.577483,-0.995411,-0.645151,-0.677642,1.948735,0.493551,-6.416553
1790539104.4915,-0.003177,-0.026511,-0.591149,-0.004957,-0.031018,-0.591149,-0.674878,-0.110928,-0.856121,0.607255,1.311511,-8.706413
1790539104.5054,-0.014041,-0.039334,-0.596969,-0.011316,-0.036839,-0.596969,0.755382,0.963587,-1.379417,0.798895,-1.625708,-13.402567
1790539104.5193,-0.012010,-0.056039,-0.615283,-0.011802,-0.050279,-0.615283,1.250752,0.186537,-1.436481,-2.612295,1.980751,-10.336483
1790539104.5331,0.007206,-0.065076,-0.645121,0.001504,-0.060637,-0.645121,0.891365,-1.014250,-1.107449,-2.765607,2.873071,-4.786483
1790539104.5470,0.015615,-0.076979,-0.658234,0.011382,-0.072077,-0.658234,0.862226,-0.595371,-0.749277,1.028863,1.571771,-11.811308
1790539104.5615,0.034003,-0.096601,-0.671137,0.027217,-0.089244,-0.671137,1.432873,-1.121094,-0.632719,-2.037376,2.315371,-9.327392
1790539104.5751,0.050055,-0.112025,-0.686516,0.043204,-0.105191,-0.686516,1.281105,-1.014250,-0.568370,-2.420655,3.021791,-8.395923
1790539104.5887,0.046136,-0.125725,-0.693132,0.045256,-0.119564,-0.693132,1.021279,0.247244,-0.301258,0.607255,1.497411,-15.381938
1790539104.6027,0.040402,-0.129821,-0.693834,0.041858,-0.126744,-0.693834,0.272153,0.503428,-0.164060,-2.765607,0.419191,-14.217602
1790539104.6166,0.031539,-0.130553,-0.687683,0.034635,-0.129410,-0.687683,-0.066593,0.747470,-0.191986,-2.688951,-1.737248,-13.208511
1790539104.6306,0.023745,-0.128958,-0.677302,0.027012,-0.129094,-0.677302,-0.276639,0.734115,-0.193200,-2.688951,-1.811608,-8.357112
1790539104.6445,0.006024,-0.119429,-0.672764,0.012320,-0.122328,-0.672764,-0.823003,1.337543,-0.172559,-0.619240,-0.993649,-6.144874
1790539104.6584,0.003830,-0.104666,-0.664673,0.006377,-0.109965,-0.664673,-1.175104,0.430579,-0.130064,-4.030431,-1.030829,-8.201867
1790539104.6722,0.000320,-0.086892,-0.660282,0.002137,-0.093814,-0.660282,-1.455571,0.354088,-0.119137,-1.117504,-1.402628,-7.192776
1790539104.6861,-0.001873,-0.067784,-0.653124,-0.000670,-0.075593,-0.653124,-1.533276,0.209605,0.181970,-1.040848,-1.439808,-8.784035
1790539104.6999,-0.008625,-0.047115,-0.647992,-0.006238,-0.055658,-0.647992,-1.723897,0.544708,0.191683,-0.849208,-1.774428,-7.076343
1790539104.7137,-0.017987,-0.025512,-0.644843,-0.014462,-0.034556,-0.644843,-1.651048,0.707403,0.103051,-0.427600,0.010211,-8.434735
1790539104.7276,-0.006643,-0.023618,-0.636786,-0.008989,-0.026899,-0.636786,-0.331276,-0.739854,0.152831,-3.838791,-3.782148,-21.048371
1790539104.7413,-0.002552,-0.030502,-0.628941,-0.004483,-0.029421,-0.628941,0.429991,-0.490955,0.863104,1.450471,0.344831,-16.740329
1790539104.7552,-0.004071,-0.024920,-0.617056,-0.004195,-0.026271,-0.617056,-0.219575,-0.024724,1.119288,-0.504256,3.876931,-8.124245
1790539104.7691,0.001828,-0.025328,-0.604357,0.000021,-0.025611,-0.604357,0.116743,-0.392609,0.509789,-1.309144,1.943571,-6.494175
1790539104.7829,-0.004447,-0.032534,-0.626909,-0.003106,-0.030457,-0.626909,0.582973,0.100332,0.449081,4.248414,1.980751,-8.318301
1790539104.7968,-0.020831,-0.040228,-0.638341,-0.015513,-0.037297,-0.638341,0.681319,0.908951,0.507360,4.056774,4.025651,-10.724595
1790539104.8110,-0.033610,-0.043747,-0.641500,-0.028181,-0.041812,-0.641500,0.484628,0.816676,0.451510,0.645583,4.397451,-7.231588
1790539104.8248,-0.037194,-0.042797,-0.639181,-0.034490,-0.042502,-0.639181,0.064535,0.220533,0.418728,0.032335,3.691031,-9.560259
1790539104.8389,-0.037419,-0.043288,-0.635115,-0.036540,-0.043052,-0.635115,0.079104,-0.058720,0.436940,0.607255,2.426911,-10.569350
1790539104.8528,-0.029884,-0.039249,-0.631974,-0.031881,-0.040390,-0.631974,-0.219575,-0.674290,0.424799,1.450471,2.910251,-10.375294
1790539104.8666,-0.019231,-0.029284,-0.627266,-0.023026,-0.032616,-0.627266,-0.665165,-0.954757,0.479435,2.178703,2.761531,-10.879840
1790539104.8807,-0.011114,-0.019672,-0.619595,-0.014687,-0.023556,-0.619595,-0.699161,-0.838199,0.458795,2.485326,1.014071,-7.619700
1790539104.8946,-0.000384,-0.009278,-0.618108,-0.004675,-0.013561,-0.618108,-0.666379,-0.994824,0.275459,1.987063,2.092291,-6.843476
1790539104.9084,-0.001311,-0.006187,-0.616180,-0.002320,-0.008400,-0.616180,-0.251142,-0.070862,0.054485,2.523654,1.497411,-12.082986
1790539104.9224,-0.004653,-0.016973,-0.623894,-0.003953,-0.014401,-0.623894,0.800305,0.373514,-0.459097,-1.539112,3.356411,-15.808861
1790539104.9364,-0.000009,-0.024144,-0.641780,-0.001192,-0.021221,-0.641780,0.655822,-0.041722,-1.084380,-2.880591,5.103871,-11.966553
1790539104.9503,0.006420,-0.035316,-0.661974,0.004136,-0.031087,-0.661974,0.810018,-0.165565,-1.494760,-1.385800,1.646131,-9.016902
1790539104.9643,0.008826,-0.041251,-0.687947,0.007419,-0.038202,-0.687947,0.655822,0.015343,-1.521471,0.070663,2.835891,-4.475993
1790539104.9782,0.009800,-0.049660,-0.696524,0.009085,-0.046222,-0.696524,0.589044,-0.104858,-0.955681,1.872079,1.014071,-7.425644
1790539104.9920,0.018634,-0.059517,-0.709417,0.015769,-0.055528,-0.709417,0.695889,-0.494597,-0.978750,-0.964192,1.423051,-12.005364
1790539105.0061,0.031461,-0.067781,-0.729579,0.026754,-0.064105,-0.729579,0.663107,-0.708286,-1.180297,-1.730752,2.947431,-9.754315
1790539105.0204,0.039080,-0.074817,-0.752730,0.035382,-0.071603,-0.752730,0.563547,-0.323403,-1.327208,-1.845736,3.319231,-10.103616
1790539105.0340,0.043420,-0.078452,-0.770421,0.041009,-0.076397,-0.770421,0.363214,-0.244484,-1.181511,0.108991,2.538451,-7.037532
1790539105.0479,0.044621,-0.087632,-0.779465,0.043537,-0.084262,-0.779465,0.555048,-0.004084,-0.870691,-0.810880,-0.138509,-14.023546
1790539105.0623,0.039941,-0.096843,-0.785433,0.041020,-0.093069,-0.785433,0.548977,0.391727,-0.569584,-1.194160,-0.361589,-14.955014
1790539105.0762,0.030954,-0.098013,-0.787831,0.033974,-0.096529,-0.787831,-0.052023,0.775395,-0.463953,-2.688951,-1.514168,-13.480189
1790539105.0901,0.026663,-0.096231,-0.787656,0.028856,-0.096321,-0.787656,-0.296066,0.544708,-0.530731,-3.647151,-1.737248,-9.560259
1790539105.1043,0.018511,-0.086618,-0.795293,0.021614,-0.089529,-0.795293,-0.768367,0.840959,-0.705568,-3.033903,-0.250049,-7.658511
1790539105.1183,0.007172,-0.077116,-0.798378,0.011505,-0.080840,-0.798378,-0.883710,0.959945,-0.534374,-1.270816,-1.662888,-7.192776
1790539105.1322,0.000148,-0.066214,-0.799874,0.003555,-0.070602,-0.799874,-0.951702,0.700119,-0.381392,-1.999048,-1.291089,-7.386832
1790539105.1463,-0.005792,-0.051340,-0.802628,-0.002988,-0.057118,-0.802628,-1.220028,0.618771,-0.404460,-2.727279,-1.700068,-10.724595
1790539105.1602,-0.016026,-0.034427,-0.807959,-0.012115,-0.041235,-0.807959,-1.313517,0.929591,-0.449384,-2.152360,-0.324409,-10.452916
1790539105.1741,-0.009543,-0.023684,-0.807642,-0.010314,-0.028949,-0.807642,-0.850928,-0.294264,-0.233266,-2.152360,0.158931,-9.055714
1790539105.1880,0.002734,-0.034352,-0.802570,-0.001180,-0.032731,-0.802570,0.652179,-1.057959,0.523144,1.565455,-0.621849,-11.462007
1790539105.2021,-0.005911,-0.050311,-0.794497,-0.004492,-0.045037,-0.794497,1.169404,0.249672,1.017300,5.129957,2.129471,-12.199420
1790539105.2161,-0.002636,-0.053258,-0.777311,-0.003193,-0.050792,-0.777311,0.485842,-0.135211,0.485506,-1.884064,3.914111,-5.601518
1790539105.2300,-0.013887,-0.064545,-0.773963,-0.010679,-0.060419,-0.773963,0.773594,0.757183,0.368948,0.262303,0.567911,-10.918651
1790539105.2440,-0.028591,-0.080684,-0.771234,-0.023217,-0.074604,-0.771234,1.183974,0.923521,0.381089,2.370342,1.906391,-12.936833
1790539105.2576,-0.048889,-0.093103,-0.765312,-0.041187,-0.087553,-0.765312,1.037063,1.291406,0.621490,3.021918,3.244871,-9.831937
1790539105.2712,-0.061121,-0.103425,-0.756445,-0.055141,-0.098663,-0.756445,0.926576,0.921093,0.661556,-0.465928,2.761531,-6.610609
1790539105.2848,-0.058027,-0.113724,-0.747423,-0.057161,-0.109206,-0.747423,0.731099,-0.296692,0.640916,0.913879,0.716631,-9.987182
1790539105.2989,-0.052377,-0.118936,-0.737772,-0.053812,-0.116017,-0.737772,0.340145,-0.471528,0.651843,1.297159,0.790991,-13.363756
1790539105.3134,-0.049488,-0.123015,-0.724409,-0.050785,-0.120916,-0.724409,0.110672,-0.427819,0.773257,4.823333,-2.555208,-12.354665
1790539105.3274,-0.039844,-0.121259,-0.711917,-0.043126,-0.121156,-0.711917,-0.223217,-0.887979,0.825465,3.136902,-0.659029,-10.646972
1790539105.3415,-0.035349,-0.112218,-0.702311,-0.037682,-0.114899,-0.702311,-0.710088,-0.606298,0.691910,4.670021,-0.250049,-9.715504
1790539105.3556,-0.028327,-0.098130,-0.691003,-0.031134,-0.103161,-0.691003,-1.136252,-0.739854,0.577780,3.941790,-1.514168,-10.336483
1790539105.3695,-0.018431,-0.079640,-0.684230,-0.022242,-0.086697,-0.684230,-1.387579,-0.940187,0.481863,3.405198,0.047391,-10.336483
1790539105.3835,-0.008613,-0.055641,-0.684038,-0.012702,-0.064958,-0.684038,-1.714183,-0.962042,0.249962,3.750150,1.199971,-9.288581
1790539105.3973,0.005158,-0.030365,-0.680028,-0.000200,-0.040743,-0.680028,-1.856238,-1.215798,0.185613,2.025391,0.530731,-6.532986
1790539105.4114,0.017357,-0.006190,-0.675059,0.012090,-0.016556,-0.675059,-1.782175,-1.168446,0.127334,2.561982,0.270471,-5.562707
1790539105.4255,-0.005973,-0.004532,-0.680953,-0.000554,-0.008139,-0.680953,-0.155225,1.653220,-0.224767,2.025391,2.575631,-21.281238
1790539105.4412,-0.022019,-0.022113,-0.698999,-0.015580,-0.017921,-0.698999,1.160905,1.301119,-0.953253,-3.532167,3.951291,-17.827042
1790539105.4561,-0.006231,-0.014923,-0.726690,-0.009036,-0.015822,-0.726690,-0.157653,-0.548019,-1.106235,-5.410238,5.512851,-4.126693
1790539105.4704,-0.012040,-0.018858,-0.736502,-0.011139,-0.017947,-0.736502,0.309791,0.696476,-0.626648,-1.922392,1.274331,-5.717951
1790539105.4852,0.008424,-0.039957,-0.738779,0.002555,-0.033354,-0.738779,1.368523,-1.089527,-0.735921,-4.183743,0.307651,-10.608161
1790539105.4992,0.032177,-0.055376,-0.754478,0.023290,-0.048769,-0.754478,1.319958,-1.360280,-1.016388,-3.685479,4.471811,-7.115154
1790539105.5127,0.036702,-0.061680,-0.765672,0.032679,-0.057807,-0.765672,0.699531,-0.419320,-0.892546,1.948735,4.025651,-6.222497
1790539105.5267,0.038109,-0.064354,-0.782769,0.036480,-0.062390,-0.782769,0.360785,0.008058,-0.840337,-0.580912,3.876931,-7.813756
1790539105.5408,0.051107,-0.069047,-0.801062,0.046719,-0.067050,-0.801062,0.377783,-0.702215,-0.984820,-1.999048,2.017931,-7.503266
1790539105.5549,0.039572,-0.078461,-0.812472,0.041716,-0.075037,-0.812472,0.851299,0.893167,-0.585368,-0.734224,5.215411,-10.258860
1790539105.5695,0.015625,-0.067294,-0.820746,0.023453,-0.069617,-0.820746,-0.803577,1.670218,-0.564727,0.607255,1.348691,-14.955014
1790539105.5834,0.006230,-0.046263,-0.835061,0.011397,-0.053269,-0.835061,-1.601268,1.012153,-0.606008,-6.368438,-0.250049,-13.130889
1790539105.5976,-0.002892,-0.023696,-0.848299,0.001395,-0.032568,-0.848299,-1.658333,0.889525,-0.559871,-2.803935,0.567911,-10.220049
1790539105.6116,-0.010136,0.000549,-0.824352,-0.006677,-0.009386,-0.824352,-1.626765,1.179705,-0.544087,-2.114032,0.456371,-0.517252
1790539105.6255,-0.014048,0.004832,-0.836477,-0.011837,0.000567,-0.836477,-0.385912,0.454862,-0.291545,-2.343999,0.679451,-13.053266
1790539105.6395,-0.000330,-0.012308,-0.827180,-0.003782,-0.008446,-0.827180,1.232539,-1.089527,0.365306,0.837223,3.282051,-18.370399
1790539105.6534,-0.003704,-0.028891,-0.788330,-0.003728,-0.022757,-0.788330,1.384307,-0.295478,1.037940,9.154395,6.219270,-10.763406
1790539105.6672,-0.014104,-0.049373,-0.768608,-0.010991,-0.041388,-0.768608,1.470511,0.484001,1.127787,2.485326,1.237151,-12.199420
1790539105.6813,-0.020337,-0.058340,-0.762605,-0.017533,-0.053254,-0.762605,0.652179,0.434222,0.848534,-1.807408,2.055111,-13.208511
1790539105.6954,-0.032544,-0.065063,-0.754252,-0.028041,-0.061521,-0.754252,0.493127,0.787537,0.667627,0.300631,1.683311,-10.491728
1790539105.7093,-0.045960,-0.073809,-0.743277,-0.040584,-0.070123,-0.743277,0.643680,0.854315,0.727120,1.258831,1.720491,-11.384385
1790539105.7228,-0.054576,-0.078395,-0.733810,-0.050378,-0.075914,-0.733810,0.519838,0.528925,0.882530,0.568927,3.096151,-6.377742
1790539105.7364,-0.057927,-0.083460,-0.726419,-0.055663,-0.081196,-0.726419,0.454274,0.209605,0.803611,-0.044320,1.980751,-6.843476
1790539105.7502,-0.055943,-0.086424,-0.710352,-0.055859,-0.084855,-0.710352,0.218731,-0.276052,0.939595,1.488799,2.092291,-12.160609
1790539105.7642,-0.045396,-0.084474,-0.691879,-0.048535,-0.084588,-0.691879,-0.217146,-0.884337,1.101076,1.143847,0.605091,-13.907112
1790539105.7782,-0.040137,-0.079898,-0.668990,-0.042656,-0.081305,-0.668990,-0.525538,-0.602656,1.103504,2.676966,-2.071868,-11.462007
1790539105.7921,-0.029184,-0.073901,-0.648197,-0.033226,-0.076122,-0.648197,-0.649381,-1.021535,0.990589,1.795423,-1.700068,-7.580888
1790539105.8063,-0.021074,-0.065232,-0.630473,-0.024719,-0.068499,-0.630473,-0.784151,-0.796919,0.776900,2.102047,-1.439808,-8.124245
1790539105.8209,-0.017732,-0.054638,-0.621941,-0.019828,-0.058796,-0.621941,-0.968700,-0.419320,0.370162,1.987063,-2.332128,-7.153965
1790539105.8348,-0.011500,-0.045342,-0.615797,-0.013998,-0.049379,-0.615797,-0.870355,-0.565017,0.134619,1.642111,-2.109048,-10.025993
1790539105.8488,0.000585,-0.031118,-0.615000,-0.003790,-0.036596,-0.615000,-1.139894,-0.863696,-0.286689,0.338959,-0.473129,-9.909560
1790539105.8627,0.003471,-0.020225,-0.619399,0.001292,-0.025136,-0.619399,-0.929848,-0.255411,-0.489450,2.063719,-0.956469,-10.957462
1790539105.8766,0.002762,-0.027180,-0.626873,0.002321,-0.026567,-0.626873,0.382640,0.187751,-0.740778,-0.734224,-0.473129,-15.459560
1790539105.8905,-0.000383,-0.037819,-0.650771,0.000428,-0.034443,-0.650771,0.799091,0.555636,-1.285928,-2.114032,1.794851,-8.357112
1790539105.9044,0.001446,-0.038663,-0.691991,0.001141,-0.037397,-0.691991,0.383854,-0.118213,-0.885261,1.143847,4.211551,-5.019350
1790539105.9183,0.011750,-0.048848,-0.701387,0.008567,-0.045413,-0.701387,0.675248,-0.514023,-0.602366,-2.152360,0.307651,-7.697322
1790539105.9322,0.026236,-0.065497,-0.714908,0.020936,-0.059472,-0.714908,1.209471,-0.800561,-0.739564,-1.999048,0.976891,-6.338930
1790539105.9461,0.042278,-0.077950,-0.730918,0.035875,-0.072407,-0.730918,0.944788,-0.980254,-0.978750,-1.730752,2.352551,-9.521448
1790539105.9596,0.055650,-0.089060,-0.743230,0.049718,-0.084064,-0.743230,0.842800,-0.940187,-0.947182,-0.159304,1.869211,-9.560259
1790539105.9732,0.056352,-0.102885,-0.749499,0.054362,-0.097239,-0.749499,1.067416,-0.104858,-0.497949,1.143847,2.761531,-13.402567
1790539105.9871,0.042597,-0.102701,-0.757381,0.046126,-0.101062,-0.757381,0.002613,1.051006,-0.335254,-2.343999,2.798711,-20.310959
1790539106.0012,0.037689,-0.091044,-0.766590,0.040220,-0.094049,-0.766590,-0.858213,0.547137,-0.215054,-5.678534,0.790991,-15.653616
1790539106.0153,0.032755,-0.079181,-0.781683,0.034995,-0.083642,-0.781683,-0.943203,0.730472,-0.398390,-6.215126,-0.659029,-8.240679
