t,imu_roll,imu_pitch,imu_yaw,lpf_roll,lpf_pitch,lpf_yaw,gyro_x,gyro_y,gyro_z,acc_x,acc_y,acc_z
1790544587.6056,0.020994,-0.038967,-0.004610,0.014696,-0.027277,-0.004610,0.005770,0.004376,-0.001204,-0.120976,1.311511,-10.142427
1790544587.6208,0.008744,-0.041187,-0.007902,0.010530,-0.037014,-0.007902,0.016697,0.005591,0.000010,0.147319,1.237151,-9.793126
1790544587.6347,0.007259,-0.045178,-0.008492,0.008240,-0.042729,-0.008492,-0.013657,-0.004123,0.003653,0.070663,1.199971,-10.375294
1790544587.6483,-0.000052,-0.042187,-0.011227,0.002436,-0.042350,-0.011227,-0.025798,-0.012622,-0.001204,0.338959,1.348691,-9.948371
1790544587.6624,-0.002917,-0.043702,-0.011572,-0.001311,-0.043296,-0.011572,-0.014871,-0.006551,0.000010,0.262303,1.199971,-10.103616
1790544587.6764,-0.003239,-0.042165,-0.012277,-0.002660,-0.042504,-0.012277,0.010626,0.008019,0.003653,0.147319,1.311511,-9.637881
1790544587.6909,-0.001899,-0.041449,-0.011931,-0.002128,-0.041765,-0.011931,0.004555,0.059013,0.013366,-0.005993,1.348691,-10.142427
1790544587.7053,0.001888,-0.039104,-0.010770,0.000683,-0.039902,-0.010770,-0.063436,0.048085,0.044934,-0.235960,1.423051,-10.103616
1790544587.7193,0.001227,-0.036484,-0.009100,0.001064,-0.037510,-0.009100,-0.081649,0.057799,0.117782,0.070663,1.497411,-10.297672
1790544587.7333,0.000588,-0.031799,-0.005675,0.000731,-0.033512,-0.005675,-0.118073,0.039586,0.230697,0.070663,1.608951,-9.676693
1790544587.7473,-0.003310,-0.028373,0.001041,-0.002098,-0.029915,0.001041,-0.144784,-0.045403,0.387322,0.492271,1.460231,-9.327392
1790544587.7613,-0.006306,-0.028126,0.009542,-0.005044,-0.028663,0.009542,-0.007586,-0.011407,0.551231,0.377287,1.348691,-9.327392
1790544587.7752,-0.002818,-0.028241,0.017615,-0.003486,-0.028367,0.017615,-0.051295,-0.117038,0.647148,-0.197632,1.088431,-8.163056
1790544587.7891,0.009544,-0.028683,0.021477,0.005635,-0.028588,0.021477,-0.002729,-0.084256,0.602225,-1.654096,1.385871,-10.142427
1790544587.8030,0.016117,-0.030343,0.022589,0.012972,-0.029817,0.022589,-0.088933,-0.168032,0.472312,-0.772552,0.976891,-9.870749
1790544587.8170,0.014546,-0.037002,0.012564,0.014074,-0.034847,0.012564,-0.024584,-0.000480,0.315687,0.108991,0.307651,-10.918651
1790544587.8310,0.012957,-0.039319,0.011324,0.013292,-0.037977,0.011324,0.019125,-0.001694,0.275621,0.147319,0.939711,-9.637881
1790544587.8449,0.013553,-0.040902,0.015106,0.013475,-0.040024,0.015106,0.078618,0.005591,0.228269,-0.197632,1.125611,-9.366203
1790544587.8586,0.009904,-0.040929,0.012867,0.010975,-0.040658,0.012867,-0.020942,0.068726,0.131138,0.415615,1.125611,-9.133336
1790544587.8723,0.010864,-0.039600,0.015717,0.010897,-0.039917,0.015717,-0.017299,-0.058759,0.048576,-0.044320,1.460231,-9.676693
1790544587.8862,0.010711,-0.034725,0.019169,0.010767,-0.036283,0.019169,-0.104717,-0.165604,0.006081,0.453943,1.869211,-9.133336
1790544587.9002,0.009623,-0.029794,0.021243,0.009966,-0.031741,0.021243,-0.159354,-0.171674,0.006081,0.760567,2.017931,-10.181238
1790544587.9140,0.010849,-0.021202,0.026206,0.010584,-0.024364,0.026206,-0.300194,-0.390220,0.081358,0.837223,2.352551,-9.405014
1790544587.9279,0.016726,-0.010225,0.030322,0.014884,-0.014467,0.030322,-0.450748,-0.589339,0.143279,0.377287,2.649991,-9.715504
1790544587.9418,0.007316,-0.008000,0.046766,0.009586,-0.009940,0.046766,-0.172709,0.117292,0.111711,2.485326,2.129471,-13.324944
1790544587.9561,0.003535,-0.014810,0.029929,0.005350,-0.013349,0.029929,0.686903,0.536171,-0.189396,-1.040848,3.133331,-13.519000
1790544587.9702,0.005946,-0.008298,-0.007452,0.005767,-0.009813,-0.007452,0.599485,0.385617,-0.423725,-1.615768,5.215411,-8.357112
1790544587.9841,0.018453,-0.015048,-0.030562,0.014647,-0.013477,-0.030562,0.365156,-0.592982,-0.769756,-0.657568,0.976891,-8.822846
1790544587.9980,0.031231,-0.015750,-0.053796,0.026256,-0.015068,-0.053796,0.291093,-0.499493,-0.819536,-1.194160,2.241011,-8.745224
1790544588.0120,0.035548,-0.009969,-0.050428,0.032760,-0.011499,-0.050428,0.056764,-0.081828,-1.137641,-0.657568,4.174371,-11.267951
1790544588.0259,0.032368,-0.016483,-0.097970,0.032486,-0.014988,-0.097970,0.051907,0.673369,-1.189849,-1.155832,-0.026969,-10.297672
1790544588.0399,0.037128,-0.016076,-0.137058,0.035736,-0.015750,-0.137058,-0.192136,0.107578,-1.237200,-1.309144,1.014071,-10.103616
1790544588.0553,0.033512,-0.015448,-0.143026,0.034179,-0.015538,-0.143026,0.033695,0.343122,-1.216560,0.108991,1.869211,-9.172147
1790544588.0698,0.027844,-0.013009,-0.161227,0.029745,-0.013768,-0.161227,-0.130214,0.618732,-1.425392,-0.197632,1.906391,-10.103616
1790544588.0838,0.023653,-0.008701,-0.171377,0.025480,-0.010221,-0.171377,-0.215204,0.469393,-1.374399,0.070663,2.166651,-10.142427
1790544588.0981,0.017789,-0.011139,-0.186239,0.020096,-0.010864,-0.186239,-0.087719,0.454823,-1.225059,0.760567,0.419191,-11.112707
1790544588.1132,0.019237,-0.016627,-0.207325,0.019494,-0.014898,-0.207325,0.074976,0.025017,-0.942164,0.070663,0.047391,-9.521448
1790544588.1271,0.016608,-0.018471,-0.205759,0.017474,-0.017399,-0.205759,0.107758,0.082081,-0.675053,0.913879,1.311511,-9.366203
1790544588.1408,0.014786,-0.018644,-0.205596,0.015593,-0.018270,-0.205596,0.096830,0.110007,-0.579135,0.530599,2.055111,-10.491728
1790544588.1548,0.010954,-0.013111,-0.197227,0.012346,-0.014659,-0.197227,-0.153283,0.199853,-0.615560,0.837223,2.798711,-9.599070
1790544588.1688,0.015170,-0.021310,-0.195837,0.014323,-0.019314,-0.195837,0.497497,-0.363509,-0.444366,0.875551,1.423051,-14.101168
1790544588.1828,0.007248,-0.028137,-0.163638,0.009371,-0.025490,-0.163638,0.598271,0.066298,0.030364,3.175230,2.352551,-11.229140
1790544588.1973,-0.003238,-0.027688,-0.150097,0.000545,-0.027029,-0.150097,0.119899,0.465750,0.463813,1.412143,2.575631,-10.841028
1790544588.2116,-0.012866,-0.037164,-0.118075,-0.008843,-0.034124,-0.118075,0.401580,0.344336,1.013819,1.258831,-0.101329,-9.405014
1790544588.2256,-0.015871,-0.047515,-0.105911,-0.013762,-0.043497,-0.105911,0.461073,0.245991,1.271217,-0.734224,-0.212869,-8.551168
1790544588.2396,-0.013954,-0.049654,-0.106134,-0.013897,-0.047807,-0.106134,-0.070721,0.079653,1.188655,-1.309144,0.010211,-6.765853
1790544588.2536,-0.005413,-0.049688,-0.108781,-0.007958,-0.049124,-0.108781,-0.226132,-0.318585,0.883906,-2.229015,-0.101329,-9.521448
1790544588.2676,-0.007606,-0.051386,-0.102671,-0.007712,-0.050707,-0.102671,-0.139927,0.162215,0.858409,-0.580912,-0.435949,-12.121798
1790544588.2815,-0.012215,-0.058523,-0.094895,-0.010864,-0.056178,-0.094895,0.207317,0.232635,0.985894,0.108991,-0.584669,-8.279490
1790544588.2955,-0.019993,-0.068128,-0.083592,-0.017254,-0.064543,-0.083592,0.572774,0.341908,1.080597,0.837223,0.382011,-8.628791
1790544588.3090,-0.022084,-0.072084,-0.064816,-0.020635,-0.069821,-0.064816,0.397937,0.243562,0.970110,-0.772552,1.683311,-9.055714
1790544588.3226,-0.022958,-0.070738,-0.046762,-0.022261,-0.070463,-0.046762,0.067691,0.191354,0.820770,-0.964192,2.129471,-9.327392
1790544588.3362,-0.019557,-0.070887,-0.035984,-0.020368,-0.070760,-0.035984,0.013054,-0.221454,0.718782,-0.389272,1.237151,-10.685784
1790544588.3501,-0.018118,-0.071515,-0.026686,-0.018793,-0.071288,-0.026686,0.042194,-0.147391,0.610724,0.185647,1.125611,-10.375294
1790544588.3640,-0.018175,-0.071175,-0.014966,-0.018360,-0.071209,-0.014966,0.056764,-0.056331,0.536661,0.338959,1.608951,-9.676693
1790544588.3778,-0.014356,-0.072779,-0.014457,-0.015557,-0.072308,-0.014457,-0.001515,-0.289446,0.383679,0.070663,0.233291,-10.646972
1790544588.3916,-0.008248,-0.064840,-0.001730,-0.010441,-0.067081,-0.001730,-0.400968,-0.730180,0.264693,2.370342,2.649991,-11.035084
1790544588.4055,-0.004801,-0.054827,0.005029,-0.006493,-0.058503,0.005029,-0.710574,-0.585697,0.210057,3.328542,1.646131,-13.130889
1790544588.4194,-0.004765,-0.042836,0.003853,-0.005284,-0.047536,0.003853,-0.994683,-0.589339,0.044934,3.711822,0.121751,-7.464455
1790544588.4333,-0.004975,-0.036566,0.002235,-0.005068,-0.039857,0.002235,-0.547879,-0.450927,-0.194252,3.021918,0.382011,-7.270399
1790544588.4473,-0.012542,-0.041755,0.008935,-0.010300,-0.041186,0.008935,0.146610,0.457251,-0.501430,1.450471,-0.510309,-10.142427
1790544588.4616,-0.008031,-0.046715,-0.010315,-0.008712,-0.045056,-0.010315,0.450146,-0.004123,-0.903311,-1.845736,2.389731,-12.665154
1790544588.4758,0.002788,-0.052427,-0.021732,-0.000662,-0.050216,-0.021732,0.343301,-0.490994,-1.222631,-1.040848,0.642271,-11.112707
1790544588.4897,-0.004488,-0.054836,-0.045675,-0.003340,-0.053450,-0.045675,0.176964,0.238706,-0.781897,2.983590,0.939711,-8.939280
1790544588.5036,0.008971,-0.056490,-0.055765,0.005277,-0.055578,-0.055765,0.149038,-0.640333,-0.756400,-1.807408,1.162791,-8.822846
1790544588.5176,0.023365,-0.062617,-0.070902,0.017939,-0.060505,-0.070902,0.448931,-0.599052,-1.110930,-2.458983,1.014071,-8.628791
1790544588.5315,0.027875,-0.072183,-0.092388,0.024894,-0.068680,-0.092388,0.769465,-0.304016,-1.189849,0.453943,1.237151,-6.804665
1790544588.5450,0.034815,-0.075861,-0.113916,0.031839,-0.073707,-0.113916,0.394295,-0.518919,-1.121857,0.415615,1.311511,-6.144874
1790544588.5586,0.043003,-0.085688,-0.117115,0.039654,-0.082094,-0.117115,0.581273,-0.673115,-0.914239,0.875551,-0.101329,-9.327392
1790544588.5725,0.048777,-0.095137,-0.135256,0.046040,-0.091224,-0.135256,0.765823,-0.495850,-0.807394,0.837223,1.646131,-9.637881
1790544588.5864,0.050601,-0.099322,-0.157187,0.049233,-0.096893,-0.157187,0.502354,-0.236024,-0.535426,0.990535,2.873071,-10.918651
1790544588.6004,0.033606,-0.098362,-0.160621,0.038294,-0.097921,-0.160621,-0.074364,1.129886,-0.424939,1.182175,1.162791,-14.178791
1790544588.6144,0.029279,-0.088307,-0.162319,0.031984,-0.091191,-0.162319,-0.845344,0.630874,-0.403085,-3.378855,-0.324409,-11.694875
1790544588.6283,0.024076,-0.082195,-0.139779,0.026448,-0.084894,-0.139779,-0.841702,0.656371,-0.308382,-1.922392,-2.183408,-7.425644
1790544588.6422,0.016356,-0.075634,-0.136089,0.019384,-0.078412,-0.136089,-0.848986,0.916197,-0.167541,-2.037376,-1.662888,-5.989630
1790544588.6562,0.004747,-0.062772,-0.133232,0.009138,-0.067464,-0.133232,-1.079673,1.086177,-0.174826,-1.309144,-0.287229,-6.144874
1790544588.6701,0.012895,-0.067010,-0.130426,0.011768,-0.067146,-0.130426,0.107758,-0.333155,-0.094693,-4.222071,-1.588528,-18.059910
1790544588.6840,0.014108,-0.073933,-0.119224,0.013406,-0.071897,-0.119224,0.382154,0.056584,0.433459,-2.842263,-0.287229,-15.886483
1790544588.6982,0.007445,-0.071249,-0.119749,0.009233,-0.071443,-0.119749,-0.177566,0.307912,0.628936,0.990535,1.088431,-9.831937
1790544588.7128,0.012324,-0.078740,-0.105242,0.011397,-0.076551,-0.105242,0.350586,-0.245737,0.790417,-1.309144,-0.584669,-7.774944
1790544588.7269,0.013240,-0.087187,-0.085013,0.012687,-0.083996,-0.085013,0.535136,0.294556,0.418889,-3.378855,0.047391,-8.201867
1790544588.7409,-0.000783,-0.094206,-0.087062,0.003258,-0.091143,-0.087062,0.455002,0.919840,0.463813,0.492271,0.344831,-9.637881
1790544588.7547,-0.011980,-0.101341,-0.075781,-0.007408,-0.098282,-0.075781,0.584915,0.747431,0.650790,0.492271,1.646131,-11.384385
1790544588.7686,-0.024357,-0.107524,-0.060828,-0.019272,-0.104751,-0.060828,0.626196,0.808138,0.740637,0.607255,2.129471,-7.969000
1790544588.7822,-0.035164,-0.111767,-0.044670,-0.030397,-0.109662,-0.044670,0.475643,0.730433,0.795273,0.645583,2.352551,-9.366203
1790544588.7958,-0.038492,-0.115928,-0.027348,-0.036063,-0.114048,-0.027348,0.417364,0.296985,0.652005,-0.312616,1.683311,-8.784035
1790544588.8096,-0.040472,-0.115687,-0.013853,-0.039150,-0.115195,-0.013853,0.141754,0.122148,0.500237,0.492271,2.501271,-10.297672
1790544588.8236,-0.036664,-0.118242,-0.005642,-0.037410,-0.117328,-0.005642,0.197604,-0.325870,0.454099,0.952207,1.088431,-12.238231
1790544588.8375,-0.029892,-0.117683,-0.010266,-0.032147,-0.117577,-0.010266,-0.114430,-0.620907,0.312045,2.063719,-0.101329,-12.587532
1790544588.8515,-0.030157,-0.111343,-0.050102,-0.030754,-0.113213,-0.050102,-0.573376,-0.378078,0.293833,3.405198,-0.435949,-7.153965
1790544588.8653,-0.031200,-0.102595,-0.074813,-0.031066,-0.105781,-0.074813,-0.831988,-0.381721,0.265907,4.478381,-1.328269,-7.852567
1790544588.8792,-0.021535,-0.088846,-0.076213,-0.024395,-0.093926,-0.076213,-1.088172,-0.888018,0.174847,1.603783,-0.101329,-7.309210
1790544588.8931,-0.011700,-0.077632,-0.078949,-0.015509,-0.082521,-0.078949,-0.924263,-1.038572,0.109283,3.136902,-0.324409,-8.163056
1790544588.9069,-0.001090,-0.064819,-0.086131,-0.005415,-0.070130,-0.086131,-0.930334,-1.104135,0.150564,2.791950,0.753811,-7.542077
1790544588.9208,-0.012996,-0.059797,-0.097840,-0.010722,-0.062897,-0.097840,-0.289267,0.630874,0.132352,3.328542,2.315371,-12.509909
1790544588.9347,-0.022136,-0.068501,-0.093293,-0.018712,-0.066820,-0.093293,0.502354,0.670940,-0.670196,1.603783,-0.733389,-15.343126
1790544588.9486,-0.015607,-0.069579,-0.110902,-0.016538,-0.068751,-0.110902,0.235242,-0.268806,-0.995586,-0.964192,2.538451,-10.414105
1790544588.9629,-0.003587,-0.070504,-0.119110,-0.007473,-0.069978,-0.119110,0.215816,-0.619693,-0.649556,-1.040848,1.571771,-5.912007
1790544588.9770,0.003098,-0.082034,-0.123951,-0.000073,-0.078417,-0.123951,0.808318,-0.436357,-0.473505,0.108991,0.642271,-9.210958
1790544588.9910,0.020019,-0.096950,-0.119049,0.013991,-0.091390,-0.119049,1.110639,-0.883161,-0.815893,-3.302199,1.311511,-10.181238
1790544589.0045,0.034439,-0.105982,-0.140252,0.028305,-0.101605,-0.140252,0.821673,-1.074996,-0.923952,0.492271,2.389731,-9.560259
1790544589.0181,0.038841,-0.109102,-0.163250,0.035680,-0.106853,-0.163250,0.448931,-0.413289,-1.011370,1.258831,2.910251,-8.318301
1790544589.0321,0.047340,-0.116475,-0.177660,0.043842,-0.113589,-0.177660,0.515709,-0.533489,-0.960376,-0.542584,0.642271,-8.822846
1790544589.0464,0.029551,-0.130696,-0.165637,0.033838,-0.125564,-0.165637,0.722113,1.284082,-0.968875,-0.120976,-3.001368,-12.238231
1790544589.0605,0.025463,-0.127547,-0.169820,0.027975,-0.126952,-0.169820,-0.284410,0.446324,-0.717548,-2.458983,-0.212869,-14.993826
1790544589.0744,0.024142,-0.118707,-0.163635,0.025292,-0.121180,-0.163635,-0.814990,0.294556,-0.621630,-2.305671,-1.662888,-10.646972
1790544589.0884,0.022915,-0.110607,-0.155835,0.023628,-0.113779,-0.155835,-0.831988,0.293342,-0.412798,-1.615768,-1.700068,-6.959909
1790544589.1023,0.020580,-0.094319,-0.155147,0.021494,-0.100157,-0.155147,-1.099100,0.426898,-0.295026,-1.692424,0.939711,-5.523895
1790544589.1161,0.018705,-0.081611,-0.163486,0.019542,-0.087175,-0.163486,-1.195017,0.452395,-0.304739,-3.187215,-2.220588,-8.201867
1790544589.1301,0.006624,-0.067939,-0.164713,0.010499,-0.073710,-0.164713,-1.095457,1.020613,-0.267101,-1.270816,-0.361589,-8.667602
1790544589.1440,0.013531,-0.074376,-0.168382,0.012622,-0.074176,-0.168382,0.282594,-0.357438,-0.208822,-3.033903,-2.555208,-20.310959
1790544589.1579,0.011239,-0.081254,-0.188128,0.011654,-0.079131,-0.188128,0.379725,-0.016264,0.253766,2.446998,-0.696209,-13.868301
1790544589.1719,0.004237,-0.071549,-0.180344,0.006462,-0.073824,-0.180344,-0.365758,0.401401,0.511164,0.607255,3.988471,-7.076343
1790544589.1858,0.000275,-0.074470,-0.171995,0.002131,-0.074276,-0.171995,0.175749,0.241134,0.601011,-0.044320,0.493551,-8.357112
1790544589.1998,-0.005072,-0.079395,-0.183570,-0.002911,-0.077859,-0.183570,0.332374,0.122148,0.488095,2.676966,0.679451,-9.443825
1790544589.2146,-0.018081,-0.086440,-0.190723,-0.013530,-0.083866,-0.190723,0.504782,0.652728,0.485667,2.868606,1.348691,-10.220049
1790544589.2287,-0.029087,-0.092003,-0.186971,-0.024420,-0.089562,-0.186971,0.492641,0.717078,0.477168,0.607255,1.906391,-8.473546
1790544589.2426,-0.037530,-0.096810,-0.181527,-0.033597,-0.094635,-0.181527,0.429505,0.561668,0.528162,0.645583,2.092291,-10.297672
1790544589.2565,-0.045270,-0.100590,-0.176274,-0.041768,-0.098804,-0.176274,0.379725,0.479106,0.565801,1.028863,2.315371,-9.521448
1790544589.2707,-0.050436,-0.106957,-0.169080,-0.047836,-0.104511,-0.169080,0.492641,0.320053,0.599797,0.568927,1.423051,-8.512357
1790544589.2849,-0.047186,-0.104543,-0.154549,-0.047381,-0.104534,-0.154549,0.045836,-0.244523,0.645934,0.300631,5.066691,-12.005364
1790544589.2990,-0.038638,-0.102025,-0.143183,-0.041261,-0.102777,-0.143183,-0.250414,-0.713182,0.707855,1.642111,0.344831,-13.092077
1790544589.3133,-0.033089,-0.093678,-0.129817,-0.035540,-0.096408,-0.129817,-0.692362,-0.602695,0.569443,3.175230,-0.361589,-11.462007
1790544589.3274,-0.028940,-0.085956,-0.115588,-0.030920,-0.089092,-0.115588,-0.692362,-0.558986,0.378823,3.443526,-0.882109,-9.405014
1790544589.3415,-0.020309,-0.072043,-0.117149,-0.023492,-0.077158,-0.117149,-0.975257,-0.881947,0.193059,3.021918,0.976891,-7.969000
1790544589.3557,-0.009193,-0.058745,-0.115904,-0.013483,-0.064269,-0.115904,-0.924263,-1.094422,0.146922,3.021918,0.902531,-6.804665
1790544589.3699,-0.001947,-0.050803,-0.121459,-0.005408,-0.054843,-0.121459,-0.507813,-0.600266,0.068002,1.488799,2.464091,-13.053266
1790544589.3839,-0.012369,-0.054789,-0.132608,-0.010281,-0.054805,-0.132608,0.338445,0.765643,-0.309596,0.722239,2.687171,-15.498371
1790544589.3978,-0.014876,-0.056171,-0.149964,-0.013497,-0.055761,-0.149964,0.166036,0.287271,-0.872958,0.262303,2.575631,-15.304315
1790544589.4120,-0.008570,-0.056828,-0.163910,-0.010048,-0.056508,-0.163910,0.122327,-0.234810,-0.800109,-1.232488,1.608951,-8.434735
1790544589.4261,-0.006916,-0.061796,-0.163552,-0.007856,-0.060209,-0.163552,0.322661,-0.170460,-0.406727,0.913879,0.382011,-6.183686
1790544589.4401,0.000101,-0.071273,-0.164055,-0.002286,-0.067954,-0.164055,0.652907,-0.316157,-0.562137,-1.500784,0.530731,-9.172147
1790544589.4546,0.015616,-0.077449,-0.190050,0.010245,-0.074600,-0.190050,0.620125,-0.964509,-0.864459,-0.389272,2.947431,-8.124245
1790544589.4686,0.023563,-0.083339,-0.210351,0.019568,-0.080718,-0.210351,0.533921,-0.552915,-1.030796,0.798895,2.241011,-8.978091
1790544589.4823,0.023420,-0.087053,-0.220048,0.022264,-0.085152,-0.220048,0.350586,-0.070900,-0.875386,1.680439,1.794851,-8.512357
1790544589.4963,0.032053,-0.092611,-0.233096,0.029117,-0.090374,-0.233096,0.388224,-0.481280,-0.828035,-1.232488,0.828171,-10.375294
1790544589.5103,0.034741,-0.102942,-0.251141,0.033053,-0.099171,-0.251141,0.869025,-0.127965,-0.486861,-0.657568,2.687171,-10.569350
1790544589.5244,0.018634,-0.102267,-0.244365,0.022960,-0.101338,-0.244365,-0.105931,1.066751,-0.369089,1.642111,0.084571,-13.363756
1790544589.5386,0.017212,-0.091973,-0.236880,0.018936,-0.094783,-0.236880,-0.835631,0.339480,-0.369089,-3.877119,-0.807749,-12.354665
1790544589.5525,0.013644,-0.083133,-0.216524,0.015232,-0.086628,-0.216524,-0.857485,0.487605,-0.309596,-2.535639,-1.885968,-8.395923
1790544589.5665,0.007022,-0.072619,-0.203334,0.009485,-0.076822,-0.203334,-1.010467,0.844563,-0.290170,-2.267343,-1.328269,-4.165504
1790544589.5806,-0.001840,-0.058674,-0.206498,0.001557,-0.064118,-0.206498,-1.112455,0.914983,-0.278028,-1.999048,-0.473129,-5.446273
1790544589.5948,-0.001718,-0.055331,-0.206594,-0.000735,-0.057967,-0.206594,-0.296552,0.110007,-0.138402,-1.539112,0.307651,-11.772497
1790544589.6088,0.001205,-0.069265,-0.204496,0.000623,-0.065876,-0.204496,0.729398,-0.098826,0.409176,-2.305671,-3.001368,-10.491728
1790544589.6227,-0.004311,-0.067271,-0.196754,-0.002831,-0.066853,-0.196754,-0.143570,0.306698,0.670217,0.492271,1.199971,-10.724595
1790544589.6370,-0.009386,-0.071094,-0.187821,-0.007419,-0.069821,-0.187821,0.232814,0.262989,0.753993,0.415615,0.605091,-9.055714
1790544589.6514,-0.014478,-0.078623,-0.202332,-0.012360,-0.075982,-0.202332,0.594629,0.020160,0.438316,3.366870,1.460231,-6.804665
1790544589.6656,-0.029567,-0.086149,-0.202821,-0.024405,-0.083099,-0.202821,0.514495,0.845777,0.513592,3.098574,0.828171,-10.414105
1790544589.6798,-0.043542,-0.095315,-0.198152,-0.037801,-0.091650,-0.198152,0.652907,0.887058,0.622865,1.412143,1.460231,-11.617252
1790544589.6937,-0.054668,-0.101965,-0.192304,-0.049608,-0.098870,-0.192304,0.594629,0.774142,0.679930,0.377287,2.352551,-8.279490
1790544589.7076,-0.064864,-0.107574,-0.184445,-0.060287,-0.104963,-0.184445,0.441647,0.697652,0.747922,0.530599,1.720491,-9.133336
1790544589.7220,-0.070599,-0.115284,-0.174287,-0.067506,-0.112188,-0.174287,0.507210,0.425684,0.647148,-0.120976,0.828171,-9.599070
1790544589.7365,-0.063768,-0.126225,-0.152585,-0.064889,-0.122014,-0.152585,0.564275,-0.357438,0.648362,-1.845736,-2.109048,-12.859210
1790544589.7511,-0.057700,-0.123101,-0.145176,-0.059857,-0.122775,-0.145176,-0.199420,-0.480066,0.601011,1.488799,1.608951,-11.966553
1790544589.7678,-0.050649,-0.118049,-0.133143,-0.053411,-0.119467,-0.133143,-0.475031,-0.584483,0.577942,3.290214,-2.071868,-10.802217
1790544589.7820,-0.047641,-0.110508,-0.128531,-0.049372,-0.113195,-0.128531,-0.671722,-0.464282,0.465027,3.596838,-0.993649,-8.822846
1790544589.7959,-0.038058,-0.096360,-0.130973,-0.041452,-0.101411,-0.130973,-1.038393,-0.934155,0.332685,3.481854,0.567911,-9.016902
1790544589.8099,-0.029450,-0.080625,-0.130131,-0.033051,-0.086861,-0.130131,-1.170734,-0.940226,0.138423,4.363398,0.233291,-8.046623
1790544589.8240,-0.015239,-0.065293,-0.129348,-0.020583,-0.071764,-0.129348,-1.127025,-1.271687,0.093499,3.098574,0.382011,-7.503266
1790544589.8379,-0.014230,-0.059936,-0.126255,-0.016136,-0.063485,-0.126255,-0.447105,-0.243309,0.023079,3.711822,0.270471,-13.557812
1790544589.8523,-0.025637,-0.073316,-0.123578,-0.022786,-0.070367,-0.123578,0.926089,1.004829,-0.684766,-2.420655,0.976891,-15.071448
1790544589.8666,-0.015596,-0.078376,-0.146329,-0.017753,-0.075973,-0.146329,0.508424,-0.466711,-1.225059,-2.727279,4.397451,-16.468651
1790544589.8807,-0.008254,-0.076344,-0.173357,-0.011103,-0.076232,-0.173357,-0.002729,-0.588125,-0.711477,1.757095,2.278191,-8.395923
1790544589.8947,-0.007284,-0.084050,-0.173572,-0.008429,-0.081705,-0.173572,0.509639,-0.096397,-0.350877,0.913879,0.196111,-8.784035
1790544589.9086,0.006338,-0.093719,-0.177508,0.001908,-0.090115,-0.177508,0.720899,-0.775103,-0.761257,-2.075704,1.051251,-9.909560
1790544589.9222,0.021878,-0.103272,-0.196402,0.015887,-0.099325,-0.196402,0.782821,-1.115063,-0.817107,0.185647,1.534591,-8.822846
1790544589.9358,0.026983,-0.107637,-0.225494,0.023654,-0.105143,-0.225494,0.531493,-0.471567,-0.864459,1.565455,2.835891,-7.309210
1790544589.9497,0.031776,-0.110175,-0.252622,0.029339,-0.108665,-0.252622,0.376083,-0.364723,-0.917881,0.722239,2.798711,-7.542077
1790544589.9640,0.035799,-0.116704,-0.277294,0.033861,-0.114293,-0.277294,0.632267,-0.210527,-0.734546,-0.772552,3.728211,-10.957462
1790544589.9783,0.012586,-0.116404,-0.261951,0.018969,-0.115771,-0.261951,-0.053723,1.462561,-0.628915,4.056774,0.642271,-13.596623
1790544589.9924,0.012284,-0.105363,-0.257717,0.014289,-0.108485,-0.257717,-0.839273,0.290914,-0.633772,-4.452038,-0.175689,-11.966553
1790544590.0063,0.010700,-0.093947,-0.243491,0.011777,-0.098309,-0.243491,-0.988613,0.304269,-0.610703,-1.807408,-1.291089,-8.007811
1790544590.0202,0.010211,-0.084331,-0.227196,0.010681,-0.088524,-0.227196,-0.892696,0.343122,-0.528141,-3.263871,-1.737248,-7.619700
1790544590.0342,-0.000039,-0.074223,-0.234089,0.003177,-0.078513,-0.234089,-0.761568,0.857918,-0.651984,-0.695896,0.270471,-8.434735
1790544590.0481,-0.010332,-0.067406,-0.235460,-0.006279,-0.070738,-0.235460,-0.586732,0.902842,-0.499002,-1.347472,-0.510309,-9.715504
1790544590.0621,-0.000810,-0.069078,-0.239058,-0.002451,-0.069576,-0.239058,0.100473,-0.449713,-0.313238,-3.877119,0.828171,-13.014455
1790544590.0762,0.003607,-0.071148,-0.232323,0.001789,-0.070676,-0.232323,0.140539,-0.289446,0.395821,-1.232488,1.274331,-13.519000
1790544590.0900,0.001056,-0.073023,-0.224270,0.001276,-0.072319,-0.224270,0.088331,0.091795,0.556087,0.760567,0.382011,-11.384385
1790544590.1040,0.003078,-0.077448,-0.216281,0.002537,-0.075909,-0.216281,0.235242,-0.232381,0.463813,0.530599,-0.175689,-7.348021
1790544590.1179,-0.005254,-0.086675,-0.222334,-0.002917,-0.083445,-0.222334,0.684475,0.402615,0.292619,2.332014,0.976891,-8.318301
1790544590.1324,-0.023610,-0.096610,-0.225509,-0.017402,-0.092661,-0.225509,0.726970,1.116531,0.395821,2.370342,1.460231,-10.103616
1790544590.1476,-0.038744,-0.108965,-0.224271,-0.032342,-0.104074,-0.224271,0.883594,0.941694,0.669003,0.645583,1.943571,-9.055714
1790544590.1622,-0.052418,-0.114830,-0.225715,-0.046395,-0.111603,-0.225715,0.531493,0.907698,0.789203,0.377287,2.724351,-8.318301
1790544590.1765,-0.058949,-0.121870,-0.220940,-0.055183,-0.118790,-0.220940,0.530279,0.531314,0.718782,-1.002520,1.720491,-9.482637
1790544590.1925,-0.053883,-0.131543,-0.208799,-0.054273,-0.127717,-0.208799,0.542420,-0.311301,0.699356,0.032335,0.121751,-11.656063
1790544590.2066,-0.044845,-0.131060,-0.200888,-0.047674,-0.130057,-0.200888,-0.074364,-0.639119,0.523306,0.262303,0.344831,-12.548721
1790544590.2212,-0.037904,-0.127601,-0.177443,-0.040835,-0.128338,-0.177443,-0.436178,-0.607551,0.562158,2.332014,-2.332128,-10.025993
1790544590.2356,-0.037763,-0.121190,-0.161038,-0.038684,-0.123334,-0.161038,-0.609800,-0.307658,0.540304,4.401726,-1.551348,-8.240679
1790544590.2499,-0.032575,-0.103457,-0.158561,-0.034408,-0.109420,-0.158561,-1.299433,-0.665830,0.469883,3.443526,-0.064149,-6.571797
1790544590.2640,-0.020504,-0.083669,-0.150754,-0.024675,-0.091394,-0.150754,-1.497338,-1.101707,0.223412,3.251886,-0.398769,-8.046623
1790544590.2779,-0.007452,-0.070028,-0.149809,-0.012619,-0.076438,-0.149809,-1.037178,-1.268045,0.333899,3.673494,0.084571,-7.153965
1790544590.2920,0.003395,-0.062366,-0.145816,-0.001409,-0.066587,-0.145816,-0.594017,-1.067711,0.349683,3.366870,0.270471,-8.007811
1790544590.3059,-0.004797,-0.069812,-0.138623,-0.003780,-0.068844,-0.138623,0.478071,0.560453,0.013366,0.837223,0.382011,-14.023546
1790544590.3199,-0.007236,-0.074549,-0.155343,-0.006200,-0.072837,-0.155343,0.421006,0.303055,-0.546354,-1.309144,2.538451,-13.014455
1790544590.3337,-0.000140,-0.073966,-0.176827,-0.001958,-0.073627,-0.176827,0.051907,-0.455783,-0.655626,0.108991,2.315371,-11.151518
1790544590.3477,0.010971,-0.076623,-0.208532,0.007092,-0.075724,-0.208532,0.377297,-0.786030,-0.398228,0.262303,2.426911,-6.882287
1790544590.3616,0.019258,-0.088911,-0.215187,0.015608,-0.084955,-0.215187,0.907877,-0.538345,-0.273172,-0.465928,0.865351,-7.464455
1790544590.3755,0.031874,-0.100005,-0.233637,0.026995,-0.095490,-0.233637,0.917590,-0.735036,-0.573065,-1.692424,1.832031,-7.192776
1790544590.3890,0.043979,-0.108782,-0.254380,0.038884,-0.104795,-0.254380,0.750039,-0.897731,-0.719976,0.338959,2.017931,-9.016902
1790544590.4026,0.049413,-0.114373,-0.273582,0.046254,-0.111500,-0.273582,0.512067,-0.446070,-0.865673,1.028863,2.352551,-9.676693
1790544590.4165,0.052630,-0.124357,-0.281019,0.050717,-0.120500,-0.281019,0.734255,-0.295517,-0.638628,1.028863,1.088431,-9.831937
1790544590.4304,0.034691,-0.128206,-0.277953,0.039499,-0.125894,-0.277953,0.226743,1.182094,-0.825606,3.251886,0.530731,-16.623896
1790544590.4443,0.029254,-0.121957,-0.283244,0.032328,-0.123138,-0.283244,-0.498099,0.576237,-0.800109,-3.340527,0.047391,-12.975644
1790544590.4583,0.032460,-0.113464,-0.251595,0.032420,-0.116366,-0.251595,-0.797992,0.080867,-0.779469,-4.222071,-1.700068,-8.434735
1790544590.4725,0.031026,-0.099670,-0.233288,0.031444,-0.104679,-0.233288,-1.179233,0.494890,-0.689622,-3.762135,-1.476988,-5.368651
1790544590.4868,0.029827,-0.078817,-0.240659,0.030312,-0.086576,-0.240659,-1.564116,0.391688,-0.659269,-2.727279,-0.398769,-5.950818
1790544590.5009,0.022701,-0.063521,-0.240082,0.024985,-0.070438,-0.240082,-1.282435,0.698866,-0.609489,-2.075704,-1.848788,-9.405014
1790544590.5148,0.012329,-0.049803,-0.256243,0.016126,-0.055994,-0.256243,-0.955831,1.052181,-0.730903,-3.340527,1.608951,-9.172147
1790544590.5288,0.021302,-0.055853,-0.260849,0.019749,-0.055895,-0.260849,0.300806,-0.382935,-0.541497,-5.640206,-1.662888,-17.012007
1790544590.5427,0.019683,-0.058914,-0.263271,0.019703,-0.058008,-0.263271,0.285022,0.050514,0.123853,0.913879,2.649991,-12.548721
1790544590.5567,0.015056,-0.058308,-0.259710,0.016450,-0.058218,-0.259710,0.003341,0.298199,0.386108,-0.159304,1.794851,-9.909560
1790544590.5706,0.015087,-0.060195,-0.258269,0.015496,-0.059602,-0.258269,0.146610,0.173142,0.145707,-2.803935,1.125611,-8.939280
1790544590.5845,0.005710,-0.064050,-0.262657,0.008646,-0.062716,-0.262657,0.259525,0.500960,0.137208,2.408670,0.716631,-9.288581
1790544590.5984,-0.007205,-0.073179,-0.263326,-0.002450,-0.070040,-0.263326,0.649265,0.814209,0.219770,1.872079,0.902531,-10.802217
1790544590.6122,-0.016283,-0.081469,-0.263325,-0.012133,-0.078040,-0.263325,0.703901,0.707365,0.297475,-0.810880,2.315371,-8.822846
1790544590.6259,-0.025783,-0.085317,-0.261346,-0.021688,-0.083134,-0.261346,0.380940,0.662441,0.458956,0.300631,2.389731,-9.210958
1790544590.6398,-0.031725,-0.089617,-0.255910,-0.028714,-0.087672,-0.255910,0.346944,0.415971,0.545160,-0.082648,1.720491,-9.987182
1790544590.6539,-0.037895,-0.096030,-0.248923,-0.035140,-0.093523,-0.248923,0.447717,0.385617,0.550017,0.645583,0.902531,-9.327392
1790544590.6679,-0.036193,-0.104374,-0.242841,-0.035877,-0.101119,-0.242841,0.603128,-0.107325,0.508736,-0.350944,1.348691,-11.617252
1790544590.6819,-0.027079,-0.102330,-0.234106,-0.029718,-0.101967,-0.234106,-0.120501,-0.766604,0.615580,2.102047,2.055111,-13.480189
1790544590.6960,-0.023289,-0.095284,-0.224271,-0.025218,-0.097289,-0.224271,-0.553950,-0.436357,0.488095,2.906934,0.196111,-11.694875
1790544590.7100,-0.019703,-0.086773,-0.213586,-0.021357,-0.089928,-0.213586,-0.725144,-0.500707,0.384893,3.175230,-0.733389,-8.163056
1790544590.7240,-0.012264,-0.073673,-0.210514,-0.014992,-0.078550,-0.210514,-0.999540,-0.778745,0.104427,3.136902,-0.101329,-7.270399
1790544590.7388,-0.000786,-0.058588,-0.213663,-0.005048,-0.064577,-0.213663,-0.981328,-0.974222,0.146922,2.446998,1.423051,-7.619700
1790544590.7527,0.006724,-0.045706,-0.218160,0.003192,-0.051367,-0.218160,-0.875698,-0.754462,-0.033986,3.558510,1.869211,-9.521448
1790544590.7666,-0.005581,-0.052470,-0.208434,-0.002949,-0.052139,-0.208434,0.359085,0.785070,-0.301097,3.635166,-1.179549,-14.334035
1790544590.7805,-0.009133,-0.056988,-0.220563,-0.007278,-0.055533,-0.220563,0.346944,0.333409,-0.769756,0.568927,1.794851,-14.605714
1790544590.7944,0.002366,-0.057141,-0.232239,-0.000527,-0.056659,-0.232239,0.037337,-0.697398,-0.796467,-0.465928,1.051251,-7.736133
1790544590.8084,-0.001405,-0.061884,-0.246457,-0.001142,-0.060316,-0.246457,0.380940,0.101508,-0.472291,2.983590,1.237151,-7.658511
1790544590.8222,0.005211,-0.070069,-0.257280,0.003305,-0.067143,-0.257280,0.617697,-0.357438,-0.644699,-0.810880,1.199971,-9.521448
1790544590.8362,0.019523,-0.080980,-0.270108,0.014657,-0.076829,-0.270108,0.790105,-0.929299,-0.911810,-0.312616,1.051251,-10.181238
1790544590.8501,0.029551,-0.089707,-0.293152,0.025083,-0.085844,-0.293152,0.694188,-0.765390,-1.066006,1.680439,1.720491,-8.357112
1790544590.8639,0.036575,-0.093973,-0.306632,0.033127,-0.091534,-0.306632,0.319018,-0.571127,-0.966447,1.603783,1.051251,-8.628791
1790544590.8780,0.049715,-0.102620,-0.323091,0.044738,-0.099294,-0.323091,0.594629,-0.815170,-1.017441,-1.002520,0.828171,-9.443825
1790544590.8923,0.042614,-0.111424,-0.350637,0.043251,-0.107785,-0.350637,0.705115,0.532528,-0.854746,0.032335,2.649991,-11.190329
1790544590.9063,0.036585,-0.105023,-0.363252,0.038585,-0.105851,-0.363252,-0.495671,0.679439,-0.874172,-4.758662,0.605091,-13.635434
1790544590.9202,0.042008,-0.093673,-0.358034,0.040981,-0.097327,-0.358034,-0.964330,-0.159533,-0.789182,-3.455511,-1.365448,-10.608161
1790544590.9344,0.041435,-0.083244,-0.333387,0.041299,-0.087469,-0.333387,-1.040821,0.264203,-0.631344,-1.884064,-2.257768,-5.523895
1790544590.9484,0.034890,-0.068018,-0.330603,0.036813,-0.073854,-0.330603,-1.242368,0.616304,-0.428582,-1.079176,-0.659029,-5.640329
1790544590.9624,0.026322,-0.048807,-0.348051,0.029469,-0.056321,-0.348051,-1.306718,0.775357,-0.628915,-1.232488,1.869211,-7.503266
1790544590.9762,0.010134,-0.033141,-0.352378,0.015935,-0.040095,-0.352378,-1.248439,1.369072,-0.549996,-1.730752,-0.361589,-9.405014
1790544590.9907,0.017111,-0.040820,-0.353011,0.016758,-0.040602,-0.353011,0.367584,-0.503135,-0.407941,2.178703,-2.629568,-18.797322
1790544591.0047,0.008867,-0.048181,-0.359006,0.011234,-0.045907,-0.359006,0.515709,0.413542,0.193059,3.673494,1.348691,-14.256413
1790544591.0187,0.007827,-0.047049,-0.362235,0.008849,-0.046707,-0.362235,0.045836,0.059013,0.567015,-0.619240,2.352551,-7.076343
1790544591.0327,0.001408,-0.045769,-0.368203,0.003641,-0.046050,-0.368203,-0.052509,0.232635,0.278049,2.140375,1.162791,-6.300119
1790544591.0466,-0.001564,-0.052649,-0.364302,-0.000003,-0.050669,-0.364302,0.463501,0.144003,0.162705,0.875551,0.642271,-9.210958
1790544591.0606,-0.011794,-0.060507,-0.367230,-0.008257,-0.057556,-0.367230,0.588558,0.524029,0.356968,3.290214,1.720491,-10.763406
1790544591.0744,-0.019479,-0.067594,-0.374052,-0.016112,-0.064583,-0.374052,0.633481,0.596878,0.456528,-0.887536,2.575631,-8.512357
1790544591.0880,-0.027260,-0.070402,-0.375141,-0.023916,-0.068656,-0.375141,0.288665,0.502175,0.673859,0.415615,2.426911,-9.366203
1790544591.1019,-0.030239,-0.072233,-0.370483,-0.028342,-0.071160,-0.370483,0.149038,0.174356,0.643506,0.070663,1.571771,-9.754315
1790544591.1159,-0.036998,-0.078480,-0.360376,-0.034401,-0.076284,-0.360376,0.419792,0.360120,0.709069,1.373815,0.902531,-9.521448
1790544591.1297,-0.041163,-0.082697,-0.354708,-0.039134,-0.080773,-0.354708,0.304449,0.225350,0.615580,0.798895,1.162791,-8.939280
1790544591.1437,-0.026097,-0.084176,-0.346874,-0.030008,-0.083155,-0.346874,0.104115,-1.134489,0.704213,0.377287,1.832031,-13.363756
1790544591.1577,-0.017958,-0.076660,-0.330014,-0.021573,-0.078608,-0.330014,-0.604944,-0.756891,0.479596,2.830278,0.233291,-11.733686
1790544591.1717,-0.016513,-0.068478,-0.303256,-0.018031,-0.071517,-0.303256,-0.714217,-0.362295,0.460170,3.865134,-0.733389,-9.754315
1790544591.1856,-0.009587,-0.057383,-0.297786,-0.012120,-0.061623,-0.297786,-0.819847,-0.750820,0.208843,2.561982,0.493551,-6.106063
1790544591.1996,0.000891,-0.045422,-0.300490,-0.003012,-0.050282,-0.300490,-0.824704,-0.990006,0.151778,2.446998,1.125611,-6.377742
1790544591.2135,-0.003517,-0.042351,-0.308938,-0.003366,-0.044731,-0.308938,-0.155711,0.163429,0.099570,2.523654,2.203831,-9.909560
1790544591.2277,-0.010577,-0.047884,-0.333907,-0.008414,-0.046938,-0.333907,0.519352,0.658799,-0.434653,-1.654096,3.244871,-10.763406
1790544591.2421,-0.009365,-0.049543,-0.348435,-0.009080,-0.048762,-0.348435,0.144182,0.067512,-0.880243,-0.734224,1.757671,-13.130889
1790544591.2563,-0.001518,-0.051927,-0.353285,-0.003786,-0.050977,-0.353285,0.147824,-0.463068,-0.713905,-0.005993,0.605091,-8.201867
1790544591.2706,0.002781,-0.061538,-0.349085,0.000811,-0.058370,-0.349085,0.615269,-0.271234,-0.377588,0.223975,0.196111,-8.279490
1790544591.2846,0.014584,-0.073540,-0.358488,0.010452,-0.068989,-0.358488,0.860526,-0.687685,-0.741830,-1.539112,1.014071,-10.724595
1790544591.2985,0.031241,-0.084888,-0.377223,0.025004,-0.080118,-0.377223,0.848384,-1.073782,-1.002871,-0.695896,1.311511,-8.822846
1790544591.3122,0.036295,-0.090830,-0.393690,0.032908,-0.087617,-0.393690,0.530279,-0.510420,-1.032010,2.676966,2.092291,-7.464455
1790544591.3259,0.043157,-0.095191,-0.416692,0.040082,-0.092919,-0.416692,0.401580,-0.516491,-0.965233,0.798895,1.683311,-7.076343
1790544591.3399,0.052375,-0.104098,-0.429861,0.048687,-0.100744,-0.429861,0.621340,-0.603909,-0.845033,-0.465928,1.051251,-12.354665
1790544591.3539,0.041855,-0.108071,-0.434311,0.043904,-0.105873,-0.434311,0.208531,0.774142,-0.831677,0.262303,0.047391,-15.537182
1790544591.3680,0.038118,-0.099048,-0.437982,0.039854,-0.101095,-0.437982,-0.708146,0.435397,-0.600990,-3.647151,-0.064149,-14.877392
1790544591.3819,0.043159,-0.089402,-0.407633,0.042168,-0.092910,-0.407633,-0.909694,0.001948,-0.535426,-4.490366,-1.811608,-6.532986
1790544591.3957,0.043281,-0.076843,-0.399470,0.042947,-0.081663,-0.399470,-1.125811,0.255704,-0.484432,-2.688951,-1.551348,-6.338930
1790544591.4096,0.035136,-0.059862,-0.396689,0.037479,-0.066403,-0.396689,-1.357712,0.736504,-0.364232,-1.002520,-0.435949,-4.902916
1790544591.4235,0.027001,-0.044343,-0.399693,0.030144,-0.050961,-0.399693,-1.284863,0.843349,-0.512358,-3.455511,-1.439808,-10.025993
1790544591.4374,0.021345,-0.035043,-0.406861,0.023985,-0.039818,-0.406861,-0.746998,0.677011,-0.449222,-3.608823,0.084571,-9.870749
1790544591.4513,0.029367,-0.047859,-0.406551,0.027752,-0.045447,-0.406551,0.825316,-0.572341,-0.250103,0.338959,-0.510309,-17.632987
1790544591.4652,0.022469,-0.055756,-0.421263,0.024054,-0.052663,-0.421263,0.673548,0.292128,0.318116,3.136902,3.133331,-11.384385
1790544591.4793,0.018611,-0.054035,-0.424805,0.020244,-0.053623,-0.424805,0.030052,0.145217,0.736995,0.530599,2.649991,-7.386832
1790544591.4937,0.017595,-0.056302,-0.421882,0.018390,-0.055499,-0.421882,0.173321,0.168286,0.229483,-2.305671,1.460231,-10.608161
1790544591.5078,0.010491,-0.063596,-0.419812,0.012861,-0.061167,-0.419812,0.495069,0.284843,0.329043,2.370342,0.493551,-7.503266
1790544591.5218,-0.003064,-0.073449,-0.413859,0.001713,-0.069764,-0.413859,0.680833,0.862775,0.467455,1.220503,0.605091,-10.103616
1790544591.5355,-0.015893,-0.081654,-0.415025,-0.010611,-0.078087,-0.415025,0.682047,0.945336,0.499023,-0.504256,2.092291,-8.978091
1790544591.5491,-0.027030,-0.087034,-0.413184,-0.022104,-0.084350,-0.413184,0.461073,0.786284,0.660504,-0.005993,2.166651,-9.909560
1790544591.5632,-0.031713,-0.092866,-0.409535,-0.028830,-0.090312,-0.409535,0.459859,0.334623,0.625293,-0.312616,1.571771,-8.473546
1790544591.5770,-0.040067,-0.100552,-0.401741,-0.036696,-0.097480,-0.401741,0.535136,0.541027,0.639863,0.683911,0.716631,-8.706413
1790544591.5910,-0.028451,-0.106070,-0.386555,-0.030925,-0.103493,-0.386555,0.297164,-0.824883,0.693285,-0.772552,-0.584669,-14.877392
1790544591.6049,-0.014771,-0.100611,-0.376474,-0.019617,-0.101475,-0.376474,-0.437392,-1.037358,0.531805,0.760567,0.344831,-13.247322
1790544591.6188,-0.017262,-0.090972,-0.363183,-0.017969,-0.094123,-0.363183,-0.787065,-0.078185,0.534233,4.401726,-0.659029,-10.724595
1790544591.6328,-0.013862,-0.079966,-0.348509,-0.015094,-0.084213,-0.348509,-0.941261,-0.453355,0.349683,2.600310,-1.142369,-7.774944
1790544591.6467,-0.003956,-0.068129,-0.342979,-0.007297,-0.072954,-0.342979,-0.926692,-0.888018,0.194273,2.408670,-0.175689,-8.706413
1790544591.6609,0.006245,-0.054616,-0.351249,0.002183,-0.060117,-0.351249,-0.937619,-1.007004,0.253766,3.328542,0.939711,-7.153965
1790544591.6750,0.013172,-0.047802,-0.360099,0.009875,-0.051496,-0.360099,-0.408253,-0.660973,0.210057,2.561982,2.575631,-10.918651
1790544591.6890,-0.002668,-0.057216,-0.348359,0.001095,-0.055500,-0.348359,0.553348,1.095890,-0.116547,1.680439,-0.993649,-16.352217
1790544591.7030,-0.003727,-0.058459,-0.364233,-0.002280,-0.057572,-0.364233,0.147824,0.158572,-0.678695,0.032335,2.575631,-14.062357
1790544591.7170,0.004832,-0.057061,-0.376379,0.002698,-0.057214,-0.376379,-0.069507,-0.568699,-0.664125,0.530599,1.497411,-10.181238
1790544591.7313,0.007154,-0.063188,-0.377106,0.005817,-0.061396,-0.377106,0.385796,-0.187458,-0.418869,0.875551,0.270471,-7.231588
1790544591.7460,0.014069,-0.075497,-0.382612,0.011594,-0.071267,-0.382612,0.838671,-0.325870,-0.546354,-1.385800,0.865351,-8.589979
1790544591.7598,0.028348,-0.083923,-0.408693,0.023322,-0.080126,-0.408693,0.750039,-0.902588,-0.753972,-0.964192,2.203831,-7.076343
1790544591.7736,0.035472,-0.089195,-0.432528,0.031827,-0.086474,-0.432528,0.472000,-0.523775,-0.883885,0.875551,2.017931,-8.279490
1790544591.7873,0.037110,-0.094142,-0.450003,0.035525,-0.091841,-0.450003,0.395509,-0.136464,-0.898455,1.105519,1.571771,-9.793126
1790544591.8013,0.041685,-0.102222,-0.471628,0.039837,-0.099108,-0.471628,0.675976,-0.223882,-0.630129,-1.462456,2.724351,-11.229140
1790544591.8153,0.022748,-0.104529,-0.469106,0.027875,-0.102903,-0.469106,0.094402,1.297438,-0.549996,1.987063,-0.175689,-13.907112
1790544591.8294,0.020437,-0.095709,-0.463259,0.022668,-0.097867,-0.463259,-0.685077,0.435397,-0.586420,-5.180270,-0.138509,-12.160609
1790544591.8436,0.018867,-0.086493,-0.445732,0.020007,-0.089906,-0.445732,-0.831988,0.317625,-0.524499,-2.803935,-1.923148,-9.482637
1790544591.8577,0.017081,-0.075814,-0.435797,0.017959,-0.080041,-0.435797,-0.935191,0.366191,-0.557281,-2.152360,-1.253909,-6.455364
1790544591.8716,0.006421,-0.061440,-0.442389,0.009883,-0.067020,-0.442389,-1.055391,0.914983,-0.583992,-1.194160,0.642271,-8.784035
1790544591.8856,-0.004561,-0.051960,-0.440133,-0.000228,-0.056478,-0.440133,-0.813776,0.987831,-0.439509,-2.075704,-1.068009,-8.939280
1790544591.8996,0.002958,-0.055377,-0.437327,0.002002,-0.055707,-0.437327,0.157537,-0.409646,-0.310810,-2.535639,-0.547489,-17.438931
1790544591.9136,0.007906,-0.057338,-0.436543,0.006135,-0.056849,-0.436543,0.129612,-0.442428,0.195487,1.143847,1.014071,-10.724595
1790544591.9275,0.003385,-0.059298,-0.430392,0.004210,-0.058564,-0.430392,0.119899,0.216851,0.553659,1.028863,0.939711,-11.927742
1790544591.9415,0.002286,-0.065067,-0.425444,0.002863,-0.063116,-0.425444,0.390653,-0.023549,0.458956,0.492271,0.382011,-5.174595
1790544591.9556,-0.005362,-0.071729,-0.424604,-0.002894,-0.069145,-0.424604,0.445289,0.423255,0.338756,0.837223,0.270471,-5.135783
1790544591.9694,-0.019450,-0.078890,-0.425553,-0.014483,-0.075966,-0.425553,0.529065,0.905270,0.418889,1.718767,1.311511,-11.112707
1790544591.9835,-0.030036,-0.087465,-0.431312,-0.025370,-0.084016,-0.431312,0.719685,0.673369,0.616795,0.722239,2.464091,-8.357112
1790544591.9975,-0.042628,-0.091259,-0.434301,-0.037451,-0.089086,-0.434301,0.371226,0.827565,0.721211,0.760567,2.761531,-9.443825
1790544592.0112,-0.049411,-0.094603,-0.432752,-0.045823,-0.092948,-0.432752,0.306877,0.440253,0.760063,0.607255,2.501271,-10.452916
1790544592.0252,-0.055991,-0.100800,-0.428103,-0.052941,-0.098444,-0.428103,0.459859,0.418399,0.706641,0.683911,1.534591,-9.405014
1790544592.0392,-0.059080,-0.105628,-0.423536,-0.057238,-0.103473,-0.423536,0.356657,0.249633,0.554873,-0.350944,1.385871,-9.909560
1790544592.0531,-0.049894,-0.108446,-0.420671,-0.052097,-0.106954,-0.420671,0.237671,-0.659759,0.512378,0.108991,2.166651,-12.315854
1790544592.0671,-0.038129,-0.102264,-0.410017,-0.042319,-0.103671,-0.410017,-0.511455,-0.928085,0.446815,1.603783,0.010211,-11.345574
1790544592.0810,-0.034057,-0.097092,-0.390891,-0.036536,-0.099066,-0.390891,-0.512669,-0.489779,0.468669,3.596838,-1.328269,-10.918651
1790544592.0949,-0.030858,-0.088606,-0.377797,-0.032561,-0.091744,-0.377797,-0.734857,-0.503135,0.290190,3.711822,-0.807749,-7.464455
1790544592.1088,-0.019871,-0.076439,-0.378094,-0.023678,-0.081030,-0.378094,-0.875698,-0.952368,0.183346,2.446998,0.865351,-8.822846
1790544592.1228,-0.010907,-0.062223,-0.378534,-0.014738,-0.067865,-0.378534,-1.050534,-0.948725,0.018222,4.286742,0.344831,-7.231588
1790544592.1368,0.002983,-0.047425,-0.387356,-0.002334,-0.053557,-0.387356,-1.000754,-1.195196,0.004867,2.561982,1.460231,-7.192776
1790544592.1507,-0.006937,-0.052089,-0.377133,-0.005556,-0.052529,-0.377133,0.235242,0.703722,-0.220964,1.718767,-0.584669,-18.952567
1790544592.1646,-0.017660,-0.058728,-0.386766,-0.014029,-0.056868,-0.386766,0.490212,0.896771,-0.715119,-0.465928,1.311511,-12.548721
1790544592.1786,0.005535,-0.060176,-0.395582,-0.000334,-0.059183,-0.395582,0.150253,-1.354249,-0.789182,-5.103614,2.166651,-12.626343
1790544592.1925,0.002440,-0.065731,-0.404433,0.001608,-0.063767,-0.404433,0.394295,0.100294,-0.457721,1.872079,0.530731,-6.222497
1790544592.2063,0.012715,-0.073163,-0.416415,0.009383,-0.070344,-0.416415,0.597057,-0.573555,-0.523285,-1.500784,1.385871,-7.386832
1790544592.2210,0.027704,-0.082333,-0.431459,0.022207,-0.078737,-0.431459,0.677190,-0.861307,-0.709049,-1.692424,1.571771,-8.667602
1790544592.2356,0.038555,-0.092076,-0.453030,0.033651,-0.088074,-0.453030,0.735469,-0.756891,-0.814679,0.952207,1.832031,-8.434735
1790544592.2505,0.047558,-0.098455,-0.480043,0.043386,-0.095341,-0.480043,0.535136,-0.586911,-0.848675,0.338959,2.464091,-8.551168
1790544592.2652,0.038001,-0.108282,-0.473184,0.039616,-0.104400,-0.473184,0.529065,0.639373,-0.741830,1.105519,-1.551348,-13.790679
1790544592.2803,0.017536,-0.098883,-0.485689,0.024160,-0.100538,-0.485689,-0.609800,1.387284,-0.547568,-0.044320,1.534591,-14.760958
1790544592.2942,0.025532,-0.090625,-0.457189,0.025120,-0.093599,-0.457189,-0.779780,-0.171674,-0.579135,-6.981685,-2.183408,-9.133336
1790544592.3078,0.018045,-0.080844,-0.444007,0.020167,-0.084670,-0.444007,-0.953403,0.726791,-0.439509,-1.309144,-1.588528,-5.446273
1790544592.3218,0.012146,-0.065528,-0.448878,0.014552,-0.071271,-0.448878,-1.139166,0.643015,-0.518428,-1.807408,0.196111,-6.261308
1790544592.3357,0.003952,-0.056860,-0.448699,0.007132,-0.061183,-0.448699,-0.736071,0.706151,-0.479576,-0.849208,-0.659029,-9.560259
1790544592.3497,-0.009442,-0.048273,-0.452331,-0.004470,-0.052146,-0.452331,-0.664437,1.150527,-0.460150,-2.037376,0.270471,-10.414105
1790544592.3637,0.001679,-0.051096,-0.452065,-0.000166,-0.051411,-0.452065,0.135683,-0.591767,-0.246461,-4.682006,0.010211,-15.808861
1790544592.3776,0.004338,-0.050129,-0.447064,0.002987,-0.050514,-0.447064,-0.102289,-0.250593,0.314473,0.530599,0.939711,-13.402567
1790544592.3923,0.001395,-0.054871,-0.439493,0.001872,-0.053564,-0.439493,0.265596,0.146431,0.417675,0.223975,0.270471,-11.345574
1790544592.4063,-0.002589,-0.062353,-0.434995,-0.001251,-0.059716,-0.434995,0.549705,0.379546,0.261051,-1.347472,0.976891,-7.115154
1790544592.4203,-0.014172,-0.072766,-0.439374,-0.010296,-0.068851,-0.439374,0.739111,0.706151,0.259837,1.948735,0.939711,-10.414105
1790544592.4345,-0.029376,-0.081735,-0.440558,-0.023652,-0.077870,-0.440558,0.685689,0.984189,0.475954,0.952207,1.720491,-8.512357
1790544592.4487,-0.042722,-0.092684,-0.433610,-0.037001,-0.088239,-0.433610,0.791320,0.953835,0.614366,-0.389272,1.423051,-9.754315
1790544592.4624,-0.052426,-0.098016,-0.431059,-0.047799,-0.095083,-0.431059,0.464715,0.678225,0.711498,0.262303,2.798711,-10.724595
1790544592.4762,-0.057264,-0.105839,-0.421255,-0.054424,-0.102612,-0.421255,0.541206,0.377118,0.695714,-0.465928,0.902531,-9.909560
1790544592.4904,-0.063221,-0.115685,-0.412125,-0.060582,-0.111763,-0.412125,0.655336,0.394116,0.662932,0.607255,0.790991,-11.617252
1790544592.5047,-0.056118,-0.123218,-0.400586,-0.057457,-0.119782,-0.400586,0.463501,-0.503135,0.706641,0.262303,0.382011,-13.945924
1790544592.5188,-0.052257,-0.120695,-0.394770,-0.053817,-0.120421,-0.394770,-0.232202,-0.386577,0.616795,2.370342,0.307651,-11.694875
1790544592.5329,-0.047216,-0.112723,-0.392244,-0.049196,-0.115033,-0.392244,-0.710574,-0.571127,0.687215,3.481854,-1.216729,-9.521448
1790544592.5472,-0.045767,-0.103508,-0.393925,-0.046796,-0.106966,-0.393925,-0.839273,-0.384149,0.638649,4.785005,-2.294948,-9.249770
1790544592.5613,-0.034772,-0.088414,-0.390625,-0.038379,-0.093979,-0.390625,-1.141595,-0.942654,0.463813,2.102047,0.010211,-8.124245
1790544592.5752,-0.026672,-0.072138,-0.400125,-0.030184,-0.078690,-0.400125,-1.191374,-0.891660,0.399463,3.711822,0.567911,-7.115154
1790544592.5890,-0.009978,-0.055910,-0.401107,-0.016040,-0.062744,-0.401107,-1.176805,-1.425883,0.383679,2.217030,0.865351,-7.153965
1790544592.6029,-0.014379,-0.053079,-0.410056,-0.014877,-0.055979,-0.410056,-0.132643,0.101508,0.350897,3.328542,2.389731,-10.181238
1790544592.6169,-0.023271,-0.062561,-0.414925,-0.020753,-0.060586,-0.414925,0.730612,0.758359,-0.270743,-1.347472,2.129471,-12.082986
1790544592.6308,-0.013329,-0.063472,-0.421756,-0.015556,-0.062606,-0.421756,0.123541,-0.534703,-0.667768,-1.807408,1.943571,-11.112707
1790544592.6451,-0.007238,-0.064758,-0.424289,-0.009733,-0.064113,-0.424289,0.072547,-0.452141,-0.288955,0.722239,0.456371,-6.804665
1790544592.6591,-0.000424,-0.073907,-0.419572,-0.003217,-0.070969,-0.419572,0.639552,-0.348939,-0.214893,-1.539112,0.642271,-8.434735
1790544592.6735,0.014142,-0.084120,-0.421720,0.008934,-0.080175,-0.421720,0.746396,-0.827311,-0.511143,-2.267343,1.311511,-8.900469
1790544592.6873,0.026781,-0.091231,-0.437796,0.021427,-0.087914,-0.437796,0.607984,-0.892875,-0.624059,0.300631,2.315371,-9.676693
1790544592.7012,0.032069,-0.096299,-0.456267,0.028876,-0.093784,-0.456267,0.457430,-0.393862,-0.743045,0.837223,2.315371,-9.715504
1790544592.7152,0.040293,-0.102676,-0.472105,0.036868,-0.100008,-0.472105,0.496283,-0.546844,-0.808608,-0.044320,1.534591,-9.366203
1790544592.7293,0.034992,-0.113540,-0.475207,0.035555,-0.109480,-0.475207,0.719685,0.431754,-0.462578,-1.002520,-0.026969,-14.528091
1790544592.7437,0.018899,-0.114622,-0.482609,0.023896,-0.113080,-0.482609,0.082261,1.177238,-0.405513,-1.309144,1.608951,-20.621448
1790544592.7583,0.017499,-0.101910,-0.481766,0.019418,-0.105261,-0.481766,-0.886625,0.313983,-0.519642,-4.528694,0.679451,-13.247322
1790544592.7723,0.017470,-0.091135,-0.457891,0.018055,-0.095372,-0.457891,-1.032322,0.209566,-0.439509,-1.692424,-2.034688,-5.407462
1790544592.7863,0.013883,-0.078834,-0.447837,0.015134,-0.083796,-0.447837,-1.068746,0.509459,-0.339949,-1.769080,-1.105189,-4.437182
1790544592.8002,0.003785,-0.067207,-0.447869,0.007190,-0.072184,-0.447869,-0.929120,0.910126,-0.434653,-1.500784,-0.361589,-6.921098
1790544592.8142,-0.010018,-0.055787,-0.455764,-0.004856,-0.060706,-0.455764,-0.655938,1.127458,-0.223392,-1.309144,2.835891,-7.270399
1790544592.8281,-0.001655,-0.057571,-0.452122,-0.002615,-0.058511,-0.452122,0.032481,-0.449713,-0.094693,-4.758662,-1.068009,-21.281238
1790544592.8421,0.004697,-0.060771,-0.447329,0.002503,-0.060093,-0.447329,0.231600,-0.588125,0.556087,1.910407,1.943571,-16.002917
1790544592.8561,-0.005268,-0.064826,-0.439415,-0.002937,-0.063406,-0.439415,0.214602,0.560453,0.840197,1.182175,-0.064149,-9.793126
1790544592.8701,-0.001464,-0.071285,-0.425781,-0.001906,-0.068921,-0.425781,0.367584,-0.182602,0.533019,-2.190688,-0.435949,-9.676693
1790544592.8839,-0.010645,-0.077905,-0.426663,-0.008024,-0.075210,-0.426663,0.488998,0.528886,0.451671,1.488799,0.976891,-8.395923
1790544592.8978,-0.027578,-0.087514,-0.425972,-0.021711,-0.083822,-0.425972,0.720899,1.093462,0.550017,1.642111,1.460231,-9.560259
1790544592.9114,-0.038194,-0.095782,-0.419282,-0.033249,-0.092194,-0.419282,0.689332,0.730433,0.740637,0.415615,2.538451,-9.909560
1790544592.9250,-0.050252,-0.101380,-0.412715,-0.045151,-0.098624,-0.412715,0.492641,0.816637,0.808629,0.798895,2.426911,-9.016902
1790544592.9386,-0.054814,-0.105910,-0.401250,-0.051915,-0.103724,-0.401250,0.366370,0.354049,0.847481,-0.504256,2.017931,-10.025993
1790544592.9525,-0.058076,-0.114377,-0.391813,-0.056228,-0.111181,-0.391813,0.679618,0.221708,0.796488,0.147319,2.984611,-11.229140
1790544592.9664,-0.053428,-0.119484,-0.380602,-0.054268,-0.116993,-0.380602,0.206103,-0.310086,0.667788,-0.465928,-1.848788,-13.053266
1790544592.9803,-0.048652,-0.116287,-0.375780,-0.050337,-0.116499,-0.375780,-0.324477,-0.498278,0.588869,3.021918,-0.510309,-11.190329
1790544592.9943,-0.044215,-0.111407,-0.370711,-0.046052,-0.112935,-0.370711,-0.509027,-0.484923,0.562158,2.983590,-1.700068,-10.297672
1790544593.0089,-0.041242,-0.102564,-0.370616,-0.042685,-0.105675,-0.370616,-0.737285,-0.423002,0.381251,3.060246,-1.030829,-7.464455
1790544593.0230,-0.032499,-0.089511,-0.372494,-0.035555,-0.094360,-0.372494,-0.946118,-0.776317,0.233126,2.255358,0.530731,-8.163056
1790544593.0373,-0.023348,-0.075114,-0.377706,-0.027010,-0.080888,-0.377706,-1.028679,-0.883161,0.112926,3.328542,0.419191,-7.270399
1790544593.0515,-0.010077,-0.060645,-0.383272,-0.015157,-0.066718,-0.383272,-0.970401,-1.096850,0.104427,2.332014,1.646131,-8.434735
1790544593.0657,-0.016517,-0.062660,-0.379661,-0.016109,-0.063878,-0.379661,0.016697,0.340694,-0.288955,4.056774,-1.662888,-14.023546
1790544593.0799,-0.024426,-0.072768,-0.381669,-0.021931,-0.070101,-0.381669,0.746396,0.810567,-0.779469,-3.340527,1.534591,-13.130889
1790544593.0938,-0.011583,-0.075962,-0.395118,-0.014687,-0.074204,-0.395118,0.308091,-0.838238,-0.787968,0.032335,1.906391,-10.064805
1790544593.1078,-0.009589,-0.079541,-0.409152,-0.011119,-0.077940,-0.409152,0.309305,-0.362295,-0.247675,3.175230,1.162791,-6.998721
1790544593.1217,-0.002221,-0.091819,-0.408408,-0.004890,-0.087655,-0.408408,0.833815,-0.550487,-0.220964,0.837223,-0.026969,-10.841028
1790544593.1360,0.013747,-0.099012,-0.425762,0.008156,-0.095605,-0.425762,0.651693,-1.039786,-0.610703,-0.580912,2.612811,-8.240679
1790544593.1497,0.025299,-0.109357,-0.438743,0.020156,-0.105232,-0.438743,0.790105,-0.779959,-0.781897,-0.389272,1.348691,-10.685784
1790544593.1635,0.026671,-0.115474,-0.456736,0.024717,-0.112401,-0.456736,0.546063,-0.171674,-0.670196,1.412143,1.980751,-8.512357
1790544593.1775,0.039906,-0.121747,-0.472145,0.035349,-0.118943,-0.472145,0.548491,-0.895303,-0.599776,-0.619240,2.092291,-9.133336
1790544593.1915,0.009045,-0.125847,-0.460591,0.016936,-0.123776,-0.460591,0.175749,2.011353,-0.517214,5.283269,-1.625708,-13.092077
1790544593.2056,0.005716,-0.115992,-0.457870,0.009082,-0.118327,-0.457870,-0.736071,0.423255,-0.480790,-3.915447,-0.101329,-14.217602
1790544593.2198,0.010802,-0.104413,-0.440839,0.010286,-0.108587,-0.440839,-0.992255,-0.178959,-0.409156,-2.573967,-2.183408,-9.676693
1790544593.2337,0.007858,-0.091082,-0.425339,0.008587,-0.096334,-0.425339,-1.186518,0.408686,-0.394586,-2.190688,-2.443668,-7.774944
1790544593.2478,0.000746,-0.072411,-0.429119,0.003098,-0.079588,-0.429119,-1.305504,0.646658,-0.404299,-1.117504,0.828171,-6.727042
1790544593.2625,-0.009205,-0.062410,-0.425780,-0.005514,-0.067563,-0.425780,-0.823489,0.936837,-0.349663,-3.340527,-1.514168,-8.589979
1790544593.2769,-0.013330,-0.055457,-0.433549,-0.010985,-0.059089,-0.433549,-0.379113,0.458466,-0.401871,-1.692424,2.426911,-8.551168
1790544593.2912,-0.009624,-0.060094,-0.433869,-0.010032,-0.059793,-0.433869,0.337230,-0.300373,0.089857,1.028863,2.017931,-15.110259
1790544593.3052,-0.009678,-0.061798,-0.426494,-0.009784,-0.061196,-0.426494,0.121113,-0.047832,0.531805,0.147319,1.683311,-13.480189
1790544593.3193,-0.015370,-0.067982,-0.420021,-0.013694,-0.065946,-0.420021,0.388224,0.221708,0.831698,1.642111,0.419191,-8.900469
1790544593.3336,-0.021640,-0.076051,-0.412871,-0.019257,-0.073020,-0.412871,0.590986,0.458466,0.489310,-0.504256,1.051251,-6.494175
1790544593.3475,-0.039033,-0.081512,-0.425362,-0.033100,-0.078964,-0.425362,0.464715,1.004829,0.502665,3.021918,1.757671,-7.386832
1790544593.3616,-0.051883,-0.092515,-0.425560,-0.046248,-0.088450,-0.425560,0.839885,0.791140,0.610724,1.872079,2.166651,-9.754315
1790544593.3753,-0.066967,-0.100358,-0.428372,-0.060751,-0.096786,-0.428372,0.706330,1.009686,0.692071,1.182175,2.798711,-7.619700
1790544593.3890,-0.074005,-0.104402,-0.424345,-0.070029,-0.102117,-0.424345,0.371226,0.492461,0.804987,0.338959,2.761531,-9.443825
1790544593.4030,-0.078560,-0.110869,-0.415538,-0.076001,-0.108244,-0.415538,0.455002,0.330981,0.821985,-0.005993,1.534591,-9.560259
1790544593.4169,-0.074058,-0.114916,-0.407781,-0.074641,-0.112915,-0.407781,0.292307,-0.293088,0.696928,-0.350944,2.055111,-12.665154
1790544593.4310,-0.066334,-0.112935,-0.399481,-0.068826,-0.112929,-0.399481,-0.162996,-0.589339,0.658075,1.067191,1.423051,-12.742777
1790544593.4451,-0.059665,-0.108620,-0.382653,-0.062414,-0.109913,-0.382653,-0.482316,-0.580840,0.652005,1.987063,-1.588528,-10.646972
1790544593.4591,-0.056606,-0.103156,-0.367657,-0.058348,-0.105183,-0.367657,-0.551522,-0.421787,0.608296,3.635166,-1.402628,-10.181238
1790544593.4734,-0.052212,-0.093767,-0.357290,-0.054053,-0.097192,-0.357290,-0.802849,-0.522561,0.331471,3.328542,-1.179549,-8.007811
1790544593.4875,-0.047331,-0.078850,-0.358080,-0.049347,-0.084352,-0.358080,-1.096671,-0.579626,0.184560,4.018446,0.382011,-8.939280
1790544593.5016,-0.043976,-0.062780,-0.360832,-0.045588,-0.069252,-0.360832,-1.164663,-0.490994,0.012152,4.861661,0.493551,-9.249770
1790544593.5161,-0.038455,-0.047563,-0.360572,-0.040595,-0.054069,-0.360572,-1.094243,-0.509206,-0.117761,3.865134,0.605091,-13.208511
1790544593.5302,-0.055552,-0.048394,-0.361200,-0.051065,-0.050097,-0.361200,0.022768,1.304723,-0.502645,0.530599,0.121751,-14.450469
1790544593.5441,-0.042575,-0.052399,-0.367388,-0.045122,-0.051709,-0.367388,0.361513,-0.566270,-0.951877,-5.831846,2.352551,-14.644525
1790544593.5585,-0.050661,-0.058589,-0.384201,-0.048999,-0.056525,-0.384201,0.499925,0.508245,-0.591277,2.791950,1.571771,-9.909560
1790544593.5725,-0.053948,-0.064252,-0.383096,-0.052463,-0.061934,-0.383096,0.370012,0.363762,-0.491717,-0.619240,0.047391,-11.035084
1790544593.5865,-0.039751,-0.066922,-0.387552,-0.043565,-0.065426,-0.387552,0.230386,-0.800600,-0.661697,-1.769080,1.014071,-8.784035
1790544593.6003,-0.038515,-0.074924,-0.391483,-0.040030,-0.072074,-0.391483,0.527851,-0.022335,-0.777041,0.683911,-0.510309,-10.297672
1790544593.6140,-0.027111,-0.082395,-0.402480,-0.030986,-0.079299,-0.402480,0.611627,-0.691327,-0.824392,-0.695896,1.311511,-9.327392
1790544593.6277,-0.019514,-0.084950,-0.424497,-0.022956,-0.083255,-0.424497,0.344515,-0.541988,-0.717548,0.760567,2.203831,-7.348021
1790544593.6418,-0.013792,-0.089959,-0.442503,-0.016541,-0.087948,-0.442503,0.462287,-0.379293,-0.739402,0.760567,2.129471,-9.560259
1790544593.6561,-0.008636,-0.096547,-0.464649,-0.011008,-0.093967,-0.464649,0.668691,-0.229953,-0.575493,-1.539112,4.471811,-10.724595
1790544593.6700,-0.020755,-0.094588,-0.475778,-0.017831,-0.094402,-0.475778,-0.090148,0.919840,-0.554853,0.300631,2.092291,-16.196973
1790544593.6841,-0.019301,-0.083083,-0.475135,-0.018860,-0.086479,-0.475135,-0.824704,0.162215,-0.349663,-4.490366,0.642271,-11.462007
1790544593.6983,-0.020278,-0.076438,-0.465028,-0.019853,-0.079450,-0.465028,-0.612229,0.290914,-0.145687,-2.535639,-1.253909,-7.503266
1790544593.7124,-0.025876,-0.069088,-0.456852,-0.024069,-0.072196,-0.456852,-0.686291,0.588379,-0.033986,-1.539112,-1.030829,-5.407462
1790544593.7263,-0.031502,-0.062924,-0.452804,-0.029272,-0.065706,-0.452804,-0.533309,0.585950,-0.029129,-1.922392,-0.398769,-7.580888
1790544593.7403,-0.030310,-0.067191,-0.449355,-0.029998,-0.066745,-0.449355,0.246170,0.063869,-0.019416,-2.727279,0.010211,-13.363756
1790544593.7548,-0.028114,-0.072573,-0.439331,-0.028679,-0.070824,-0.439331,0.248598,-0.078185,0.494166,-2.037376,-0.956469,-11.733686
1790544593.7690,-0.033212,-0.074259,-0.430043,-0.031852,-0.073229,-0.430043,0.027624,0.278772,0.747922,0.760567,-0.101329,-12.975644
1790544593.7833,-0.034002,-0.080782,-0.420060,-0.033357,-0.078516,-0.420060,0.359085,0.021374,0.665360,-0.005993,-0.250049,-9.754315
1790544593.7974,-0.043572,-0.090028,-0.410352,-0.040507,-0.086574,-0.410352,0.696616,0.698866,0.550017,-0.274288,1.014071,-5.329839
1790544593.8114,-0.055717,-0.099351,-0.402704,-0.051154,-0.095518,-0.402704,0.677190,0.809353,0.641077,0.913879,1.385871,-9.715504
1790544593.8254,-0.067542,-0.108373,-0.392481,-0.062625,-0.104516,-0.392481,0.674762,0.793569,0.766134,0.722239,1.906391,-9.288581
1790544593.8390,-0.082601,-0.114962,-0.382827,-0.076608,-0.111828,-0.382827,0.577631,1.055823,0.852338,0.875551,2.538451,-7.891378
1790544593.8526,-0.091255,-0.122390,-0.370649,-0.086861,-0.119221,-0.370649,0.554562,0.668512,0.832912,-0.235960,2.129471,-11.035084
1790544593.8668,-0.087478,-0.131489,-0.357648,-0.087293,-0.127809,-0.357648,0.594629,-0.194743,0.843839,-0.925864,1.088431,-11.151518
1790544593.8810,-0.077990,-0.133743,-0.348282,-0.080781,-0.131963,-0.348282,0.066477,-0.640333,0.655647,0.032335,-0.138509,-12.005364
1790544593.8948,-0.073449,-0.134998,-0.345233,-0.075648,-0.134087,-0.345233,-0.088933,-0.452141,0.682358,2.676966,-1.774428,-10.608161
1790544593.9090,-0.070351,-0.130618,-0.343308,-0.071940,-0.131659,-0.343308,-0.475031,-0.444856,0.797702,3.980118,-1.291089,-9.094525
1790544593.9230,-0.070332,-0.122107,-0.340709,-0.070815,-0.124973,-0.340709,-0.773710,-0.208098,0.664146,3.251886,-1.253909,-8.201867
1790544593.9371,-0.062531,-0.107272,-0.339042,-0.065016,-0.112582,-0.339042,-1.135524,-0.720466,0.423746,2.945262,-0.324409,-8.939280
1790544593.9510,-0.055903,-0.091767,-0.340053,-0.058637,-0.098012,-0.340053,-1.214443,-0.698612,0.275621,3.826806,-0.510309,-9.172147
1790544593.9650,-0.046654,-0.074835,-0.341218,-0.050249,-0.081788,-0.341218,-1.267865,-0.880733,0.242839,3.175230,0.196111,-7.930189
1790544593.9790,-0.039452,-0.058143,-0.346545,-0.042691,-0.065237,-0.346545,-1.182876,-0.754462,0.088643,3.290214,1.014071,-7.153965
1790544593.9931,-0.061544,-0.063042,-0.346993,-0.055888,-0.063700,-0.346993,0.247384,1.371500,-0.167541,5.474909,-1.253909,-11.462007
1790544594.0073,-0.045409,-0.065939,-0.346883,-0.048553,-0.065267,-0.346883,0.495069,-0.792101,-0.692051,-3.417183,4.174371,-6.261308
1790544594.0217,-0.050152,-0.068560,-0.361645,-0.049672,-0.067572,-0.361645,0.319018,0.097865,-0.224606,4.670021,2.761531,-8.046623
1790544594.0360,-0.049454,-0.074665,-0.364313,-0.049520,-0.072537,-0.364313,0.419792,-0.057545,-0.270743,0.837223,0.382011,-6.998721
1790544594.0501,-0.027644,-0.083654,-0.365644,-0.034207,-0.080319,-0.365644,0.686903,-1.354249,-0.511143,-2.229015,1.311511,-9.676693
1790544594.0638,-0.024135,-0.094902,-0.374363,-0.027156,-0.090527,-0.374363,0.815602,-0.344082,-0.665340,2.446998,0.270471,-9.055714
1790544594.0776,-0.008907,-0.101461,-0.389395,-0.014382,-0.098180,-0.389395,0.606770,-1.009432,-0.749115,-0.427600,1.794851,-7.192776
1790544594.0916,0.000166,-0.109735,-0.403378,-0.004198,-0.106269,-0.403378,0.663835,-0.662188,-0.729689,0.990535,1.460231,-9.055714
1790544594.1058,0.008472,-0.117734,-0.418487,0.004671,-0.114294,-0.418487,0.666263,-0.597838,-0.664125,0.798895,2.017931,-9.327392
1790544594.1198,-0.012779,-0.121419,-0.428885,-0.007544,-0.119282,-0.428885,0.286236,1.481987,-0.616774,1.948735,1.162791,-15.847672
1790544594.1338,-0.015275,-0.107803,-0.428560,-0.012956,-0.111246,-0.428560,-0.908479,0.510674,-0.620416,-6.483422,1.980751,-12.160609
1790544594.1478,-0.016080,-0.096367,-0.425695,-0.015143,-0.100831,-0.425695,-0.884197,0.356478,-0.604632,-4.528694,-0.807749,-10.336483
1790544594.1620,-0.019028,-0.085907,-0.423626,-0.017862,-0.090384,-0.423626,-0.813776,0.500960,-0.412798,-2.803935,-0.510309,-6.300119
1790544594.1762,-0.028167,-0.077159,-0.427827,-0.025076,-0.081127,-0.427827,-0.645011,0.696437,-0.308382,0.032335,0.158931,-5.795574
1790544594.1901,-0.039479,-0.068293,-0.432261,-0.035158,-0.072143,-0.432261,-0.647439,0.948979,-0.361804,-1.117504,0.456371,-9.793126
1790544594.2043,-0.029435,-0.072105,-0.429310,-0.031152,-0.072116,-0.429310,0.164822,-0.455783,-0.191824,-6.713389,-1.811608,-17.438931
1790544594.2185,-0.024317,-0.071986,-0.422517,-0.026367,-0.072025,-0.422517,-0.041582,-0.352581,0.384893,-0.580912,0.939711,-13.829490
1790544594.2325,-0.027019,-0.070717,-0.418547,-0.026823,-0.071110,-0.418547,-0.115645,0.045657,0.468669,2.332014,0.939711,-11.112707
1790544594.2464,-0.027453,-0.073103,-0.410834,-0.027264,-0.072505,-0.410834,0.253455,0.076011,0.424960,-0.810880,2.017931,-7.658511
1790544594.2609,-0.034242,-0.078162,-0.407344,-0.032149,-0.076465,-0.407344,0.370012,0.528886,0.196701,-0.580912,0.902531,-6.416553
1790544594.2753,-0.043517,-0.085674,-0.403500,-0.040106,-0.082911,-0.403500,0.535136,0.599306,0.318116,0.990535,1.385871,-10.918651
1790544594.2897,-0.051499,-0.094925,-0.396680,-0.048081,-0.091321,-0.396680,0.669905,0.526457,0.467455,0.453943,1.608951,-9.560259
1790544594.3049,-0.060667,-0.098911,-0.386905,-0.056891,-0.096634,-0.386905,0.315376,0.570167,0.624079,0.568927,2.203831,-9.366203
1790544594.3195,-0.064832,-0.103206,-0.377854,-0.062450,-0.101235,-0.377854,0.289879,0.299413,0.611938,-0.197632,1.237151,-9.016902
1790544594.3341,-0.070521,-0.108547,-0.369828,-0.068100,-0.106353,-0.369828,0.376083,0.346764,0.518449,0.837223,1.199971,-8.240679
1790544594.3487,-0.059882,-0.114483,-0.360360,-0.062347,-0.112044,-0.360360,0.371226,-0.759319,0.598582,0.837223,1.088431,-14.566903
1790544594.3636,-0.052442,-0.108590,-0.351888,-0.055414,-0.109626,-0.351888,-0.432536,-0.609980,0.505093,2.753622,0.716631,-12.975644
1790544594.3775,-0.049069,-0.101064,-0.345540,-0.050972,-0.103633,-0.345540,-0.676578,-0.418145,0.496594,2.791950,-0.956469,-9.327392
1790544594.3912,-0.045905,-0.092445,-0.344079,-0.047425,-0.095801,-0.344079,-0.807706,-0.507992,0.268336,3.673494,-1.588528,-6.843476
1790544594.4052,-0.037194,-0.079546,-0.342841,-0.040263,-0.084423,-0.342841,-0.942475,-0.787244,0.155421,2.102047,0.493551,-6.882287
1790544594.4193,-0.027340,-0.066517,-0.344209,-0.031217,-0.071889,-0.344209,-0.931548,-0.971794,0.078930,3.980118,0.790991,-7.619700
1790544594.4333,-0.024927,-0.060743,-0.346105,-0.026814,-0.064087,-0.346105,-0.390041,-0.324656,0.014580,3.826806,1.906391,-12.975644
1790544594.4473,-0.036055,-0.069011,-0.349111,-0.033283,-0.067534,-0.349111,0.559418,0.768072,-0.282885,2.408670,0.419191,-16.391028
1790544594.4614,-0.034796,-0.068439,-0.360952,-0.034342,-0.068167,-0.360952,0.016697,0.110007,-0.860816,-1.462456,1.311511,-10.181238
1790544594.4756,-0.025000,-0.069225,-0.369100,-0.027803,-0.068908,-0.369100,0.073762,-0.681614,-0.630129,0.722239,0.567911,-6.144874
1790544594.4896,-0.023513,-0.078741,-0.373108,-0.024800,-0.075791,-0.373108,0.675976,-0.175317,-0.292598,1.527127,0.530731,-7.813756
1790544594.5034,-0.014013,-0.092622,-0.380799,-0.017249,-0.087572,-0.380799,1.036576,-0.505563,-0.644699,-1.884064,0.976891,-9.870749
1790544594.5175,-0.000239,-0.099338,-0.399336,-0.005342,-0.095808,-0.399336,0.645622,-0.951153,-0.806180,0.492271,2.501271,-7.348021
1790544594.5314,0.008680,-0.104991,-0.413447,0.004473,-0.102236,-0.413447,0.497497,-0.716824,-0.840176,1.872079,1.757671,-8.434735
1790544594.5450,0.014888,-0.111586,-0.424654,0.011764,-0.108781,-0.424654,0.488998,-0.368365,-0.801323,-0.619240,0.605091,-9.210958
1790544594.5591,0.033613,-0.121771,-0.436099,0.027059,-0.117874,-0.436099,0.725756,-1.151487,-0.803752,-2.343999,0.567911,-8.900469
1790544594.5730,0.025785,-0.132548,-0.451039,0.026167,-0.128146,-0.451039,0.870239,0.526457,-0.808608,1.488799,3.244871,-14.528091
1790544594.5870,0.016025,-0.123695,-0.461101,0.019067,-0.125030,-0.461101,-0.608586,0.930767,-0.511143,-4.413711,1.125611,-11.733686
1790544594.6008,0.022472,-0.110545,-0.463151,0.021450,-0.114890,-0.463151,-1.068746,-0.210527,-0.485647,-4.950302,-1.700068,-11.733686
1790544594.6147,0.022185,-0.095412,-0.464770,0.021965,-0.101256,-0.464770,-1.265437,0.222922,-0.450436,-1.845736,-1.365448,-5.912007
1790544594.6286,0.013023,-0.081498,-0.468019,0.015706,-0.087425,-0.468019,-1.164663,0.742575,-0.339949,-0.619240,-1.253909,-7.270399
1790544594.6426,0.002833,-0.066291,-0.474144,0.006695,-0.072631,-0.474144,-1.033536,0.945336,-0.508715,-2.382327,1.646131,-8.589979
1790544594.6565,-0.012099,-0.054490,-0.479198,-0.006461,-0.059932,-0.479198,-0.864770,1.349646,-0.383659,-2.305671,0.419191,-6.144874
1790544594.6704,-0.008884,-0.059998,-0.484355,-0.008157,-0.059978,-0.484355,0.316590,-0.095183,-0.316881,-2.727279,-0.621849,-18.448022
1790544594.6845,-0.006888,-0.066438,-0.484607,-0.007268,-0.064500,-0.484607,0.433148,-0.176531,0.034006,1.297159,1.274331,-18.719700
1790544594.6986,-0.015390,-0.063438,-0.475722,-0.012953,-0.063757,-0.475722,-0.132643,0.462108,0.570657,1.642111,2.501271,-9.443825
1790544594.7126,-0.012953,-0.062642,-0.467215,-0.012953,-0.062976,-0.467215,-0.096218,-0.140107,0.569443,-1.309144,0.642271,-9.754315
1790544594.7266,-0.021838,-0.067249,-0.462870,-0.019172,-0.065967,-0.462870,0.334802,0.417185,0.416461,2.063719,0.753811,-5.950818
1790544594.7407,-0.031802,-0.075893,-0.456700,-0.028013,-0.072915,-0.456700,0.667477,0.556811,0.466241,1.987063,1.832031,-8.589979
1790544594.7545,-0.042760,-0.083433,-0.449987,-0.038336,-0.080277,-0.449987,0.618911,0.743789,0.497809,0.568927,2.315371,-9.288581
1790544594.7688,-0.052403,-0.088096,-0.441769,-0.048183,-0.085750,-0.441769,0.429505,0.651514,0.567015,0.262303,2.538451,-8.124245
1790544594.7835,-0.056878,-0.091989,-0.431750,-0.054269,-0.090118,-0.431750,0.315376,0.273916,0.670217,0.300631,2.575631,-10.491728
1790544594.7978,-0.058843,-0.094950,-0.422420,-0.057471,-0.093501,-0.422420,0.261954,0.082081,0.586441,0.875551,2.241011,-9.521448
1790544594.8121,-0.046961,-0.099440,-0.414252,-0.050114,-0.097658,-0.414252,0.294735,-0.829739,0.587655,-0.235960,1.311511,-12.277042
1790544594.8262,-0.040662,-0.094607,-0.402914,-0.043498,-0.095522,-0.402914,-0.369400,-0.603909,0.517235,2.791950,0.865351,-10.918651
1790544594.8402,-0.037162,-0.088424,-0.391752,-0.039063,-0.090554,-0.391752,-0.568520,-0.430286,0.520877,3.175230,-1.030829,-11.112707
1790544594.8543,-0.033570,-0.081202,-0.382898,-0.035218,-0.084008,-0.382898,-0.653510,-0.494636,0.310831,2.906934,-0.956469,-6.765853
1790544594.8686,-0.026423,-0.067631,-0.379606,-0.029061,-0.072544,-0.379606,-0.952189,-0.713182,0.126281,3.021918,0.828171,-7.580888
1790544594.8828,-0.019699,-0.053575,-0.377080,-0.022507,-0.059266,-0.377080,-0.969186,-0.705897,0.161491,3.021918,1.311511,-7.386832
1790544594.8970,-0.019751,-0.044792,-0.374652,-0.020578,-0.049134,-0.374652,-0.638940,-0.126751,-0.003632,3.481854,1.162791,-13.596623
1790544594.9113,-0.034304,-0.051327,-0.379053,-0.030186,-0.050669,-0.379053,0.439218,1.004829,-0.386087,2.791950,0.939711,-17.012007
1790544594.9253,-0.020302,-0.052611,-0.394224,-0.023267,-0.052028,-0.394224,0.158752,-0.745963,-0.740616,-4.337055,2.984611,-16.158161
1790544594.9394,-0.026663,-0.060839,-0.399387,-0.025644,-0.058195,-0.399387,0.604342,0.335837,-0.395800,3.136902,1.162791,-9.754315
1790544594.9536,-0.020656,-0.070557,-0.405834,-0.022152,-0.066849,-0.405834,0.673548,-0.280947,-0.489289,-1.079176,0.456371,-8.628791
1790544594.9677,-0.004235,-0.080165,-0.416795,-0.009610,-0.076170,-0.416795,0.697831,-0.959652,-0.679909,-2.075704,0.828171,-8.978091
1790544594.9814,0.000523,-0.090857,-0.428078,-0.002517,-0.086451,-0.428078,0.824101,-0.389006,-0.813465,1.642111,1.199971,-8.551168
1790544594.9952,0.012802,-0.098174,-0.443547,0.008207,-0.094657,-0.443547,0.618911,-0.816384,-0.868101,-0.197632,1.460231,-7.153965
1790544595.0089,0.023132,-0.105853,-0.457150,0.018654,-0.102494,-0.457150,0.614055,-0.720466,-0.869315,0.262303,1.497411,-9.288581
1790544595.0232,0.033888,-0.115001,-0.471786,0.029318,-0.111249,-0.471786,0.781606,-0.739893,-0.591277,0.147319,3.505131,-11.151518
1790544595.0374,0.004487,-0.113242,-0.469032,0.011937,-0.112644,-0.469032,-0.216418,1.886297,-0.690837,5.053301,-1.105189,-12.820399
1790544595.0514,0.004637,-0.103052,-0.481058,0.006827,-0.105930,-0.481058,-0.776138,0.205924,-0.632558,-3.762135,-0.287229,-12.703965
1790544595.0655,0.009676,-0.090023,-0.488526,0.008821,-0.094795,-0.488526,-1.045677,-0.143749,-0.624059,-2.573967,-1.216729,-8.822846
1790544595.0795,0.007741,-0.078845,-0.492817,0.008065,-0.083630,-0.492817,-1.022609,0.384403,-0.513572,-2.535639,-2.257768,-6.959909
1790544595.0933,0.001656,-0.063562,-0.502148,0.003579,-0.069582,-0.502148,-1.049320,0.573809,-0.484432,-1.117504,1.608951,-8.473546
1790544595.1073,-0.005080,-0.052105,-0.510617,-0.002482,-0.057348,-0.510617,-0.913336,0.753502,-0.451651,-3.723807,-0.621849,-10.258860
1790544595.1212,-0.011949,-0.040541,-0.518303,-0.009109,-0.045583,-0.518303,-0.906051,0.782641,-0.388515,-3.455511,-0.212869,-8.784035
1790544595.1353,-0.002429,-0.045724,-0.521297,-0.004433,-0.045682,-0.521297,0.196390,-0.596624,-0.129903,-1.692424,-2.852648,-16.934385
1790544595.1498,-0.006264,-0.045239,-0.517629,-0.005714,-0.045372,-0.517629,-0.048867,0.122148,0.403105,2.446998,1.460231,-13.596623
1790544595.1637,-0.009082,-0.044018,-0.508207,-0.008072,-0.044425,-0.508207,-0.019727,0.204710,0.560944,-0.887536,2.352551,-9.094525
1790544595.1777,-0.012183,-0.048974,-0.505019,-0.010950,-0.047609,-0.505019,0.326303,0.150073,0.305974,0.645583,0.642271,-7.813756
1790544595.1917,-0.022868,-0.055494,-0.502528,-0.019292,-0.053128,-0.502528,0.445289,0.578666,0.398249,2.370342,0.828171,-8.628791
1790544595.2060,-0.036035,-0.065189,-0.497922,-0.031012,-0.061571,-0.497922,0.731827,0.819066,0.460170,1.373815,2.055111,-9.249770
1790544595.2197,-0.046325,-0.073238,-0.490817,-0.041731,-0.069738,-0.490817,0.682047,0.690367,0.599797,0.530599,2.612811,-8.512357
1790544595.2335,-0.054806,-0.077671,-0.482119,-0.050884,-0.075291,-0.482119,0.367584,0.539813,0.696928,0.875551,2.203831,-9.482637
1790544595.2475,-0.060866,-0.084676,-0.472956,-0.057872,-0.081861,-0.472956,0.498711,0.388045,0.702999,0.415615,1.534591,-9.443825
1790544595.2616,-0.068798,-0.090528,-0.465055,-0.065520,-0.087927,-0.465055,0.470786,0.497318,0.602225,0.990535,2.129471,-8.667602
1790544595.2761,-0.059323,-0.094038,-0.457715,-0.061182,-0.092205,-0.457715,0.331160,-0.639119,0.537875,-0.389272,4.434631,-14.101168
1790544595.2908,-0.056032,-0.089769,-0.445505,-0.057577,-0.090500,-0.445505,-0.360901,-0.403575,0.543946,4.401726,0.307651,-14.023546
1790544595.3050,-0.053772,-0.082191,-0.434799,-0.054914,-0.084684,-0.434799,-0.670508,-0.316157,0.478382,3.060246,-1.068009,-11.578441
1790544595.3190,-0.049898,-0.072276,-0.427257,-0.051402,-0.075998,-0.427257,-0.887839,-0.506777,0.149350,3.826806,-1.774428,-8.434735
1790544595.3333,-0.043238,-0.054915,-0.425409,-0.045687,-0.061240,-0.425409,-1.292148,-0.670687,-0.012131,3.136902,-0.064149,-7.542077
1790544595.3474,-0.033966,-0.038293,-0.426178,-0.037482,-0.045177,-0.426178,-1.136738,-0.783602,0.076501,1.948735,1.757671,-8.124245
1790544595.3614,-0.039288,-0.034209,-0.425728,-0.038747,-0.037500,-0.425728,-0.318406,0.312768,-0.031557,2.370342,1.162791,-13.519000
1790544595.3755,-0.050341,-0.038870,-0.436766,-0.046863,-0.038459,-0.436766,0.393081,0.900413,-0.562137,0.032335,2.315371,-13.441378
1790544595.3897,-0.035299,-0.037688,-0.451739,-0.038768,-0.037919,-0.451739,0.020339,-0.784816,-0.830463,-3.723807,3.579491,-14.722147
1790544595.4037,-0.041150,-0.041627,-0.458748,-0.040436,-0.040515,-0.458748,0.286236,0.419613,-0.557281,1.603783,0.790991,-9.094525
1790544595.4177,-0.038511,-0.049102,-0.465875,-0.039089,-0.046525,-0.465875,0.556990,-0.062401,-0.502645,-0.504256,1.014071,-8.745224
1790544595.4318,-0.023774,-0.057722,-0.475395,-0.028368,-0.054363,-0.475395,0.621340,-0.817598,-0.766113,-1.922392,0.679451,-8.900469
1790544595.4456,-0.014865,-0.066255,-0.488292,-0.018916,-0.062687,-0.488292,0.661406,-0.517705,-0.942164,-0.159304,1.014071,-7.658511
1790544595.4596,-0.008319,-0.072847,-0.501130,-0.011498,-0.069799,-0.501130,0.544849,-0.420573,-0.862031,0.683911,1.646131,-8.784035
1790544595.4736,0.003772,-0.078462,-0.512407,-0.000809,-0.075863,-0.512407,0.404008,-0.792101,-0.900883,0.300631,0.828171,-10.181238
1790544595.4876,0.013230,-0.085945,-0.523229,0.009018,-0.082921,-0.523229,0.558204,-0.619693,-0.791610,0.108991,1.162791,-9.987182
1790544595.5016,0.001497,-0.091872,-0.535157,0.003753,-0.089186,-0.535157,0.541206,0.874916,-0.523285,0.300631,3.653851,-13.324944
1790544595.5158,-0.018124,-0.089125,-0.547031,-0.011561,-0.089143,-0.547031,-0.188493,1.461347,-0.717548,-0.120976,0.828171,-13.713056
1790544595.5298,-0.014627,-0.081979,-0.553669,-0.013707,-0.084128,-0.553669,-0.648653,-0.019906,-0.633772,-2.957247,-1.885968,-10.491728
1790544595.5440,-0.017769,-0.076269,-0.557868,-0.016551,-0.078627,-0.557868,-0.589160,0.403829,-0.463792,-1.884064,-2.294948,-8.628791
1790544595.5579,-0.018476,-0.065499,-0.560171,-0.017898,-0.069437,-0.560171,-0.909694,0.362548,-0.291384,-2.650623,-0.882109,-5.446273
1790544595.5719,-0.024538,-0.054862,-0.564228,-0.022546,-0.059234,-0.564228,-0.919407,0.579880,-0.185753,-1.692424,-1.662888,-9.715504
1790544595.5858,-0.021053,-0.053546,-0.564678,-0.021501,-0.055253,-0.564678,-0.195778,-0.080614,-0.161471,-3.340527,-0.956469,-14.955014
1790544595.5998,-0.016014,-0.060770,-0.560342,-0.017660,-0.059115,-0.560342,0.385796,-0.419359,0.520877,0.262303,-0.956469,-12.121798
1790544595.6136,-0.021872,-0.059382,-0.547942,-0.020608,-0.059302,-0.547942,-0.062222,0.364977,0.751564,-0.005993,1.794851,-8.628791
1790544595.6276,-0.015527,-0.055178,-0.531991,-0.017052,-0.056415,-0.531991,-0.226132,-0.136464,0.196701,-4.452038,1.832031,-6.804665
1790544595.6415,-0.017726,-0.058241,-0.534576,-0.017524,-0.057693,-0.534576,0.117471,0.177999,0.177275,-0.427600,-0.510309,-10.918651
1790544595.6556,-0.026966,-0.064797,-0.535065,-0.024133,-0.062666,-0.535065,0.429505,0.630874,0.197915,0.568927,0.530731,-10.569350
1790544595.6692,-0.032817,-0.069784,-0.525721,-0.030212,-0.067648,-0.525721,0.394295,0.483963,0.364253,-0.925864,1.534591,-9.443825
1790544595.6830,-0.034415,-0.073675,-0.515103,-0.033154,-0.071867,-0.515103,0.305663,0.168286,0.421318,-1.079176,1.646131,-10.181238
1790544595.6970,-0.037039,-0.079014,-0.506229,-0.035874,-0.076870,-0.506229,0.378511,0.124576,0.562158,0.683911,1.311511,-10.181238
1790544595.7113,-0.041348,-0.082670,-0.496387,-0.039706,-0.080930,-0.496387,0.270453,0.226564,0.581584,0.875551,1.423051,-9.055714
1790544595.7253,-0.040779,-0.085481,-0.485808,-0.040457,-0.084116,-0.485808,0.207317,-0.080614,0.581584,0.338959,1.311511,-9.210958
1790544595.7392,-0.037432,-0.086499,-0.471783,-0.038339,-0.085784,-0.471783,0.197604,-0.244523,0.433459,-0.044320,3.244871,-9.793126
1790544595.7532,-0.034008,-0.090820,-0.470244,-0.035307,-0.089309,-0.470244,0.202461,-0.208098,0.530590,-1.155832,-0.659029,-12.742777
1790544595.7670,-0.026564,-0.084713,-0.467793,-0.029187,-0.086092,-0.467793,-0.485958,-0.609980,0.335114,1.527127,0.567911,-14.334035
1790544595.7811,-0.025383,-0.074032,-0.482209,-0.026524,-0.077650,-0.482209,-0.862342,-0.341654,0.162705,5.091629,-0.770569,-10.724595
1790544595.7955,-0.023053,-0.058514,-0.495617,-0.024094,-0.064255,-0.495617,-1.144023,-0.467925,-0.004846,4.861661,-0.175689,-7.542077
1790544595.8095,-0.027204,-0.055678,-0.504079,-0.026271,-0.058251,-0.504079,-0.349974,0.222922,-0.151757,2.332014,-1.774428,-12.199420
1790544595.8234,-0.028525,-0.062664,-0.503485,-0.027849,-0.061340,-0.503485,0.521780,0.281201,-0.406727,-2.305671,1.311511,-11.927742
1790544595.8372,-0.027505,-0.057696,-0.503827,-0.027609,-0.058789,-0.503827,-0.080434,0.033516,-0.762471,-0.044320,5.326951,-9.210958
1790544595.8512,-0.028295,-0.059756,-0.521260,-0.028089,-0.059466,-0.521260,0.146610,0.141574,-1.083004,1.143847,0.456371,-11.811308
1790544595.8652,-0.034040,-0.059491,-0.538264,-0.032255,-0.059483,-0.538264,-0.003944,0.340694,-0.831677,2.945262,0.679451,-9.016902
1790544595.8790,-0.034181,-0.055835,-0.552074,-0.033603,-0.056930,-0.552074,-0.264984,0.025017,-0.813465,1.373815,0.419191,-8.085434
1790544595.8929,-0.030138,-0.054987,-0.564402,-0.031178,-0.055570,-0.564402,-0.044010,-0.155890,-0.960376,-0.044320,0.605091,-7.930189
1790544595.9064,-0.026657,-0.055270,-0.576951,-0.028013,-0.055360,-0.576951,0.096830,-0.119466,-1.027154,0.032335,1.534591,-8.861658
1790544595.9200,-0.022758,-0.053348,-0.589211,-0.024335,-0.053951,-0.589211,-0.035511,-0.147391,-1.044152,-0.005993,2.017931,-8.745224
1790544595.9339,-0.022837,-0.051262,-0.603204,-0.023287,-0.052068,-0.603204,-0.120501,0.102722,-0.967661,0.607255,1.125611,-9.987182
1790544595.9477,-0.020009,-0.050166,-0.613928,-0.020992,-0.050737,-0.613928,-0.041582,-0.081828,-0.846247,-0.082648,1.348691,-9.831937
1790544595.9616,-0.016074,-0.048820,-0.622365,-0.017550,-0.049395,-0.622365,-0.047653,-0.112181,-0.794039,-1.002520,1.608951,-9.754315
1790544595.9754,-0.017663,-0.048594,-0.629882,-0.017629,-0.048834,-0.629882,0.077404,0.221708,-0.665340,-0.159304,2.724351,-11.035084
1790544595.9892,-0.021693,-0.047754,-0.635581,-0.020474,-0.048078,-0.635581,0.071333,0.355263,-0.535426,0.415615,3.282051,-10.297672
1790544596.0032,-0.026736,-0.045330,-0.640420,-0.024857,-0.046155,-0.640420,-0.037940,0.451181,-0.468649,-0.120976,3.244871,-9.870749
1790544596.0171,-0.030814,-0.041401,-0.644618,-0.029027,-0.042827,-0.644618,-0.218847,0.434183,-0.310810,-1.615768,2.724351,-12.898021
1790544596.0310,-0.027418,-0.038114,-0.645543,-0.027901,-0.039528,-0.645543,-0.256485,-0.185030,-0.030343,-0.657568,1.162791,-12.005364
1790544596.0455,-0.032378,-0.029389,-0.639015,-0.031035,-0.032431,-0.639015,-0.603730,0.310340,0.465027,-0.044320,1.571771,-9.405014
1790544596.0595,-0.026943,-0.039080,-0.632239,-0.028171,-0.037085,-0.632239,0.512067,-0.521347,0.803772,0.913879,-1.402628,-12.898021
1790544596.0735,-0.036767,-0.047362,-0.620127,-0.034188,-0.044279,-0.620127,0.441647,0.482748,1.216581,2.408670,-0.733389,-14.450469
1790544596.0874,-0.038099,-0.051782,-0.600065,-0.036926,-0.049531,-0.600065,0.310519,0.162215,1.148589,-2.037376,1.348691,-6.727042
1790544596.1012,-0.032702,-0.056906,-0.593790,-0.033969,-0.054693,-0.593790,0.212174,-0.398719,0.728496,-0.695896,-0.696209,-7.852567
1790544596.1151,-0.036454,-0.064297,-0.588833,-0.035708,-0.061416,-0.588833,0.397937,0.124576,0.763706,1.488799,-0.584669,-9.948371
1790544596.1290,-0.040956,-0.070780,-0.576921,-0.039382,-0.067971,-0.576921,0.455002,0.235063,0.814700,0.530599,1.162791,-8.085434
1790544596.1426,-0.045525,-0.073542,-0.559881,-0.043682,-0.071870,-0.559881,0.251026,0.304269,0.904546,-0.274288,2.203831,-8.745224
1790544596.1565,-0.046304,-0.075477,-0.544596,-0.045517,-0.074395,-0.544596,0.133255,0.069940,0.870550,-1.040848,1.683311,-10.181238
1790544596.1705,-0.053049,-0.080162,-0.534791,-0.050789,-0.078432,-0.534791,0.274095,0.411114,0.794059,0.645583,0.642271,-9.987182
1790544596.1845,-0.054114,-0.083037,-0.521469,-0.053116,-0.081655,-0.521469,0.260739,0.076011,0.601011,-0.197632,2.278191,-9.482637
1790544596.1984,-0.045690,-0.084271,-0.515440,-0.047918,-0.083487,-0.515440,-0.023370,-0.573555,0.642291,-1.270816,-0.398769,-14.295224
1790544596.2123,-0.040549,-0.078215,-0.512721,-0.042759,-0.079796,-0.512721,-0.507813,-0.480066,0.393392,2.178703,0.196111,-12.781588
1790544596.2262,-0.038403,-0.070950,-0.516679,-0.039710,-0.073604,-0.516679,-0.658366,-0.395076,0.279263,4.133430,-1.105189,-9.637881
1790544596.2401,-0.029617,-0.060921,-0.520799,-0.032645,-0.064726,-0.520799,-0.818633,-0.833382,0.010938,2.676966,-0.398769,-6.921098
1790544596.2540,-0.023841,-0.053207,-0.524214,-0.026482,-0.056663,-0.524214,-0.680221,-0.482495,-0.044913,1.067191,-0.659029,-7.309210
1790544596.2679,-0.033384,-0.055724,-0.531241,-0.031313,-0.056005,-0.531241,0.132040,0.605377,-0.180897,2.868606,0.196111,-13.053266
1790544596.2819,-0.037294,-0.060964,-0.540086,-0.035500,-0.059477,-0.540086,0.411293,0.451181,-0.830463,-1.040848,1.311511,-12.626343
1790544596.2963,-0.031687,-0.064566,-0.555267,-0.032831,-0.063039,-0.555267,0.344515,-0.302802,-1.092718,0.990535,2.055111,-11.073895
1790544596.3103,-0.034538,-0.065866,-0.565731,-0.034026,-0.065018,-0.565731,0.241313,0.015304,-0.712691,2.753622,1.646131,-4.864105
1790544596.3243,-0.027887,-0.071392,-0.571257,-0.029729,-0.069480,-0.571257,0.423434,-0.361080,-0.558495,-0.427600,0.790991,-7.192776
1790544596.3383,-0.025673,-0.079515,-0.581655,-0.026890,-0.076504,-0.581655,0.648051,-0.051474,-0.819536,-0.159304,1.608951,-10.802217
1790544596.3522,-0.017682,-0.083460,-0.593615,-0.020444,-0.081373,-0.593615,0.402794,-0.467925,-0.990730,-0.082648,2.538451,-10.763406
1790544596.3657,-0.013734,-0.086015,-0.606559,-0.015747,-0.084622,-0.606559,0.247384,-0.231167,-0.970089,0.530599,1.274331,-9.249770
1790544596.3799,-0.007748,-0.092486,-0.615938,-0.010148,-0.090127,-0.615938,0.459859,-0.318585,-0.741830,-0.619240,0.605091,-10.763406
1790544596.3949,0.003752,-0.101600,-0.623321,-0.000418,-0.098158,-0.623321,0.626196,-0.667044,-0.624059,-0.925864,0.790991,-9.482637
1790544596.4101,0.011346,-0.107059,-0.626606,0.007817,-0.104389,-0.626606,0.522994,-0.481280,-0.461364,0.223975,3.691031,-9.754315
1790544596.4251,-0.019222,-0.103357,-0.635012,-0.011111,-0.103666,-0.635012,-0.189707,1.896010,-0.569422,4.056774,1.646131,-10.336483
1790544596.4402,-0.021657,-0.092193,-0.642273,-0.018493,-0.095635,-0.642273,-0.739714,0.400187,-0.535426,-4.030431,0.456371,-11.694875
1790544596.4548,-0.025847,-0.083951,-0.649647,-0.023641,-0.087456,-0.649647,-0.700861,0.483963,-0.463792,-2.267343,-1.774428,-9.133336
1790544596.4688,-0.029485,-0.077283,-0.651620,-0.027732,-0.080335,-0.651620,-0.700861,0.500960,-0.156614,-2.305671,-2.071868,-6.144874
1790544596.4830,-0.033877,-0.068767,-0.649402,-0.032033,-0.072238,-0.649402,-0.723930,0.568952,-0.078909,-3.148887,-1.105189,-7.619700
1790544596.4971,-0.037499,-0.060058,-0.646305,-0.035859,-0.063712,-0.646305,-0.591588,0.386831,-0.106834,-1.424128,1.385871,-9.831937
1790544596.5110,-0.030769,-0.062648,-0.641684,-0.032296,-0.062967,-0.641684,0.150253,-0.384149,0.146922,-2.612295,1.014071,-17.089630
1790544596.5249,-0.032385,-0.067049,-0.634961,-0.032358,-0.065824,-0.634961,0.247384,-0.017478,0.785560,1.527127,0.530731,-12.005364
1790544596.5392,-0.039912,-0.072368,-0.625103,-0.037646,-0.070405,-0.625103,0.350586,0.406257,0.781918,1.297159,1.237151,-10.258860
1790544596.5533,-0.043382,-0.084992,-0.619611,-0.041661,-0.080616,-0.619611,0.709972,0.457251,0.505093,-2.267343,-1.142369,-5.446273
1790544596.5673,-0.058512,-0.093169,-0.611770,-0.053457,-0.089403,-0.611770,0.629839,0.985403,0.455314,1.565455,1.720491,-8.939280
1790544596.5812,-0.071566,-0.102998,-0.602492,-0.066133,-0.098920,-0.602492,0.730612,0.895557,0.503879,1.182175,1.683311,-10.996273
1790544596.5947,-0.085164,-0.111284,-0.587107,-0.079455,-0.107575,-0.587107,0.672334,0.972048,0.645934,0.798895,2.129471,-8.978091
1790544596.6083,-0.091686,-0.119902,-0.571126,-0.088016,-0.116204,-0.571126,0.680833,0.530100,0.602225,-0.312616,2.203831,-10.297672
1790544596.6223,-0.087873,-0.128331,-0.559559,-0.087916,-0.124693,-0.559559,0.537564,-0.203242,0.718782,-0.772552,0.567911,-10.996273
1790544596.6362,-0.080772,-0.131350,-0.547300,-0.082915,-0.129353,-0.547300,0.203675,-0.552915,0.624079,1.565455,1.460231,-12.859210
1790544596.6502,-0.074173,-0.134742,-0.551389,-0.076796,-0.133125,-0.551389,0.067691,-0.601481,0.598582,3.060246,-1.811608,-11.306763
1790544596.6640,-0.068631,-0.133964,-0.555712,-0.071081,-0.133713,-0.555712,-0.243130,-0.548058,0.613152,3.098574,-1.997508,-10.763406
1790544596.6780,-0.069041,-0.130424,-0.560136,-0.069653,-0.131410,-0.560136,-0.424037,-0.206884,0.614366,3.405198,-1.291089,-7.309210
1790544596.6922,-0.063313,-0.119862,-0.561650,-0.065215,-0.123326,-0.561650,-0.836845,-0.554129,0.346041,2.638638,-0.547489,-8.512357
1790544596.7062,-0.060718,-0.105138,-0.564854,-0.062067,-0.110595,-0.564854,-1.131882,-0.379293,0.216128,2.983590,-0.361589,-7.658511
1790544596.7202,-0.050126,-0.088868,-0.568178,-0.053709,-0.095386,-0.568178,-1.237512,-0.929299,0.078930,3.443526,-0.287229,-10.103616
1790544596.7342,-0.037414,-0.072191,-0.567525,-0.042302,-0.079150,-0.567525,-1.218086,-1.190339,0.155421,4.823333,0.567911,-8.745224
1790544596.7483,-0.049046,-0.066521,-0.571058,-0.047023,-0.070309,-0.571058,-0.392469,0.695223,0.083786,3.251886,1.423051,-11.772497
1790544596.7623,-0.057213,-0.070596,-0.563968,-0.054156,-0.070510,-0.563968,0.325089,0.856704,-0.586420,-3.570495,1.014071,-12.587532
1790544596.7763,-0.031857,-0.069150,-0.527719,-0.038547,-0.069558,-0.527719,0.275309,-1.448952,-0.512358,-4.068759,5.141051,-4.747672
1790544596.7904,-0.037183,-0.074279,-0.534432,-0.037592,-0.072863,-0.534432,0.456216,0.243562,-0.189396,2.906934,2.203831,-8.978091
1790544596.8051,-0.024883,-0.083994,-0.535334,-0.028696,-0.080654,-0.535334,0.666263,-0.676757,-0.201537,-2.573967,1.014071,-11.772497
1790544596.8191,-0.008469,-0.093436,-0.537786,-0.014537,-0.089602,-0.537786,0.741540,-1.111420,-0.387301,-0.350944,1.683311,-9.676693
1790544596.8328,-0.004016,-0.103582,-0.542750,-0.007172,-0.099388,-0.542750,0.818031,-0.381721,-0.390943,1.373815,1.646131,-9.055714
1790544596.8466,0.004454,-0.107544,-0.546436,0.000966,-0.105097,-0.546436,0.397937,-0.628192,-0.383659,0.492271,1.757671,-7.309210
1790544596.8606,0.013237,-0.116454,-0.550971,0.009555,-0.113047,-0.550971,0.672334,-0.577198,-0.397014,-0.427600,1.088431,-9.405014
1790544596.8741,0.015488,-0.121770,-0.557258,0.013709,-0.119153,-0.557258,0.564275,-0.097612,-0.547568,-1.002520,4.285911,-12.898021
1790544596.8881,0.008165,-0.114107,-0.566937,0.009828,-0.115621,-0.566937,-0.526025,0.713435,-0.358162,-4.490366,1.385871,-15.187882
1790544596.9022,0.006193,-0.101950,-0.580142,0.007283,-0.106051,-0.580142,-0.941261,0.317625,-0.450436,-2.842263,-0.770569,-11.306763
1790544596.9161,0.000663,-0.091060,-0.597727,0.002649,-0.095557,-0.597727,-1.014110,0.536171,-0.263459,-1.270816,-2.071868,-6.455364
1790544596.9301,-0.002829,-0.075119,-0.603357,-0.001185,-0.081250,-0.603357,-1.178019,0.414756,-0.299883,-1.577440,0.084571,-7.076343
1790544596.9440,-0.008501,-0.065909,-0.612894,-0.006306,-0.070511,-0.612894,-0.889053,0.629660,0.001224,-3.493839,-2.778288,-9.055714
1790544596.9578,-0.013902,-0.054773,-0.610016,-0.011624,-0.059494,-0.610016,-0.810134,0.539813,-0.038842,-2.535639,1.199971,-12.044175
1790544596.9717,-0.004088,-0.055625,-0.611930,-0.006348,-0.056786,-0.611930,-0.050081,-0.654903,0.193059,-1.922392,-0.919289,-16.313406
1790544596.9856,-0.000971,-0.054119,-0.605421,-0.002585,-0.054919,-0.605421,-0.165424,-0.318585,0.726067,0.262303,0.419191,-10.064805
1790544596.9996,-0.009109,-0.054836,-0.597329,-0.007152,-0.054861,-0.597329,0.034909,0.366191,0.868122,1.757095,0.865351,-7.813756
1790544597.0134,-0.014045,-0.058464,-0.585800,-0.011977,-0.057383,-0.585800,0.334802,0.247205,0.494166,0.837223,1.720491,-6.921098
1790544597.0274,-0.025284,-0.062734,-0.577947,-0.021292,-0.061129,-0.577947,0.368798,0.626017,0.415247,2.676966,2.241011,-9.599070
1790544597.0414,-0.036269,-0.069879,-0.571450,-0.031776,-0.067254,-0.571450,0.527851,0.718292,0.422532,0.990535,1.720491,-11.112707
1790544597.0555,-0.045578,-0.076458,-0.556660,-0.041438,-0.073697,-0.556660,0.572774,0.612662,0.517235,0.568927,2.724351,-8.784035
1790544597.0692,-0.052674,-0.079367,-0.543138,-0.049303,-0.077666,-0.543138,0.298378,0.462108,0.534233,0.798895,2.798711,-9.987182
1790544597.0833,-0.056070,-0.083645,-0.534091,-0.054040,-0.081851,-0.534091,0.300806,0.228993,0.535447,0.108991,1.274331,-9.443825
1790544597.0973,-0.060194,-0.084475,-0.520870,-0.058348,-0.083688,-0.520870,0.133255,0.236278,0.517235,0.722239,1.980751,-7.425644
1790544597.1113,-0.060079,-0.086286,-0.509727,-0.059559,-0.085507,-0.509727,0.161180,-0.051474,0.526948,0.683911,1.906391,-9.754315
1790544597.1253,-0.043485,-0.087393,-0.510212,-0.048308,-0.086827,-0.510212,-0.057366,-1.157558,0.410390,-0.657568,-1.216729,-14.101168
1790544597.1394,-0.035008,-0.083411,-0.503549,-0.038998,-0.084436,-0.503549,-0.286839,-0.798172,0.325400,4.056774,1.348691,-12.005364
1790544597.1533,-0.028971,-0.074845,-0.499645,-0.031979,-0.077722,-0.499645,-0.642582,-0.585697,0.253766,2.638638,0.716631,-10.297672
1790544597.1673,-0.022262,-0.064828,-0.500945,-0.025177,-0.068696,-0.500945,-0.785851,-0.707111,0.059503,3.213558,-0.101329,-7.542077
1790544597.1813,-0.012867,-0.051033,-0.503822,-0.016560,-0.056332,-0.503822,-1.028679,-0.898945,-0.160256,3.558510,0.270471,-7.697322
1790544597.1953,-0.016516,-0.043011,-0.505809,-0.016529,-0.047007,-0.505809,-0.522382,0.096651,-0.127475,3.520182,2.166651,-10.025993
1790544597.2093,-0.028936,-0.045025,-0.519125,-0.025214,-0.045620,-0.519125,0.191533,1.031541,-0.818321,-0.274288,1.906391,-12.548721
1790544597.2233,-0.016710,-0.044985,-0.535376,-0.019261,-0.045175,-0.535376,0.071333,-0.515276,-1.147354,-4.298727,2.241011,-11.772497
1790544597.2373,-0.016734,-0.047678,-0.546177,-0.017492,-0.046927,-0.546177,0.187891,0.056584,-0.755186,0.568927,0.493551,-6.261308
1790544597.2513,-0.019044,-0.054926,-0.556358,-0.018578,-0.052526,-0.556358,0.505996,0.267845,-0.661697,-0.082648,0.567911,-8.939280
1790544597.2653,-0.003432,-0.061193,-0.567172,-0.007976,-0.058593,-0.567172,0.492641,-0.907444,-0.894812,-1.922392,1.683311,-10.841028
1790544597.2793,0.003566,-0.068173,-0.579733,0.000104,-0.065299,-0.579733,0.539992,-0.408432,-0.998014,0.223975,1.385871,-8.978091
1790544597.2931,0.004114,-0.070543,-0.590684,0.002911,-0.068970,-0.590684,0.269238,-0.012622,-0.962804,0.952207,1.980751,-7.891378
1790544597.3073,0.013796,-0.073315,-0.601738,0.010531,-0.072011,-0.601738,0.243741,-0.555343,-0.857174,-0.772552,1.720491,-9.715504
1790544597.3215,0.024491,-0.082549,-0.613002,0.020303,-0.079388,-0.613002,0.689332,-0.616050,-0.853532,-1.270816,1.683311,-10.375294
1790544597.3354,0.025959,-0.083821,-0.616400,0.024262,-0.082491,-0.616400,0.310519,-0.091541,-0.642271,0.530599,4.880791,-9.637881
1790544597.3494,0.013608,-0.083934,-0.628962,0.016804,-0.083501,-0.628962,-0.084077,0.910126,-0.751544,0.952207,-0.807749,-14.605714
1790544597.3634,0.013279,-0.075323,-0.643828,0.014337,-0.077776,-0.643828,-0.646225,0.273916,-0.541497,-3.992103,0.456371,-11.267951
1790544597.3774,0.009796,-0.066391,-0.658351,0.011158,-0.069806,-0.658351,-0.811348,0.394116,-0.410370,-1.539112,-1.700068,-8.822846
1790544597.3915,0.006818,-0.059091,-0.669974,0.008120,-0.062306,-0.669974,-0.771281,0.443896,-0.144473,-2.382327,-2.146228,-5.950818
1790544597.4053,-0.000407,-0.044116,-0.672044,0.002151,-0.049573,-0.672044,-1.113669,0.769286,-0.253745,-2.650623,0.493551,-7.464455
1790544597.4193,-0.004544,-0.034456,-0.675585,-0.002536,-0.038991,-0.675585,-0.746998,0.434183,-0.081337,-1.577440,0.307651,-8.124245
1790544597.4333,0.009499,-0.040292,-0.678142,0.005889,-0.039902,-0.678142,0.289879,-0.884376,0.075287,-4.835318,-1.662888,-20.699071
1790544597.4470,0.005013,-0.044877,-0.674210,0.005276,-0.043384,-0.674210,0.285022,0.161001,0.653219,2.102047,0.753811,-14.683336
1790544597.4604,0.004625,-0.048755,-0.664950,0.004820,-0.047144,-0.664950,0.223101,0.057799,0.727281,-2.037376,0.233291,-11.151518
1790544597.4734,-0.000399,-0.052616,-0.654854,0.001167,-0.050975,-0.654854,0.325089,0.373476,0.520877,-0.312616,0.828171,-4.980539
1790544597.4866,-0.006732,-0.057839,-0.650183,-0.004362,-0.055780,-0.650183,0.404008,0.397758,0.390964,0.913879,1.423051,-10.918651
1790544597.5004,-0.016972,-0.065594,-0.640341,-0.013189,-0.062650,-0.640341,0.604342,0.607805,0.552445,1.488799,1.757671,-9.210958
1790544597.5140,-0.030235,-0.072684,-0.627480,-0.025121,-0.069674,-0.627480,0.573988,0.882201,0.665360,0.875551,1.980751,-9.327392
1790544597.5276,-0.038198,-0.077349,-0.609094,-0.034275,-0.075047,-0.609094,0.436790,0.510674,0.734566,0.683911,2.984611,-10.220049
1790544597.5415,-0.045385,-0.082284,-0.594070,-0.042052,-0.080113,-0.594070,0.388224,0.442682,0.753993,0.683911,2.017931,-9.870749
1790544597.5561,-0.049068,-0.088936,-0.580990,-0.046963,-0.086289,-0.580990,0.464715,0.177999,0.692071,0.875551,1.460231,-9.327392
1790544597.5702,-0.036751,-0.094349,-0.567857,-0.039814,-0.091931,-0.567857,0.389439,-0.883161,0.670217,-0.350944,1.943571,-13.014455
1790544597.5841,-0.028214,-0.087046,-0.558661,-0.031694,-0.088512,-0.558661,-0.558806,-0.789673,0.585227,2.868606,0.753811,-10.996273
1790544597.5981,-0.027668,-0.081064,-0.560135,-0.028875,-0.083298,-0.560135,-0.619514,-0.293088,0.626508,4.171758,-2.183408,-10.452916
1790544597.6119,-0.024860,-0.074337,-0.559300,-0.026065,-0.077025,-0.559300,-0.611015,-0.440000,0.384893,3.213558,-0.807749,-8.279490
1790544597.6258,-0.019813,-0.061450,-0.554136,-0.021689,-0.066123,-0.554136,-0.926692,-0.603909,0.310831,3.328542,1.051251,-8.279490
1790544597.6397,-0.017767,-0.047713,-0.553130,-0.018944,-0.053236,-0.553130,-1.073603,-0.463068,0.082572,5.091629,-0.250049,-8.318301
1790544597.6540,-0.010565,-0.030893,-0.553999,-0.013079,-0.037596,-0.553999,-1.171948,-0.692541,-0.075266,3.366870,1.274331,-8.939280
1790544597.6683,-0.024151,-0.031309,-0.558601,-0.020829,-0.033195,-0.558601,-0.078006,0.868846,-0.271958,3.826806,-1.030829,-14.799770
1790544597.6824,-0.023765,-0.039294,-0.564934,-0.022884,-0.037465,-0.564934,0.618911,0.283629,-0.774612,-3.455511,1.794851,-10.491728
1790544597.6966,-0.017545,-0.046058,-0.577006,-0.019147,-0.043480,-0.577006,0.565489,-0.544416,-0.695693,2.791950,1.869211,-7.386832
1790544597.7107,-0.019357,-0.047286,-0.587107,-0.019294,-0.046144,-0.587107,0.215816,0.060227,-0.501430,2.140375,2.649991,-8.046623
1790544597.7247,-0.011110,-0.053521,-0.592857,-0.013565,-0.051308,-0.592857,0.428291,-0.526204,-0.529356,0.223975,0.790991,-11.229140
1790544597.7388,0.003932,-0.064648,-0.602903,-0.001317,-0.060646,-0.602903,0.805889,-0.931727,-0.851103,-0.772552,1.014071,-9.443825
1790544597.7523,0.011448,-0.074634,-0.614791,0.007619,-0.070438,-0.614791,0.796176,-0.567485,-0.830463,1.258831,1.571771,-8.240679
1790544597.7659,0.018822,-0.078481,-0.627390,0.015461,-0.076068,-0.627390,0.433148,-0.541988,-0.739402,0.798895,2.798711,-7.969000
1790544597.7799,0.028631,-0.086292,-0.637120,0.024680,-0.083225,-0.637120,0.560633,-0.633048,-0.726047,-0.312616,0.976891,-9.793126
1790544597.7940,0.027116,-0.098050,-0.647245,0.026385,-0.093603,-0.647245,0.980726,0.171928,-0.440723,-0.734224,3.616671,-10.491728
1790544597.8084,0.005330,-0.096629,-0.651179,0.011646,-0.095721,-0.651179,-0.098647,1.373929,-0.569422,4.823333,1.237151,-14.916203
1790544597.8225,0.006078,-0.083297,-0.659242,0.007748,-0.087024,-0.659242,-0.991041,0.204710,-0.546354,-3.762135,0.047391,-10.025993
1790544597.8365,0.004061,-0.076185,-0.659674,0.005167,-0.079437,-0.659674,-0.700861,0.326124,-0.392158,-2.305671,-2.332128,-9.249770
1790544597.8505,-0.002076,-0.066186,-0.661288,0.000097,-0.070161,-0.661288,-0.765211,0.600520,-0.126260,-1.692424,0.047391,-6.998721
1790544597.8650,-0.004996,-0.055552,-0.664390,-0.003468,-0.059935,-0.664390,-0.785851,0.458466,-0.275600,-3.800463,0.084571,-9.560259
1790544597.8791,-0.012611,-0.046107,-0.666948,-0.009868,-0.050255,-0.666948,-0.761568,0.749860,-0.132331,-2.535639,-0.398769,-8.201867
1790544597.8934,-0.002577,-0.049858,-0.663761,-0.004764,-0.049977,-0.663761,0.142968,-0.696184,0.268336,-0.849208,-0.993649,-13.596623
1790544597.9073,-0.005767,-0.053223,-0.655195,-0.005467,-0.052249,-0.655195,0.180606,0.029873,0.819556,2.370342,0.419191,-12.548721
1790544597.9213,-0.013756,-0.057034,-0.645338,-0.011269,-0.055599,-0.645338,0.219459,0.381975,0.909403,1.795423,0.530731,-10.336483
1790544597.9353,-0.017438,-0.063642,-0.636755,-0.015587,-0.061229,-0.636755,0.499925,0.188926,0.611938,0.338959,1.348691,-7.580888
1790544597.9495,-0.032920,-0.070451,-0.631840,-0.027720,-0.067685,-0.631840,0.526637,0.855490,0.536661,3.443526,1.906391,-8.939280
1790544597.9637,-0.045572,-0.081255,-0.624294,-0.040217,-0.077184,-0.624294,0.760966,0.783856,0.653219,1.297159,1.237151,-9.055714
1790544597.9774,-0.053564,-0.089312,-0.614929,-0.049560,-0.085673,-0.614929,0.722113,0.564096,0.662932,0.070663,3.207691,-8.512357
1790544597.9911,-0.062252,-0.094196,-0.605548,-0.058445,-0.091639,-0.605548,0.456216,0.555597,0.698142,1.182175,3.133331,-9.715504
1790544598.0051,-0.068168,-0.100077,-0.596274,-0.065251,-0.097546,-0.596274,0.423434,0.364977,0.693285,0.913879,1.534591,-9.599070
1790544598.0189,-0.070258,-0.100997,-0.589292,-0.068755,-0.099962,-0.589292,0.201246,0.112435,0.488095,0.875551,3.505131,-9.405014
1790544598.0332,-0.053896,-0.107986,-0.581811,-0.058354,-0.105579,-0.581811,0.345729,-1.038572,0.564586,-2.305671,-1.291089,-11.966553
1790544598.0473,-0.050508,-0.103440,-0.572789,-0.052862,-0.104082,-0.572789,-0.392469,-0.401147,0.421318,3.635166,-0.101329,-12.393476
1790544598.0617,-0.044736,-0.099087,-0.563898,-0.047174,-0.100586,-0.563898,-0.427679,-0.541988,0.397035,2.906934,-1.216729,-11.500819
1790544598.0758,-0.042349,-0.091691,-0.557085,-0.043796,-0.094359,-0.557085,-0.651081,-0.433929,0.117782,3.635166,-0.993649,-6.727042
1790544598.0897,-0.036026,-0.079131,-0.553879,-0.038357,-0.083699,-0.553879,-0.932762,-0.635477,0.159063,2.983590,0.493551,-8.900469
1790544598.1036,-0.031567,-0.066038,-0.551198,-0.033604,-0.071337,-0.551198,-1.001968,-0.574769,0.024293,4.325070,-0.064149,-8.551168
1790544598.1175,-0.024045,-0.049686,-0.549749,-0.026912,-0.056181,-0.549749,-1.250867,-0.747178,-0.121404,3.673494,-0.026969,-8.939280
1790544598.1313,-0.035928,-0.048577,-0.553102,-0.033224,-0.050858,-0.553102,-0.165424,0.850633,-0.597348,3.021918,-1.030829,-16.041728
1790544598.1453,-0.024496,-0.053800,-0.563191,-0.027114,-0.052917,-0.563191,0.450146,-0.444856,-0.676267,-5.563550,2.166651,-10.452916
1790544598.1592,-0.029775,-0.058037,-0.582713,-0.028977,-0.056501,-0.582713,0.566703,0.307912,-0.174826,1.642111,4.323091,-7.270399
1790544598.1730,-0.032112,-0.066431,-0.585186,-0.031171,-0.063452,-0.585186,0.558204,0.282415,-0.437081,-0.772552,-0.064149,-11.966553
1790544598.1869,-0.015333,-0.071213,-0.591891,-0.020084,-0.068885,-0.591891,0.370012,-1.100493,-0.564566,-0.542584,0.976891,-8.473546
1790544598.2006,-0.013139,-0.078955,-0.601794,-0.015222,-0.075934,-0.601794,0.587344,-0.200814,-0.763685,1.795423,0.790991,-8.706413
1790544598.2141,0.001790,-0.086460,-0.613943,-0.003313,-0.083302,-0.613943,0.611627,-0.971794,-0.801323,-0.695896,1.199971,-7.580888
1790544598.2278,0.009612,-0.094940,-0.625952,0.005735,-0.091448,-0.625952,0.656550,-0.521347,-0.820750,0.147319,1.088431,-8.939280
1790544598.2417,0.019256,-0.103093,-0.637740,0.015200,-0.099600,-0.637740,0.620125,-0.597838,-0.745473,-0.810880,1.237151,-9.831937
1790544598.2556,0.015057,-0.108768,-0.647911,0.015100,-0.106018,-0.647911,0.479285,0.293342,-0.499002,0.837223,2.501271,-13.402567
1790544598.2695,-0.003530,-0.103584,-0.655582,0.002059,-0.104314,-0.655582,-0.348760,1.403068,-0.354519,-0.810880,1.571771,-15.575993
1790544598.2836,-0.001345,-0.091315,-0.661091,-0.000324,-0.095215,-0.661091,-0.865984,0.164643,-0.440723,-5.793518,0.865351,-10.879840
1790544598.2977,-0.006165,-0.086720,-0.656529,-0.004412,-0.089268,-0.656529,-0.550307,0.551954,-0.278028,-2.765607,-2.889828,-8.395923
1790544598.3119,-0.008403,-0.078064,-0.654566,-0.007206,-0.081425,-0.654566,-0.727572,0.407472,-0.084980,-3.378855,-1.068009,-7.930189
1790544598.3260,-0.015084,-0.070745,-0.652527,-0.012720,-0.073949,-0.652527,-0.635297,0.617518,0.101998,-1.999048,-0.844929,-8.706413
1790544598.3400,-0.020128,-0.058965,-0.644118,-0.017905,-0.063460,-0.644118,-0.994683,0.623589,0.420103,-4.030431,-1.216729,-7.309210
1790544598.3539,-0.010893,-0.058382,-0.636808,-0.012997,-0.059906,-0.636808,-0.209134,-0.543202,0.525734,-4.835318,-2.518028,-16.429840
1790544598.3679,-0.006420,-0.062518,-0.623993,-0.008393,-0.061734,-0.623993,0.192747,-0.534703,1.273645,1.757095,-0.287229,-13.014455
1790544598.3817,-0.013282,-0.063848,-0.607758,-0.011815,-0.063214,-0.607758,0.062834,0.329766,1.310070,0.722239,0.939711,-9.987182
1790544598.3956,-0.016530,-0.062571,-0.586532,-0.015115,-0.062764,-0.586532,0.076190,0.128219,1.012605,0.147319,1.980751,-4.359560
1790544598.4095,-0.024393,-0.066286,-0.575183,-0.021609,-0.065229,-0.575183,0.306877,0.401401,0.840197,1.718767,2.129471,-10.025993
1790544598.4234,-0.035415,-0.071203,-0.563671,-0.031273,-0.069411,-0.563671,0.413721,0.592021,0.869336,2.600310,2.649991,-10.220049
1790544598.4369,-0.046457,-0.076556,-0.551474,-0.041902,-0.074413,-0.551474,0.446503,0.692795,0.872978,1.220503,2.241011,-9.133336
1790544598.4504,-0.053637,-0.080143,-0.538519,-0.050117,-0.078424,-0.538519,0.344515,0.436611,0.848696,0.990535,3.096151,-10.103616
1790544598.4649,-0.058081,-0.086363,-0.527596,-0.055692,-0.083981,-0.527596,0.401580,0.216851,0.750350,1.143847,1.125611,-9.715504
1790544598.4800,-0.061997,-0.095406,-0.520153,-0.060105,-0.091979,-0.520153,0.584915,0.188926,0.479596,1.143847,0.939711,-8.551168
1790544598.4951,-0.051352,-0.096865,-0.510216,-0.053978,-0.095399,-0.510216,0.104115,-0.795743,0.545160,1.987063,2.017931,-12.548721
1790544598.5098,-0.045683,-0.087140,-0.501878,-0.048171,-0.089618,-0.501878,-0.745784,-0.478852,0.547588,2.025391,-0.064149,-14.178791
1790544598.5252,-0.041295,-0.077417,-0.495538,-0.043358,-0.081077,-0.495538,-0.782209,-0.461854,0.465027,2.868606,-1.365448,-9.249770
1790544598.5393,-0.033464,-0.066054,-0.494550,-0.036432,-0.070561,-0.494550,-0.920621,-0.752034,0.104427,2.753622,-0.584669,-7.658511
1790544598.5535,-0.025675,-0.052214,-0.493157,-0.028902,-0.057718,-0.493157,-1.025037,-0.765390,0.173633,2.945262,0.233291,-7.503266
1790544598.5677,-0.025488,-0.038923,-0.498177,-0.026512,-0.044562,-0.498177,-0.924263,-0.186244,-0.148115,4.823333,1.869211,-12.742777
1790544598.5818,-0.034543,-0.042151,-0.503800,-0.032134,-0.042874,-0.503800,0.123541,0.651514,-0.637414,2.945262,-1.625708,-16.313406
1790544598.5957,-0.018576,-0.043557,-0.512978,-0.022644,-0.043352,-0.512978,0.121113,-0.767818,-1.124285,-3.340527,0.753811,-8.201867
1790544598.6098,-0.029954,-0.042293,-0.547776,-0.027761,-0.042611,-0.547776,0.031267,0.412328,-0.732117,5.551565,1.385871,-3.428091
1790544598.6239,-0.031882,-0.048030,-0.554561,-0.030645,-0.046404,-0.554561,0.399152,0.179213,-0.590063,0.683911,0.456371,-7.037532
1790544598.6377,-0.020074,-0.051651,-0.560541,-0.023246,-0.050077,-0.560541,0.255883,-0.752034,-0.671410,-0.120976,1.051251,-13.907112
1790544598.6518,-0.013147,-0.059140,-0.568867,-0.016177,-0.056421,-0.568867,0.502354,-0.391434,-0.888742,0.223975,0.270471,-12.471098
1790544598.6654,-0.011230,-0.061782,-0.586459,-0.012714,-0.060173,-0.586459,0.285022,-0.085470,-0.962804,0.913879,1.980751,-9.016902
1790544598.6791,-0.003423,-0.061706,-0.600969,-0.006211,-0.061246,-0.600969,0.087117,-0.392648,-0.889956,-1.040848,1.943571,-8.279490
1790544598.6932,0.004665,-0.066085,-0.609508,0.001402,-0.064634,-0.609508,0.302020,-0.413289,-0.802538,-1.117504,0.642271,-8.667602
1790544598.7072,0.013441,-0.072520,-0.616337,0.009829,-0.070154,-0.616337,0.448931,-0.489779,-0.645913,-1.270816,0.790991,-10.064805
1790544598.7212,0.008821,-0.073502,-0.622122,0.009124,-0.072498,-0.622122,0.087117,0.385617,-0.339949,-0.465928,1.794851,-14.528091
1790544598.7351,-0.005272,-0.066085,-0.623693,-0.000954,-0.068009,-0.623693,-0.561235,1.112888,-0.174826,-1.999048,0.865351,-17.206063
1790544598.7490,-0.004666,-0.055737,-0.616777,-0.003552,-0.059419,-0.616777,-0.823489,0.181641,-0.007275,-4.260399,-0.212869,-11.423196
1790544598.7629,-0.004058,-0.050865,-0.605547,-0.003907,-0.053431,-0.605547,-0.574590,0.165857,0.122639,-3.033903,-2.294948,-7.774944
1790544598.7769,-0.006440,-0.048659,-0.596243,-0.005680,-0.050091,-0.596243,-0.400968,0.396544,0.284120,-2.458983,-1.774428,-5.213406
