t,imu_roll,imu_pitch,imu_yaw,lpf_roll,lpf_pitch,lpf_yaw,gyro_x,gyro_y,gyro_z,acc_x,acc_y,acc_z
1790541905.4086,0.006093,-0.054659,0.005539,0.004265,-0.038261,0.005539,0.002351,0.006244,0.002891,0.108991,1.237151,-10.142427
1790541905.4244,-0.000767,-0.046248,0.004113,0.000742,-0.043852,0.004113,0.012064,0.000173,-0.003180,0.262303,1.423051,-9.987182
1790541905.4382,0.001927,-0.047660,0.004711,0.001571,-0.046518,0.004711,-0.008576,-0.011968,-0.003180,0.108991,1.274331,-9.909560
1790541905.4518,-0.002463,-0.049177,0.002990,-0.001253,-0.048379,0.002990,-0.028002,0.001387,-0.003180,0.338959,1.237151,-9.948371
1790541905.4658,0.000134,-0.050642,0.004108,-0.000282,-0.049963,0.004108,-0.060784,0.011100,-0.000752,0.070663,1.237151,-10.375294
1790541905.4797,-0.001123,-0.048634,0.003637,-0.000871,-0.049032,0.003637,-0.114206,-0.003469,0.008962,0.262303,1.348691,-10.142427
1790541905.4940,-0.003367,-0.048655,0.002974,-0.002618,-0.048768,0.002974,-0.114206,0.066951,0.007747,0.300631,1.237151,-10.258860
1790541905.5087,-0.005302,-0.046956,0.003005,-0.004497,-0.047500,0.003005,-0.160344,0.093662,0.032030,0.262303,1.237151,-9.676693
1790541905.5228,-0.007907,-0.045995,0.003964,-0.006884,-0.046447,0.003964,-0.211338,0.099733,0.113378,0.338959,1.162791,-9.909560
1790541905.5368,-0.006636,-0.044484,0.009004,-0.006710,-0.045073,0.009004,-0.170057,0.014743,0.245719,0.070663,1.237151,-9.676693
1790541905.5509,-0.007534,-0.042529,0.013422,-0.007287,-0.043292,0.013422,-0.200411,-0.107886,0.402344,0.415615,1.274331,-9.831937
1790541905.5653,-0.018949,-0.047988,0.013978,-0.015451,-0.046579,0.013978,-0.047429,0.059666,0.580823,1.412143,0.642271,-9.987182
1790541905.5793,-0.021626,-0.044649,0.014744,-0.019774,-0.045228,0.014744,0.008422,-0.070247,0.630602,0.683911,1.757671,-9.715504
1790541905.5933,-0.010825,-0.036254,0.026176,-0.013510,-0.038946,0.026176,-0.150631,-0.111528,0.520115,-1.194160,2.575631,-11.073895
1790541905.6072,-0.009981,-0.042388,0.033102,-0.011040,-0.041356,0.033102,-0.068069,-0.121241,0.374418,0.338959,0.456371,-11.617252
1790541905.6211,-0.010529,-0.045012,0.037838,-0.010682,-0.043915,0.037838,-0.043786,-0.058106,0.354992,0.415615,0.939711,-10.724595
1790541905.6350,-0.009664,-0.046048,0.043966,-0.009969,-0.045408,0.043966,0.005994,-0.105457,0.397487,0.262303,1.237151,-10.258860
1790541905.6489,-0.009013,-0.046601,0.051083,-0.009300,-0.046243,0.051083,-0.076568,-0.004684,0.334352,0.070663,1.088431,-10.142427
1790541905.6624,-0.011082,-0.044577,0.052607,-0.010547,-0.045077,0.052607,-0.128776,0.056024,0.251790,0.415615,1.311511,-9.249770
1790541905.6762,-0.007967,-0.041254,0.058761,-0.008741,-0.042401,0.058761,-0.155487,-0.100601,0.157087,-0.120976,1.608951,-9.909560
1790541905.6902,-0.007560,-0.036415,0.058073,-0.007915,-0.038211,0.058073,-0.202839,-0.138239,0.069669,0.530599,1.832031,-9.909560
1790541905.7041,-0.004081,-0.031882,0.057334,-0.005231,-0.033780,0.057334,-0.219837,-0.332502,0.007747,0.453943,1.794851,-9.987182
1790541905.7180,-0.002334,-0.022383,0.052861,-0.003203,-0.025802,0.052861,-0.360677,-0.466058,0.010176,1.105519,2.278191,-8.745224
1790541905.7319,0.002772,-0.011682,0.051246,0.000979,-0.015918,0.051246,-0.467522,-0.721027,0.112164,1.182175,2.612811,-9.637881
1790541905.7459,0.002679,-0.002958,0.052784,0.002169,-0.006846,0.052784,-0.401958,-0.399280,0.117020,1.450471,2.501271,-9.793126
1790541905.7602,-0.009467,-0.011568,0.048602,-0.005976,-0.010151,0.048602,0.778188,0.563535,-0.227796,1.948735,2.984611,-12.936833
1790541905.7741,0.000028,0.003133,-0.053119,-0.001773,-0.000852,-0.053119,0.721123,0.527111,-0.482766,-3.072231,6.516710,-4.980539
1790541905.7880,0.018487,0.006738,0.022102,0.012409,0.004461,0.022102,0.847394,0.143442,-0.760805,-3.877119,3.616671,-4.631238
1790541905.8317,-0.013854,0.009169,0.038824,-0.005975,0.007757,0.038824,0.056988,0.806363,-1.163900,1.987063,3.282051,-10.918651
1790541905.8458,0.008988,0.005648,-0.182467,0.004499,0.006281,-0.182467,-0.217409,-0.123669,-1.117762,-3.417183,0.530731,-8.318301
1790541905.8598,0.005741,-0.000393,-0.214630,0.005369,0.001609,-0.214630,0.118909,0.411767,-1.134760,0.377287,0.605091,-11.267951
1790541905.8737,-0.001196,-0.000500,-0.209249,0.000774,0.000133,-0.209249,0.260963,0.680093,-1.308383,0.300631,2.464091,-9.172147
1790541905.8873,-0.006688,0.001367,-0.212046,-0.004449,0.000997,-0.212046,-0.015861,0.523468,-1.292599,0.645583,2.055111,-9.560259
1790541905.9008,-0.017662,0.003976,-0.215346,-0.013698,0.003082,-0.215346,-0.240477,0.805149,-1.236748,1.220503,1.274331,-9.133336
1790541905.9147,-0.013762,0.006039,-0.249396,-0.013743,0.005152,-0.249396,-0.253833,0.113088,-1.031558,-0.504256,1.274331,-9.754315
1790541905.9288,-0.012028,0.005720,-0.272236,-0.012542,0.005549,-0.272236,-0.160344,0.039026,-0.794800,0.300631,0.976891,-10.685784
1790541905.9428,-0.009268,0.004577,-0.288797,-0.010251,0.004869,-0.288797,-0.100851,-0.110314,-0.578683,0.377287,0.902531,-9.793126
1790541905.9567,-0.011808,0.010031,-0.272634,-0.011341,0.008482,-0.272634,-0.239263,0.045096,-0.440271,1.143847,2.166651,-8.512357
1790541905.9706,-0.014471,0.014733,-0.277943,-0.013532,0.012858,-0.277943,-0.337609,0.243001,-0.401418,0.492271,1.943571,-10.297672
1790541905.9846,-0.024594,0.023731,-0.255830,-0.021276,0.020469,-0.255830,-0.456595,0.512541,-0.227796,1.565455,2.575631,-8.745224
1790541905.9987,-0.021173,0.013002,-0.240463,-0.021204,0.015242,-0.240463,0.710196,-0.489126,0.227507,1.948735,2.352551,-13.713056
1790541906.0129,-0.031722,0.008526,-0.109842,-0.028567,0.010541,-0.109842,0.991877,-0.314290,0.835792,3.826806,4.397451,-5.834385
1790541906.0272,-0.048689,0.005516,-0.100054,-0.042652,0.007023,-0.100054,0.864392,0.564749,1.255886,2.063719,3.876931,-5.407462
1790541906.0410,-0.055394,-0.005827,-0.123403,-0.051571,-0.001972,-0.123403,0.572998,0.649739,1.513284,-1.807408,1.162791,-13.402567
1790541906.0549,-0.046396,-0.011827,-0.135195,-0.047949,-0.008871,-0.135195,0.240323,-0.544977,1.635912,-1.654096,1.571771,-12.160609
1790541906.0689,-0.028152,-0.019934,-0.175364,-0.034091,-0.016615,-0.175364,0.145620,-0.750167,1.436793,-3.685479,-0.361589,-8.589979
1790541906.0828,-0.035976,-0.023752,-0.152995,-0.035410,-0.021611,-0.152995,0.005994,0.247858,1.397940,1.220503,0.344831,-11.035084
1790541906.0967,-0.045866,-0.039642,-0.125460,-0.042729,-0.034233,-0.125460,0.665273,0.374129,1.419795,1.642111,-1.328269,-11.850119
1790541906.1108,-0.048439,-0.049252,-0.114650,-0.046726,-0.044746,-0.114650,0.495293,0.143442,1.431936,-0.274288,0.753811,-10.530539
1790541906.1243,-0.054651,-0.057760,-0.112530,-0.052274,-0.053856,-0.112530,0.355667,0.793008,1.184251,-1.922392,0.010211,-8.512357
1790541906.1380,-0.058017,-0.064169,-0.110341,-0.056294,-0.061075,-0.110341,0.258535,0.593888,0.837006,-1.922392,0.196111,-8.939280
1790541906.1521,-0.057091,-0.067420,-0.107748,-0.056852,-0.065516,-0.107748,0.174759,0.111874,0.523758,-0.964192,1.199971,-11.617252
1790541906.1660,-0.052329,-0.068347,-0.101683,-0.053686,-0.067498,-0.101683,0.065487,-0.287579,0.433911,-0.005993,1.646131,-12.354665
1790541906.1799,-0.047263,-0.063592,-0.098209,-0.049190,-0.064764,-0.098209,-0.558582,-0.557118,0.370776,2.217030,-0.175689,-13.247322
1790541906.1938,-0.051647,-0.058516,-0.056239,-0.050910,-0.060390,-0.056239,-0.740704,-0.285150,0.296713,4.593365,-1.588528,-9.055714
1790541906.2076,-0.037995,-0.048229,-0.047526,-0.041870,-0.051878,-0.047526,-1.062451,-1.315957,0.215366,2.102047,-0.696209,-7.774944
1790541906.2216,-0.033688,-0.035019,-0.012943,-0.036143,-0.040076,-0.012943,-1.200864,-1.040347,0.209295,3.481854,-0.324409,-5.368651
1790541906.2355,-0.021632,-0.021864,-0.005071,-0.025985,-0.027328,-0.005071,-1.248215,-1.237038,0.090309,1.833751,-0.398769,-6.106063
1790541906.2493,-0.016593,-0.011763,-0.004202,-0.019411,-0.016432,-0.004202,-0.847548,-0.679747,0.001677,3.060246,0.902531,-11.345574
1790541906.2636,-0.030405,-0.026946,-0.003191,-0.027107,-0.023791,-0.003191,0.751477,0.925349,-0.457269,3.098574,-2.294948,-20.505015
1790541906.2784,-0.024871,-0.025591,-0.021539,-0.025542,-0.025051,-0.021539,0.336240,0.018385,-1.077696,-1.347472,4.062831,-8.046623
1790541906.2932,-0.033489,-0.026586,-0.040681,-0.031105,-0.026126,-0.040681,0.063058,0.215076,-1.083766,3.711822,0.679451,-6.649420
1790541906.3079,-0.035557,-0.029669,-0.051928,-0.034222,-0.028606,-0.051928,0.281604,0.375343,-0.779017,-0.274288,1.162791,-6.688231
1790541906.3222,-0.033002,-0.044010,-0.055231,-0.033368,-0.039389,-0.055231,0.883818,-0.064177,-0.749877,0.530599,0.084571,-11.772497
1790541906.3374,-0.019498,-0.054545,-0.066659,-0.023659,-0.049998,-0.066659,0.798828,-0.642108,-0.860364,-0.925864,2.017931,-10.608161
1790541906.3510,-0.015077,-0.055004,-0.083011,-0.017651,-0.053502,-0.083011,0.107982,-0.394423,-0.935641,1.757095,1.534591,-9.637881
1790541906.3645,-0.008396,-0.059282,-0.093928,-0.011172,-0.057548,-0.093928,0.304673,-0.415064,-0.959924,0.530599,0.902531,-10.297672
1790541906.3785,-0.001029,-0.064806,-0.105884,-0.004072,-0.062629,-0.105884,0.372665,-0.480627,-0.973279,0.568927,0.605091,-7.658511
1790541906.3923,0.006269,-0.066221,-0.122020,0.003166,-0.065144,-0.122020,0.196614,-0.466058,-0.916215,0.415615,1.683311,-9.288581
1790541906.4063,-0.006195,-0.063903,-0.140430,-0.003387,-0.064275,-0.140430,-0.035287,0.919279,-0.787516,1.182175,3.058971,-14.256413
1790541906.4202,-0.012959,-0.053352,-0.146287,-0.010087,-0.056629,-0.146287,-0.778342,0.722588,-0.598109,-1.922392,1.720491,-18.098721
1790541906.4342,-0.014433,-0.040442,-0.133130,-0.013130,-0.045298,-0.133130,-1.164439,0.598745,-0.446342,-3.417183,-0.993649,-9.210958
1790541906.4481,-0.015573,-0.031972,-0.122768,-0.014840,-0.035970,-0.122768,-1.013886,0.676450,-0.263006,-2.152360,-1.179549,-4.049070
1790541906.4621,-0.029973,-0.010139,-0.129352,-0.025433,-0.017888,-0.129352,-1.233645,1.143895,-0.287289,-0.005993,1.460231,-3.001168
1790541906.4760,-0.035089,0.000447,-0.129458,-0.032192,-0.005053,-0.129458,-0.673926,0.609672,-0.193800,-1.347472,2.501271,-10.103616
1790541906.4899,-0.024567,-0.016172,-0.127354,-0.026855,-0.012837,-0.127354,1.051370,-0.776878,0.188655,0.377287,0.865351,-20.000469
1790541906.5043,-0.033374,-0.014439,-0.118524,-0.031418,-0.013958,-0.118524,0.056988,0.338919,0.869788,1.603783,3.207691,-8.163056
1790541906.5190,-0.026605,-0.018781,-0.097600,-0.028049,-0.017334,-0.097600,0.172331,-0.525551,1.281382,-1.002520,1.014071,-9.715504
1790541906.5331,-0.010095,-0.032698,-0.096084,-0.015481,-0.028089,-0.096084,0.586354,-0.867939,0.812724,-3.148887,-1.700068,-6.959909
1790541906.5471,-0.031503,-0.041288,-0.101435,-0.026697,-0.037329,-0.101435,0.586354,1.046763,0.897714,3.520182,1.162791,-8.201867
1790541906.5609,-0.040963,-0.052769,-0.085658,-0.036683,-0.048137,-0.085658,0.755119,0.732301,0.858861,-0.964192,1.014071,-10.841028
1790541906.5746,-0.049030,-0.060344,-0.062338,-0.045326,-0.056682,-0.062338,0.642204,0.627884,1.037340,-0.695896,2.203831,-8.473546
1790541906.5881,-0.055691,-0.063459,-0.043131,-0.052581,-0.061426,-0.043131,0.263392,0.529539,0.941423,-0.695896,2.241011,-10.841028
1790541906.6016,-0.054157,-0.061934,-0.023475,-0.053684,-0.061782,-0.023475,-0.037716,-0.027752,0.810295,-0.964192,2.315371,-9.366203
1790541906.6155,-0.049000,-0.061751,-0.015501,-0.050405,-0.061760,-0.015501,-0.108136,-0.411421,0.670669,0.300631,0.865351,-11.772497
1790541906.6295,-0.041705,-0.057939,-0.011201,-0.044315,-0.059085,-0.011201,-0.350964,-0.631181,0.484905,1.297159,0.939711,-11.966553
1790541906.6434,-0.038982,-0.053211,-0.027060,-0.040582,-0.054973,-0.027060,-0.619290,-0.547405,0.515259,3.750150,-1.402628,-10.569350
1790541906.6572,-0.037625,-0.047802,-0.038755,-0.038512,-0.049953,-0.038755,-0.665427,-0.480627,0.432697,3.635166,-1.291089,-8.978091
1790541906.6711,-0.028878,-0.038291,-0.044118,-0.031768,-0.041790,-0.044118,-0.877902,-0.954143,0.291857,1.833751,-0.250049,-5.407462
1790541906.6851,-0.024513,-0.029056,-0.047619,-0.026690,-0.032876,-0.047619,-0.823265,-0.578973,0.239649,2.025391,-0.101329,-7.153965
1790541906.6991,-0.017836,-0.017323,-0.050153,-0.020492,-0.021989,-0.050153,-0.871831,-0.608112,0.110950,1.527127,1.423051,-10.452916
1790541906.7129,-0.024160,-0.018227,-0.055077,-0.023060,-0.019356,-0.055077,-0.052285,0.431193,-0.244794,2.140375,0.419191,-18.331588
1790541906.7269,-0.024667,-0.021341,-0.052061,-0.024185,-0.020745,-0.052061,0.366594,0.371700,-0.876148,-2.075704,3.542311,-12.820399
1790541906.7408,-0.016178,-0.028931,-0.045434,-0.018580,-0.026476,-0.045434,0.546287,-0.151595,-1.183326,-2.190688,0.828171,-8.395923
1790541906.7548,-0.025603,-0.028564,-0.070433,-0.023496,-0.027937,-0.070433,0.144406,0.444549,-0.525261,2.063719,1.646131,-4.902916
1790541906.7691,-0.016489,-0.038712,-0.056464,-0.018591,-0.035479,-0.056464,0.676200,-0.298506,-0.491265,-2.765607,0.828171,-10.336483
1790541906.7832,0.000275,-0.055039,-0.053278,-0.005384,-0.049171,-0.053278,1.104792,-0.876438,-0.814227,-2.918919,0.456371,-13.247322
1790541906.7972,0.007552,-0.058522,-0.064588,0.003671,-0.055717,-0.064588,0.556000,-0.438132,-0.975708,0.377287,3.467951,-7.076343
1790541906.8107,0.019765,-0.059656,-0.073916,0.014937,-0.058474,-0.073916,0.218468,-0.806017,-0.898003,0.032335,2.203831,-8.240679
1790541906.8243,0.023816,-0.065110,-0.087359,0.021152,-0.063119,-0.087359,0.483151,-0.260868,-0.908930,0.530599,1.646131,-7.774944
1790541906.8383,0.033873,-0.074176,-0.098855,0.030057,-0.070859,-0.098855,0.625206,-0.646965,-0.853079,-0.005993,0.753811,-8.861658
1790541906.8521,0.030598,-0.082105,-0.109695,0.030436,-0.078731,-0.109695,0.702911,0.185937,-0.550758,1.220503,2.835891,-10.957462
1790541906.8661,0.007181,-0.077680,-0.123090,0.014158,-0.077995,-0.123090,-0.354607,1.573701,-0.473053,2.868606,0.865351,-15.110259
1790541906.8800,0.002537,-0.064029,-0.121055,0.006023,-0.068219,-0.121055,-1.086734,0.734729,-0.522833,-4.950302,-0.361589,-12.315854
1790541906.8939,-0.001728,-0.053424,-0.128208,0.000598,-0.057862,-0.128208,-1.040597,0.715303,-0.585968,-2.842263,-1.737248,-7.076343
1790541906.9079,-0.018249,-0.038303,-0.140022,-0.012595,-0.044171,-0.140022,-1.273712,1.330873,-0.386849,-0.389272,-0.584669,-5.252217
1790541906.9220,-0.026221,-0.026571,-0.144116,-0.022133,-0.031851,-0.144116,-1.134086,0.927778,-0.351639,-2.075704,-1.625708,-6.028441
1790541906.9359,-0.036391,-0.011328,-0.132009,-0.032114,-0.017485,-0.132009,-0.834193,0.881640,-0.293360,-0.350944,3.542311,-7.425644
1790541906.9499,-0.021811,-0.028523,-0.144986,-0.024902,-0.025212,-0.144986,0.888675,-0.965070,0.260289,-2.037376,-3.410348,-14.644525
1790541906.9637,-0.020431,-0.027896,-0.127193,-0.021772,-0.027091,-0.127193,0.032705,-0.246298,0.856433,0.607255,2.724351,-9.443825
1790541906.9776,-0.014296,-0.035558,-0.107015,-0.016539,-0.033018,-0.107015,0.602137,-0.622682,1.068908,0.568927,2.426911,-9.482637
1790541906.9918,-0.001505,-0.049191,-0.088331,-0.006015,-0.044339,-0.088331,0.920243,-0.906791,0.795726,-1.232488,1.051251,-10.414105
1790541907.0059,-0.016466,-0.056388,-0.092241,-0.013331,-0.052773,-0.092241,0.552358,0.728658,0.849148,2.370342,1.571771,-7.270399
1790541907.0203,-0.024732,-0.064249,-0.074773,-0.021311,-0.060806,-0.074773,0.498935,0.558678,0.945065,-0.887536,1.199971,-12.665154
1790541907.0342,-0.042607,-0.069644,-0.057773,-0.036219,-0.066993,-0.057773,0.486794,1.134182,0.993631,1.028863,2.278191,-7.891378
1790541907.0479,-0.054318,-0.071060,-0.034087,-0.048888,-0.069840,-0.034087,0.158976,0.877998,0.963277,-0.619240,2.092291,-8.667602
1790541907.0615,-0.058245,-0.072879,-0.014368,-0.055438,-0.071967,-0.014368,0.141978,0.349846,0.838221,-1.117504,2.017931,-11.035084
1790541907.0754,-0.057508,-0.073783,-0.001519,-0.056887,-0.073238,-0.001519,0.044846,-0.076318,0.647600,0.262303,1.720491,-12.315854
1790541907.0894,-0.046372,-0.073087,0.002950,-0.049526,-0.073133,0.002950,-0.156701,-0.835157,0.556540,0.377287,0.382011,-11.927742
1790541907.1033,-0.041548,-0.065340,0.003392,-0.043942,-0.067678,0.003392,-0.593793,-0.563189,0.562610,2.523654,1.199971,-9.909560
1790541907.1172,-0.036907,-0.060416,-0.014418,-0.039017,-0.062594,-0.014418,-0.568296,-0.598399,0.529829,2.561982,-0.882109,-8.473546
1790541907.1312,-0.024031,-0.050475,-0.017024,-0.028527,-0.054111,-0.017024,-0.756488,-1.133836,0.348921,1.795423,0.790991,-7.348021
1790541907.1450,-0.006374,-0.037229,-0.020444,-0.013020,-0.042294,-0.020444,-1.010243,-1.451941,0.175299,1.603783,0.790991,-8.240679
1790541907.1588,-0.000445,-0.021786,-0.032956,-0.004218,-0.027938,-0.032956,-1.153512,-0.741668,0.002891,4.095102,1.051251,-9.443825
1790541907.1728,-0.001776,-0.011270,-0.043085,-0.002508,-0.016270,-0.043085,-0.790484,-0.065391,-0.144020,2.983590,1.348691,-11.500819
1790541907.1866,-0.014848,-0.018034,-0.055844,-0.011146,-0.017505,-0.055844,0.353238,0.995770,-0.616322,1.718767,-0.621849,-14.877392
1790541907.2004,-0.007572,-0.023956,-0.029551,-0.008644,-0.022020,-0.029551,0.528075,0.081521,-1.293813,-5.525222,2.352551,-10.181238
1790541907.2143,0.001160,-0.029133,-0.034303,-0.001782,-0.026999,-0.034303,0.620350,-0.401708,-1.101978,-0.465928,3.058971,-6.455364
1790541907.2283,-0.004477,-0.045342,-0.050360,-0.003669,-0.039839,-0.050360,1.205566,0.380199,-0.681885,1.412143,1.311511,-7.542077
1790541907.2421,0.012536,-0.058689,-0.052253,0.007675,-0.053034,-0.052253,1.034372,-0.972355,-0.840938,-2.152360,2.055111,-10.414105
1790541907.2560,0.022870,-0.067454,-0.064285,0.018311,-0.063128,-0.064285,0.785473,-0.672462,-1.080124,0.568927,3.096151,-9.560259
1790541907.2699,0.026712,-0.075490,-0.083714,0.024192,-0.071782,-0.083714,0.598495,-0.231728,-1.245247,1.028863,1.385871,-9.599070
1790541907.2837,0.038961,-0.081778,-0.101432,0.034530,-0.078779,-0.101432,0.382378,-0.858225,-1.066768,0.683911,0.196111,-8.978091
1790541907.2977,0.047802,-0.095000,-0.123090,0.043821,-0.090134,-0.123090,0.785473,-0.707672,-0.898003,1.335487,-0.733389,-7.386832
1790541907.3116,0.039502,-0.103837,-0.133708,0.040797,-0.099726,-0.133708,0.699269,0.612101,-0.639390,0.415615,2.798711,-15.032637
1790541907.3256,0.013184,-0.092060,-0.143400,0.021468,-0.094360,-0.143400,-0.820837,2.021720,-0.743807,-1.500784,2.017931,-16.080539
1790541907.3398,0.013209,-0.075784,-0.148365,0.015687,-0.081357,-0.148365,-1.284639,0.347418,-0.830011,-5.563550,-1.588528,-14.372847
1790541907.3536,0.011341,-0.061525,-0.158185,0.012645,-0.067474,-0.158185,-1.289496,0.606030,-0.752306,-3.647151,-1.848788,-5.950818
1790541907.3673,-0.000451,-0.044456,-0.176571,0.003478,-0.051361,-0.176571,-1.465547,1.041907,-0.618750,-0.810880,-1.216729,-6.610609
1790541907.3813,-0.003749,-0.024327,-0.162362,-0.001581,-0.032437,-0.162362,-1.403625,0.631527,-0.553186,-2.650623,1.125611,-6.338930
1790541907.3951,-0.010364,-0.010271,-0.181783,-0.007729,-0.016921,-0.181783,-1.242144,0.956917,-0.511905,-3.033903,-1.105189,-5.019350
1790541907.4091,-0.012944,-0.012262,-0.180221,-0.011379,-0.013660,-0.180221,0.156547,0.371700,-0.436629,-1.539112,2.129471,-13.519000
1790541907.4232,0.001688,-0.033724,-0.189470,-0.002232,-0.027705,-0.189470,1.432611,-1.195757,0.311283,2.217030,0.865351,-16.740329
1790541907.4371,-0.005679,-0.045635,-0.215737,-0.004645,-0.040256,-0.215737,0.824325,0.005030,0.958421,6.969700,1.571771,-11.345574
1790541907.4510,-0.002256,-0.053642,-0.177999,-0.002973,-0.049626,-0.177999,0.581497,-0.146738,0.924425,-2.458983,1.274331,-9.094525
1790541907.4649,-0.006020,-0.060130,-0.148840,-0.005106,-0.056979,-0.148840,0.556000,0.358345,0.572324,-1.615768,2.203831,-8.900469
1790541907.4788,-0.020532,-0.069317,-0.152046,-0.015904,-0.065616,-0.152046,0.617921,0.894996,0.606319,1.833751,0.865351,-11.539630
1790541907.4924,-0.037888,-0.075808,-0.138656,-0.031293,-0.072751,-0.138656,0.596067,1.096543,0.789655,1.718767,2.612811,-8.201867
1790541907.5061,-0.051573,-0.076219,-0.104635,-0.045489,-0.075179,-0.104635,0.277961,0.964202,0.840649,0.070663,3.170511,-5.873196
1790541907.5204,-0.058951,-0.080185,-0.079486,-0.054913,-0.078683,-0.079486,0.330170,0.574462,0.908641,-1.270816,2.464091,-9.599070
1790541907.5345,-0.061623,-0.081394,-0.059427,-0.059610,-0.080580,-0.059427,0.120123,0.122801,0.837006,0.607255,2.241011,-9.599070
1790541907.5485,-0.046618,-0.085832,-0.075767,-0.050515,-0.084257,-0.075767,-0.003720,-1.031848,0.989988,-2.267343,-3.150088,-14.101168
1790541907.5626,-0.038952,-0.081466,-0.083804,-0.042421,-0.082303,-0.083804,-0.486948,-0.762308,0.817580,2.868606,-0.733389,-11.733686
1790541907.5765,-0.033252,-0.077926,-0.105692,-0.036003,-0.079239,-0.105692,-0.552512,-0.685817,0.798154,2.638638,-2.109048,-8.240679
1790541907.5904,-0.021285,-0.069389,-0.112471,-0.025700,-0.072344,-0.112471,-0.772271,-1.122908,0.647600,2.025391,-0.398769,-6.843476
1790541907.6044,-0.012005,-0.060247,-0.120802,-0.016114,-0.063876,-0.120802,-0.858476,-0.960213,0.438768,3.251886,-1.365448,-8.512357
1790541907.6183,-0.005406,-0.049558,-0.125625,-0.008618,-0.053854,-0.125625,-0.842692,-0.758666,0.352564,3.673494,0.344831,-9.909560
1790541907.6323,-0.002135,-0.041474,-0.131286,-0.004080,-0.045188,-0.131286,-0.575580,-0.417492,0.093952,2.830278,1.646131,-10.841028
1790541907.6462,-0.013738,-0.042734,-0.136680,-0.010841,-0.043470,-0.136680,0.139549,0.870713,-0.295788,0.683911,2.687171,-13.907112
1790541907.6601,-0.014143,-0.044786,-0.123377,-0.013153,-0.044391,-0.123377,0.258535,0.386270,-1.095908,-3.148887,2.910251,-12.432287
1790541907.6740,-0.005358,-0.055421,-0.090760,-0.007696,-0.052112,-0.090760,0.892317,-0.172235,-1.009704,-2.688951,1.460231,-5.679140
1790541907.6880,-0.005679,-0.068307,-0.096742,-0.006285,-0.063448,-0.096742,0.914172,0.097304,-0.452412,-0.044320,0.605091,-7.192776
1790541907.7020,0.005532,-0.084115,-0.095622,0.001987,-0.077915,-0.095622,1.169142,-0.574116,-0.828796,-2.382327,1.460231,-12.160609
1790541907.7160,0.023194,-0.092934,-0.086307,0.016832,-0.088429,-0.086307,0.791544,-0.911648,-1.191825,-3.992103,3.207691,-10.220049
1790541907.7296,0.030159,-0.102951,-0.102657,0.026161,-0.098594,-0.102657,0.812184,-0.507338,-1.225821,1.028863,1.720491,-8.434735
1790541907.7432,0.042505,-0.112884,-0.116468,0.037602,-0.108597,-0.116468,0.734479,-0.880080,-1.014560,0.262303,0.753811,-7.736133
1790541907.7572,0.054917,-0.128306,-0.134867,0.049722,-0.122393,-0.134867,1.004018,-0.918933,-0.647889,0.683911,-0.807749,-12.820399
1790541907.7716,0.034230,-0.129500,-0.145445,0.038878,-0.127368,-0.145445,0.083699,1.459572,-0.719524,-0.044320,1.460231,-17.710609
1790541907.7856,0.024989,-0.113032,-0.149813,0.029156,-0.117333,-0.149813,-1.189936,0.896210,-0.851865,-4.068759,0.865351,-14.528091
1790541907.7996,0.028808,-0.100385,-0.179110,0.028913,-0.105469,-0.179110,-1.102518,0.240573,-0.833653,-6.828373,-2.220588,-6.804665
1790541907.8137,0.021835,-0.081830,-0.191066,0.023958,-0.088922,-0.191066,-1.435193,0.777224,-0.878576,-2.075704,-0.510309,-6.571797
1790541907.8276,0.009226,-0.060992,-0.228663,0.013646,-0.069371,-0.228663,-1.747228,1.001840,-0.752306,-0.120976,-1.030829,-4.786483
1790541907.8415,-0.004368,-0.043788,-0.238581,0.001036,-0.051463,-0.238581,-1.380557,1.239812,-0.674600,-1.539112,-0.733389,-6.649420
1790541907.8555,-0.015660,-0.024774,-0.237717,-0.010651,-0.032781,-0.237717,-1.310136,1.056477,-0.800871,-1.194160,1.460231,-8.784035
1790541907.8693,-0.006763,-0.018126,-0.225561,-0.007930,-0.022522,-0.225561,-0.457809,-0.327645,-0.621178,-3.378855,1.571771,-11.578441
1790541907.8831,-0.000883,-0.033743,-0.244234,-0.002997,-0.030377,-0.244234,0.971237,-0.389567,-0.125808,-0.350944,-0.621849,-9.288581
1790541907.8971,-0.001164,-0.037732,-0.246120,-0.001714,-0.035525,-0.246120,0.401804,-0.235371,0.323424,2.638638,2.649991,-7.425644
1790541907.9108,-0.000401,-0.046059,-0.234187,-0.000795,-0.042899,-0.234187,0.707768,-0.226872,0.566253,1.527127,2.798711,-9.094525
1790541907.9246,0.000374,-0.059187,-0.233940,0.000023,-0.054301,-0.233940,0.966380,-0.212302,0.436340,1.680439,1.683311,-10.375294
1790541907.9386,-0.014990,-0.069247,-0.234054,-0.010486,-0.064763,-0.234054,0.784259,0.867070,0.568681,3.366870,2.649991,-11.035084
1790541907.9521,-0.026965,-0.077252,-0.211917,-0.022022,-0.073505,-0.211917,0.659202,0.926563,0.597820,-0.849208,2.092291,-9.831937
1790541907.9659,-0.042956,-0.079487,-0.181711,-0.036676,-0.077692,-0.181711,0.325313,1.170606,0.691309,-0.197632,2.612811,-6.959909
1790541907.9795,-0.044756,-0.080758,-0.160337,-0.042332,-0.079838,-0.160337,0.099483,0.173795,0.794512,-1.117504,1.720491,-10.375294
1790541907.9934,-0.052372,-0.080792,-0.144756,-0.049360,-0.080506,-0.144756,-0.000077,0.479759,0.799368,0.530599,1.385871,-8.473546
1790541908.0075,-0.052518,-0.081595,-0.122858,-0.051571,-0.081269,-0.122858,0.087341,-0.011968,0.799368,-0.082648,2.166651,-9.948371
1790541908.0220,-0.038003,-0.078864,-0.103437,-0.042073,-0.079585,-0.103437,-0.216194,-1.026991,0.862503,-0.465928,1.646131,-11.345574
1790541908.0362,-0.024004,-0.065979,-0.092403,-0.029425,-0.070061,-0.092403,-0.903399,-1.166618,0.716806,2.485326,2.315371,-12.471098
1790541908.0502,-0.016695,-0.057303,-0.124997,-0.020514,-0.061131,-0.124997,-0.828122,-0.875223,0.715592,4.555037,-1.253909,-10.181238
1790541908.0643,-0.006367,-0.042625,-0.146719,-0.010611,-0.048177,-0.146719,-1.163225,-1.125337,0.444839,3.520182,-0.138509,-6.067252
1790541908.0783,0.012089,-0.025859,-0.143596,0.005279,-0.032554,-0.143596,-1.193579,-1.478652,0.300356,0.875551,0.939711,-5.368651
1790541908.0925,-0.004470,-0.029772,-0.149356,-0.001545,-0.030607,-0.149356,0.205113,1.033408,0.364705,2.523654,0.716631,-15.187882
1790541908.1064,-0.017702,-0.046104,-0.148261,-0.012855,-0.041455,-0.148261,1.204352,1.142681,-0.424487,-2.842263,2.873071,-19.224245
1790541908.1202,-0.003824,-0.051177,-0.141956,-0.006533,-0.048261,-0.141956,0.451584,-0.588686,-1.220964,-4.643678,2.203831,-11.772497
1790541908.1340,-0.013718,-0.057599,-0.167748,-0.011562,-0.054797,-0.167748,0.541430,0.562321,-0.990277,3.750150,1.608951,-7.348021
1790541908.1480,-0.013804,-0.061050,-0.164003,-0.013131,-0.059174,-0.164003,0.396947,0.164082,-0.626035,-0.542584,1.832031,-5.795574
1790541908.1618,0.001494,-0.071975,-0.163626,-0.002893,-0.068135,-0.163626,0.790329,-0.757452,-0.726809,-3.647151,0.530731,-8.357112
1790541908.1755,0.022587,-0.084518,-0.163924,0.014943,-0.079603,-0.163924,0.978521,-1.255250,-0.962352,-2.305671,1.423051,-7.813756
1790541908.1892,0.029433,-0.087464,-0.170141,0.025086,-0.085106,-0.170141,0.364166,-0.485484,-1.116548,1.067191,2.873071,-8.628791
1790541908.2027,0.036885,-0.091585,-0.185671,0.033345,-0.089641,-0.185671,0.311957,-0.530407,-1.127475,0.990535,1.274331,-10.258860
1790541908.2166,0.038664,-0.095500,-0.203790,0.037069,-0.093742,-0.203790,0.282818,-0.158880,-1.070411,1.488799,1.088431,-8.861658
1790541908.2305,0.028463,-0.096267,-0.220455,0.031044,-0.095509,-0.220455,0.035133,0.743228,-0.938069,1.335487,1.125611,-14.256413
1790541908.2445,0.017303,-0.085195,-0.235277,0.021425,-0.088289,-0.235277,-0.842692,0.937491,-0.873720,-1.155832,0.382011,-13.557812
1790541908.2584,0.012770,-0.072511,-0.258425,0.015367,-0.077244,-0.258425,-1.084306,0.598745,-0.791158,-3.148887,-1.774428,-9.948371
1790541908.2728,0.007500,-0.059516,-0.280602,0.009860,-0.064835,-0.280602,-1.123159,0.680093,-0.680671,-2.573967,-1.662888,-6.338930
1790541908.2868,-0.003471,-0.042901,-0.286499,0.000528,-0.049481,-0.286499,-1.162011,0.931420,-0.621178,-0.580912,1.051251,-7.425644
1790541908.3009,-0.013389,-0.032283,-0.294185,-0.009214,-0.037443,-0.294185,-0.829336,0.933848,-0.451198,-1.730752,0.010211,-7.969000
1790541908.3148,-0.020524,-0.018805,-0.277038,-0.017131,-0.024396,-0.277038,-0.754059,0.650953,-0.356495,-0.580912,3.839751,-8.124245
1790541908.3287,-0.007913,-0.028139,-0.283598,-0.010679,-0.027016,-0.283598,0.594853,-1.036704,0.205653,2.217030,0.939711,-14.605714
1790541908.3426,-0.015401,-0.032534,-0.281156,-0.013984,-0.030879,-0.281156,0.378735,0.121587,0.975419,5.321597,3.244871,-10.064805
1790541908.3570,-0.014210,-0.044637,-0.264555,-0.014142,-0.040510,-0.264555,0.803685,-0.241441,1.123544,0.262303,1.125611,-8.279490
1790541908.3720,-0.007883,-0.060140,-0.251103,-0.009761,-0.054251,-0.251103,1.028301,-0.418706,0.529829,-0.504256,0.753811,-5.407462
1790541908.3865,-0.023446,-0.069690,-0.248818,-0.019341,-0.065059,-0.248818,0.693198,0.834289,0.582037,3.558510,2.092291,-10.220049
1790541908.4007,-0.038100,-0.083900,-0.236669,-0.032472,-0.078247,-0.236669,0.999162,0.939919,0.839435,0.913879,1.571771,-11.035084
1790541908.4153,-0.057165,-0.094406,-0.213603,-0.049757,-0.089558,-0.213603,0.781830,1.159679,1.140542,1.450471,2.724351,-8.978091
1790541908.4290,-0.069143,-0.100074,-0.186724,-0.063327,-0.096919,-0.186724,0.505006,0.854929,1.127186,-0.159304,3.356411,-9.521448
1790541908.4427,-0.065137,-0.105402,-0.173270,-0.064594,-0.102857,-0.173270,0.291317,-0.239013,0.999702,-1.347472,0.679451,-11.423196
1790541908.4566,-0.060946,-0.102705,-0.159465,-0.062040,-0.102751,-0.159465,-0.287829,-0.389567,1.023984,1.220503,0.828171,-12.898021
1790541908.4704,-0.054390,-0.099064,-0.152742,-0.056685,-0.100170,-0.152742,-0.401958,-0.536478,0.872217,0.760567,-0.287229,-12.509909
1790541908.4844,-0.053037,-0.101206,-0.166040,-0.054132,-0.100895,-0.166040,-0.136061,-0.388352,0.981489,4.095102,-2.666748,-9.521448
1790541908.4982,-0.046538,-0.096734,-0.166673,-0.048816,-0.097982,-0.166673,-0.510017,-0.717385,0.823651,3.213558,-1.105189,-8.978091
1790541908.5123,-0.039953,-0.080875,-0.150512,-0.042612,-0.086007,-0.150512,-1.078235,-0.700387,0.868574,1.795423,1.571771,-5.601518
1790541908.5268,-0.033536,-0.062369,-0.145711,-0.036259,-0.069461,-0.145711,-1.459476,-0.710100,0.874645,2.600310,-0.919289,-7.542077
1790541908.5417,-0.021737,-0.042489,-0.139952,-0.026094,-0.050580,-0.139952,-1.430336,-1.092555,0.633031,3.098574,0.270471,-7.503266
1790541908.5557,-0.009437,-0.025094,-0.133283,-0.014434,-0.032740,-0.133283,-1.260357,-1.138692,0.579608,2.600310,1.311511,-8.434735
1790541908.5696,-0.027637,-0.030806,-0.133619,-0.023676,-0.031386,-0.133619,0.235466,1.174248,0.226293,4.171758,-2.443668,-17.943476
1790541908.5835,-0.032192,-0.048665,-0.123414,-0.029637,-0.043481,-0.123414,1.352477,0.621814,-0.473053,-3.992103,2.464091,-13.014455
1790541908.5974,-0.019282,-0.053494,-0.096645,-0.022388,-0.050490,-0.096645,0.685913,-0.538906,-0.649103,-3.608823,4.471811,-5.523895
1790541908.6112,-0.027018,-0.060235,-0.096694,-0.025629,-0.057312,-0.096694,0.628849,0.592674,-0.216869,0.262303,1.980751,-5.989630
1790541908.6249,-0.018482,-0.077647,-0.101270,-0.020626,-0.071546,-0.101270,1.277200,-0.373783,-0.407489,-3.723807,1.014071,-12.393476
1790541908.6387,0.003229,-0.091212,-0.103959,-0.003927,-0.085312,-0.103959,1.172784,-1.247965,-0.774160,-3.877119,3.467951,-8.628791
1790541908.6527,0.014040,-0.100828,-0.107242,0.008650,-0.096173,-0.107242,0.899602,-0.820587,-0.793586,1.258831,2.761531,-6.261308
1790541908.6670,0.024110,-0.106590,-0.117245,0.019472,-0.103465,-0.117245,0.505006,-0.799947,-0.894360,1.948735,1.832031,-7.425644
1790541908.6807,0.036623,-0.111233,-0.129311,0.031478,-0.108902,-0.129311,0.318028,-0.915290,-0.913786,0.760567,0.493551,-9.482637
1790541908.6946,0.043641,-0.117987,-0.140170,0.039992,-0.115262,-0.140170,0.492865,-0.554690,-0.848223,1.488799,1.088431,-10.724595
1790541908.7085,0.022023,-0.111942,-0.154706,0.027413,-0.112938,-0.154706,-0.449310,1.531206,-0.935641,2.332014,1.199971,-17.244875
1790541908.7224,0.013181,-0.091676,-0.181719,0.017451,-0.098055,-0.181719,-1.471617,0.989699,-0.819083,-6.215126,0.716631,-12.160609
1790541908.7364,0.012105,-0.074601,-0.212862,0.013709,-0.081637,-0.212862,-1.390270,0.449406,-0.825154,-5.026958,-1.848788,-9.599070
1790541908.7502,0.000711,-0.057010,-0.234099,0.004611,-0.064398,-0.234099,-1.429122,1.106256,-0.703740,-2.573967,-1.216729,-8.357112
1790541908.7642,-0.012096,-0.030842,-0.206162,-0.007084,-0.040909,-0.206162,-1.463118,1.219172,-0.636962,-1.309144,2.835891,-2.768301
1790541908.7785,-0.031985,-0.016317,-0.224507,-0.024515,-0.023695,-0.224507,-1.022385,1.579772,-0.656388,-0.350944,0.456371,-4.941727
1790541908.7925,-0.014758,-0.023682,-0.239963,-0.017685,-0.023686,-0.239963,0.473438,-0.986925,-0.584754,-4.030431,0.902531,-17.128441
1790541908.8066,-0.012012,-0.035137,-0.217286,-0.013714,-0.031702,-0.217286,0.985806,-0.373783,0.426626,3.290214,6.591070,-14.295224
1790541908.8204,-0.010960,-0.043458,-0.209365,-0.011786,-0.039931,-0.209365,0.549929,-0.195304,0.728948,0.683911,1.162791,-12.432287
1790541908.8342,-0.004129,-0.056548,-0.203935,-0.006426,-0.051563,-0.203935,0.865606,-0.557118,0.805439,-0.504256,0.307651,-9.715504
1790541908.8481,-0.004824,-0.068448,-0.193946,-0.005305,-0.063382,-0.193946,0.880176,-0.081175,0.480049,1.028863,1.162791,-7.115154
1790541908.8622,-0.022467,-0.080339,-0.184622,-0.017318,-0.075252,-0.184622,0.830396,0.966630,0.840649,4.401726,1.237151,-11.035084
1790541908.8759,-0.035060,-0.091479,-0.164667,-0.029737,-0.086611,-0.164667,0.858321,0.718945,1.051910,1.910407,2.017931,-8.551168
1790541908.8896,-0.049863,-0.098135,-0.141667,-0.043826,-0.094678,-0.141667,0.593638,1.003054,1.193964,0.300631,2.501271,-6.921098
1790541908.9037,-0.056163,-0.095182,-0.128143,-0.052462,-0.095030,-0.128143,-0.057142,0.522254,1.130829,-1.615768,3.653851,-7.115154
1790541908.9175,-0.049534,-0.092594,-0.118397,-0.050413,-0.093325,-0.118397,-0.191912,-0.415064,1.047053,-2.190688,2.575631,-12.160609
1790541908.9315,-0.038911,-0.087563,-0.102206,-0.042362,-0.089292,-0.102206,-0.484520,-0.923789,1.185465,2.102047,0.233291,-14.101168
1790541908.9455,-0.037036,-0.079269,-0.089701,-0.038634,-0.082276,-0.089701,-0.737061,-0.347072,1.082263,2.638638,-0.398769,-11.229140
1790541908.9596,-0.033620,-0.073244,-0.084204,-0.035124,-0.075953,-0.084204,-0.647215,-0.600827,1.004558,4.708349,-1.737248,-9.055714
1790541908.9736,-0.020873,-0.063751,-0.072618,-0.025148,-0.067412,-0.072618,-0.811124,-1.142335,0.835792,1.872079,-0.212869,-7.464455
1790541908.9876,-0.004285,-0.044996,-0.055087,-0.010544,-0.051721,-0.055087,-1.347775,-1.439800,0.788441,1.412143,0.902531,-5.329839
1790541909.0014,0.006796,-0.024520,-0.040039,0.001594,-0.032681,-0.040039,-1.514112,-1.154476,0.748374,2.791950,0.753811,-6.649420
1790541909.0155,-0.004908,-0.033635,-0.040812,-0.002957,-0.033349,-0.040812,0.489222,0.711660,0.288214,3.443526,-2.369308,-21.281238
1790541909.0300,0.005613,-0.051239,-0.054875,0.003042,-0.045872,-0.054875,1.269916,-0.432062,-0.491265,-5.870174,3.244871,-14.411658
1790541909.0441,0.005277,-0.055360,-0.067690,0.004606,-0.052513,-0.067690,0.331384,0.025670,-1.138403,2.255358,1.497411,-9.055714
1790541909.0580,-0.009189,-0.057134,-0.069519,-0.005050,-0.055748,-0.069519,0.358095,0.759012,-0.324927,3.596838,2.984611,-4.747672
1790541909.0720,0.009709,-0.074247,-0.085374,0.005281,-0.068697,-0.085374,1.163071,-1.073129,-0.266649,-5.141942,-0.026969,-11.927742
1790541909.0859,0.023603,-0.094973,-0.094553,0.018107,-0.087091,-0.094553,1.528528,-0.892221,-0.673386,-1.079176,1.757671,-12.587532
1790541909.0999,0.035766,-0.101260,-0.099761,0.030468,-0.097009,-0.099761,0.772117,-0.820587,-0.936855,0.108991,4.248731,-5.679140
1790541909.1134,0.046286,-0.107142,-0.099608,0.041541,-0.104102,-0.099608,0.524432,-0.910434,-0.842152,2.217030,1.980751,-7.930189
1790541909.1270,0.057605,-0.117070,-0.109170,0.052786,-0.113179,-0.109170,0.752691,-0.779306,-0.764447,-0.580912,1.869211,-13.441378
1790541909.1410,0.045938,-0.124592,-0.114635,0.047992,-0.121168,-0.114635,0.413945,0.768725,-0.643033,1.795423,-1.402628,-12.548721
1790541909.1548,0.028638,-0.118345,-0.127000,0.034444,-0.119192,-0.127000,-0.466308,1.343014,-0.588396,-1.040848,0.642271,-10.957462
1790541909.1688,0.027256,-0.114841,-0.159668,0.029413,-0.116147,-0.159668,-0.455380,0.383842,-0.771732,-5.026958,-3.447528,-11.850119
1790541909.1827,0.023200,-0.108130,-0.186980,0.025064,-0.110535,-0.186980,-0.698209,0.595103,-0.896788,-3.225543,-2.257768,-7.348021
1790541909.1965,0.015047,-0.094149,-0.207109,0.018052,-0.099065,-0.207109,-1.199649,1.010339,-0.898003,-3.110559,-1.291089,-4.553616
1790541909.2103,0.010176,-0.079672,-0.222250,0.012539,-0.085490,-0.222250,-1.240930,0.657024,-0.567756,-2.995575,-1.737248,-6.765853
1790541909.2242,0.002506,-0.061984,-0.232295,0.005516,-0.069036,-0.232295,-1.324706,0.680093,-0.422059,-0.772552,0.196111,-6.959909
1790541909.2380,-0.004417,-0.042963,-0.245022,-0.001437,-0.050785,-0.245022,-1.514112,0.636383,-0.322499,-1.117504,-0.770569,-9.327392
1790541909.2519,-0.013497,-0.020521,-0.252683,-0.009879,-0.029600,-0.252683,-1.674379,0.887711,-0.442699,-2.229015,0.233291,-9.405014
1790541909.2659,-0.001953,-0.024554,-0.260487,-0.004331,-0.026068,-0.260487,0.076414,-0.639680,-0.236295,-5.448566,-4.451388,-21.281238
1790541909.2804,0.016825,-0.042087,-0.257121,0.010478,-0.037281,-0.257121,1.190996,-1.380307,0.186226,0.760567,1.162791,-9.715504
1790541909.2944,0.007718,-0.034546,-0.148457,0.008546,-0.035367,-0.148457,0.035133,0.598745,0.489762,-0.120976,5.624391,-3.001168
1790541909.3085,0.021775,-0.042264,-0.200629,0.017806,-0.040195,-0.200629,0.400590,-0.598399,-0.140378,-6.100142,-0.510309,-7.503266
1790541909.3226,0.010709,-0.052294,-0.200016,0.012838,-0.048664,-0.200016,0.747834,0.514969,-0.020178,4.401726,1.571771,-8.318301
1790541909.3361,-0.006971,-0.062345,-0.195060,-0.001029,-0.058241,-0.195060,0.807327,1.173034,0.104879,2.676966,2.426911,-11.229140
1790541909.3498,-0.021555,-0.065476,-0.175416,-0.015397,-0.063305,-0.175416,0.461297,1.006697,0.228721,0.952207,4.285911,-8.357112
1790541909.3636,-0.020961,-0.066836,-0.171564,-0.019292,-0.065777,-0.171564,0.137121,0.025670,0.203224,-1.232488,2.092291,-11.112707
1790541909.3775,-0.023679,-0.066353,-0.160941,-0.022363,-0.066180,-0.160941,0.014493,0.087591,0.340422,1.412143,1.869211,-8.900469
1790541909.3914,-0.026857,-0.065233,-0.151650,-0.025509,-0.065517,-0.151650,-0.058356,0.104589,0.379275,1.603783,1.534591,-8.900469
1790541909.4052,-0.024024,-0.060152,-0.134681,-0.024470,-0.061761,-0.134681,-0.180984,-0.317932,0.381703,1.527127,4.657711,-9.754315
1790541909.4192,-0.006938,-0.054986,-0.129799,-0.012198,-0.057019,-0.129799,-0.347322,-1.189686,0.363491,-1.232488,2.092291,-10.879840
1790541909.4330,0.008366,-0.044822,-0.118910,0.002197,-0.048481,-0.118910,-0.707922,-1.261321,0.268788,2.791950,2.649991,-14.372847
1790541909.4470,0.015201,-0.035919,-0.129810,0.011300,-0.039688,-0.129810,-0.735847,-0.825444,0.178941,4.401726,-0.250049,-7.464455
1790541909.4610,0.024103,-0.023645,-0.123862,0.020262,-0.028458,-0.123862,-0.806267,-0.764737,-0.093026,1.220503,1.534591,-5.523895
1790541909.4749,0.019203,-0.021701,-0.129945,0.019521,-0.023728,-0.129945,-0.196768,0.210220,-0.339497,2.791950,0.530731,-8.240679
1790541909.4888,0.014068,-0.026886,-0.142039,0.015704,-0.025938,-0.142039,0.424873,0.518612,-0.840938,-0.235960,2.612811,-10.879840
1790541909.5028,0.019396,-0.029713,-0.169511,0.018288,-0.028581,-0.169511,0.245180,-0.026538,-1.458936,-2.650623,2.538451,-11.423196
1790541909.5170,0.021147,-0.034759,-0.192139,0.020289,-0.032906,-0.192139,0.372665,0.158011,-1.295027,-1.002520,1.162791,-6.455364
1790541909.5313,0.021844,-0.045899,-0.209329,0.021378,-0.042001,-0.209329,0.729622,0.117945,-0.871291,-0.657568,0.493551,-8.551168
1790541909.5453,0.031714,-0.059562,-0.230380,0.028613,-0.054294,-0.230380,0.921457,-0.481841,-1.120191,-1.999048,0.642271,-13.130889
1790541909.5593,0.041589,-0.062203,-0.245078,0.037696,-0.059830,-0.245078,0.311957,-0.455130,-1.245247,-1.462456,2.501271,-6.688231
1790541909.5727,0.043094,-0.063888,-0.258996,0.041475,-0.062671,-0.258996,0.107982,-0.071461,-1.383659,1.488799,1.274331,-9.094525
1790541909.5864,0.047903,-0.067546,-0.276636,0.045974,-0.066084,-0.276636,0.197828,-0.260868,-1.325381,0.568927,0.530731,-9.405014
1790541909.6003,0.055506,-0.072160,-0.290790,0.052647,-0.070337,-0.290790,0.296174,-0.451488,-1.139617,0.032335,1.014071,-9.405014
1790541909.6142,0.058770,-0.075925,-0.295707,0.056933,-0.074249,-0.295707,0.366594,-0.183162,-0.791158,0.032335,3.133331,-10.025993
1790541909.6281,0.039830,-0.069090,-0.305264,0.044961,-0.070637,-0.305264,-0.524586,1.368511,-0.684314,1.297159,1.348691,-14.178791
1790541909.6420,0.031081,-0.050856,-0.326142,0.035245,-0.056791,-0.326142,-1.307708,0.890139,-0.731665,-3.723807,2.166651,-12.703965
1790541909.6558,0.027008,-0.037635,-0.367969,0.029479,-0.043382,-0.367969,-1.209363,0.613315,-0.730451,-2.573967,-1.811608,-6.843476
1790541909.6701,0.016823,-0.022883,-0.393529,0.020620,-0.029033,-0.393529,-1.172938,1.064976,-0.585968,-1.424128,-0.287229,-3.001168
1790541909.6842,0.004671,-0.008245,-0.402302,0.009456,-0.014481,-0.402302,-1.023599,0.987271,-0.514334,-0.197632,1.199971,-6.261308
1790541909.6980,0.022948,-0.022025,-0.418515,0.018901,-0.019762,-0.418515,0.807327,-1.213969,-0.362566,-2.535639,-3.112908,-21.281238
1790541909.7119,0.013261,-0.028298,-0.398378,0.014953,-0.025737,-0.398378,0.525646,0.395983,0.645172,4.133430,2.984611,-11.035084
1790541909.7258,0.008109,-0.034898,-0.380082,0.010162,-0.032149,-0.380082,0.484366,0.127658,1.173324,1.642111,2.203831,-12.703965
1790541909.7396,0.022174,-0.051623,-0.374163,0.018571,-0.045781,-0.374163,0.937241,-0.816945,0.980275,-3.455511,-2.034688,-4.670049
1790541909.7536,0.021937,-0.066223,-0.370761,0.020927,-0.060090,-0.370761,0.927527,0.042668,0.783584,-1.347472,-0.547489,-6.571797
1790541909.7675,-0.001130,-0.079475,-0.360815,0.005487,-0.073659,-0.360815,0.934812,1.505709,0.943851,1.335487,1.051251,-12.160609
1790541909.7819,-0.015514,-0.090453,-0.339057,-0.009214,-0.085415,-0.339057,0.818255,0.918064,1.054338,0.147319,2.426911,-11.151518
1790541909.7956,-0.033941,-0.096106,-0.313735,-0.026523,-0.092899,-0.313735,0.509863,1.239812,1.031269,0.913879,2.910251,-9.870749
1790541909.8092,-0.043577,-0.102393,-0.298016,-0.038461,-0.099545,-0.298016,0.440656,0.762654,1.022770,-1.539112,1.274331,-9.987182
1790541909.8230,-0.039170,-0.107229,-0.286102,-0.038957,-0.104924,-0.286102,0.281604,-0.304577,0.949922,-0.887536,0.605091,-10.763406
1790541909.8369,-0.034598,-0.105711,-0.275258,-0.035906,-0.105475,-0.275258,-0.159130,-0.419920,0.765372,1.450471,0.828171,-13.208511
1790541909.8511,-0.028504,-0.106177,-0.273648,-0.030725,-0.105966,-0.273648,-0.156701,-0.644536,0.773871,3.788478,-2.109048,-11.656063
1790541909.8650,-0.023662,-0.104708,-0.266580,-0.025781,-0.105086,-0.266580,-0.296328,-0.644536,0.872217,4.401726,-1.885968,-9.482637
1790541909.8789,-0.017049,-0.097589,-0.255856,-0.019668,-0.099838,-0.255856,-0.655714,-0.795090,0.804225,4.171758,-0.993649,-8.473546
1790541909.8928,-0.009730,-0.085296,-0.241094,-0.012712,-0.089659,-0.241094,-1.022385,-0.920147,0.701023,4.133430,-0.882109,-5.989630
1790541909.9068,-0.006116,-0.071878,-0.235580,-0.008095,-0.077212,-0.235580,-1.172938,-0.551047,0.476406,3.251886,-1.811608,-6.921098
1790541909.9207,0.003550,-0.050430,-0.232327,0.000057,-0.058465,-0.232327,-1.594246,-0.878866,0.337994,1.833751,0.344831,-7.348021
1790541909.9346,0.016378,-0.028062,-0.230479,0.011481,-0.037182,-0.230479,-1.730230,-1.122908,0.130376,2.600310,-0.473129,-8.939280
1790541909.9485,0.020730,-0.007560,-0.231430,0.017955,-0.016447,-0.231430,-1.503185,-0.483056,0.070883,2.408670,1.125611,-9.443825
1790541909.9625,-0.003843,-0.026894,-0.233929,0.002696,-0.023760,-0.233929,1.171570,1.659905,-0.284861,5.168285,-3.782148,-15.459560
1790541909.9764,0.001011,-0.047961,-0.209352,0.001516,-0.040701,-0.209352,1.647514,0.161654,-0.821512,-6.445094,3.021791,-7.852567
1790541909.9904,-0.008607,-0.046337,-0.232655,-0.005570,-0.044646,-0.232655,0.195400,0.346204,-0.188944,4.401726,4.137191,-3.855014
1790541910.0044,-0.016964,-0.060348,-0.236869,-0.013546,-0.055637,-0.236869,0.950596,0.561107,-0.204727,1.603783,0.233291,-11.112707
1790541910.0188,0.005444,-0.079812,-0.236458,-0.000253,-0.072560,-0.236458,1.394972,-1.332955,-0.561685,-3.455511,1.683311,-11.500819
1790541910.0330,0.021869,-0.094460,-0.245259,0.015233,-0.087890,-0.245259,1.118148,-1.102268,-0.669744,0.070663,1.980751,-8.318301
1790541910.0467,0.031112,-0.100667,-0.256922,0.026348,-0.096834,-0.256922,0.526861,-0.787805,-0.691598,1.603783,1.274331,-5.989630
1790541910.0607,0.047104,-0.104676,-0.267364,0.040877,-0.102323,-0.267364,0.307101,-1.147191,-0.734093,0.530599,1.014071,-7.658511
1790541910.0748,0.052370,-0.112178,-0.275007,0.048922,-0.109222,-0.275007,0.492865,-0.484270,-0.548330,1.373815,0.158931,-6.455364
1790541910.0887,0.027752,-0.100456,-0.287031,0.034103,-0.103086,-0.287031,-0.805053,1.852954,-0.667316,-1.385800,3.282051,-19.845224
1790541910.1026,0.024365,-0.081294,-0.287046,0.027286,-0.087832,-0.287046,-1.404839,0.613315,-0.600538,-6.406766,0.716631,-10.685784
1790541910.1165,0.027572,-0.066915,-0.285035,0.027486,-0.073190,-0.285035,-1.260357,0.204149,-0.587182,-6.215126,-2.889828,-7.542077
1790541910.1304,0.004516,-0.043213,-0.304361,0.011407,-0.052206,-0.304361,-1.437621,1.397651,-0.556829,1.757095,1.646131,-2.030888
1790541910.1443,-0.012070,-0.022104,-0.315621,-0.005027,-0.031135,-0.315621,-1.220290,1.436503,-0.632105,-1.155832,3.430771,-4.592427
1790541910.1582,-0.017956,-0.014141,-0.327838,-0.014077,-0.019239,-0.327838,-0.519730,0.695876,-0.721952,-1.615768,1.608951,-7.580888
1790541910.1721,-0.007723,-0.034200,-0.327134,-0.009629,-0.029712,-0.327134,1.462964,-0.767165,-0.110024,1.603783,3.170511,-17.167252
1790541910.1859,-0.005961,-0.031720,-0.317017,-0.007061,-0.031118,-0.317017,0.026634,-0.328859,0.441196,2.830278,5.735931,-10.025993
1790541910.1998,-0.001167,-0.041182,-0.306033,-0.002936,-0.038163,-0.306033,0.619135,-0.450274,0.725305,0.223975,0.865351,-12.587532
1790541910.2138,0.003254,-0.053611,-0.294676,0.001397,-0.048976,-0.294676,0.868034,-0.442989,0.721663,0.645583,1.162791,-10.724595
1790541910.2275,-0.003675,-0.067067,-0.282356,-0.002154,-0.061640,-0.282356,0.972451,0.276997,0.745946,1.757095,0.865351,-6.843476
1790541910.2414,-0.023480,-0.076057,-0.270048,-0.017082,-0.071732,-0.270048,0.673772,1.173034,0.845505,3.175230,1.683311,-9.133336
1790541910.2549,-0.037820,-0.081041,-0.265727,-0.031599,-0.078249,-0.265727,0.484366,1.074689,0.871002,-0.772552,2.761531,-7.736133
1790541910.2684,-0.044751,-0.080019,-0.259181,-0.040805,-0.079488,-0.259181,-0.019503,0.546537,0.937780,-1.270816,2.649991,-9.443825
1790541910.2829,-0.041846,-0.077330,-0.247873,-0.041534,-0.077977,-0.247873,-0.179770,-0.230514,0.972990,-0.619240,2.426911,-11.073895
1790541910.2969,-0.036301,-0.070989,-0.234432,-0.037871,-0.073085,-0.234432,-0.369176,-0.495197,0.951136,0.453943,3.058971,-8.589979
1790541910.3108,-0.026950,-0.066365,-0.219091,-0.030226,-0.068381,-0.219091,-0.333966,-0.809660,0.942637,1.105519,2.315371,-11.811308
1790541910.3247,-0.021503,-0.062061,-0.199980,-0.024120,-0.063957,-0.199980,-0.372819,-0.614183,0.807867,3.060246,0.865351,-12.199420
1790541910.3385,-0.014738,-0.054262,-0.179894,-0.017552,-0.057170,-0.179894,-0.660570,-0.746524,0.726520,3.098574,0.121751,-10.103616
1790541910.3523,-0.006036,-0.042059,-0.162485,-0.009491,-0.046592,-0.162485,-1.032098,-0.859440,0.516473,1.795423,-0.510309,-6.455364
1790541910.3662,0.006769,-0.026641,-0.152504,0.001891,-0.032626,-0.152504,-1.159583,-1.056131,0.330709,0.722239,0.530731,-5.640329
1790541910.3803,0.013971,-0.018153,-0.141738,0.010347,-0.022495,-0.141738,-0.716421,-0.667605,0.211723,1.603783,-0.212869,-8.124245
1790541910.3941,0.005294,-0.028247,-0.141778,0.006810,-0.026521,-0.141778,0.627634,0.563535,-0.312786,3.941790,-0.398769,-18.758511
1790541910.4079,0.013633,-0.037523,-0.163091,0.011586,-0.034222,-0.163091,0.711410,-0.298506,-1.139617,-2.918919,2.278191,-12.238231
1790541910.4218,0.014577,-0.046472,-0.178669,0.013680,-0.042797,-0.178669,0.619135,0.014743,-1.297455,1.718767,0.939711,-10.685784
1790541910.4359,0.011530,-0.052686,-0.194030,0.012175,-0.049719,-0.194030,0.526861,0.210220,-0.803299,1.028863,1.385871,-5.096972
1790541910.4511,0.023249,-0.067286,-0.202933,0.019927,-0.062016,-0.202933,0.915386,-0.636037,-0.714667,-1.309144,0.344831,-12.471098
1790541910.4659,0.041741,-0.087322,-0.222030,0.035196,-0.079731,-0.222030,1.376760,-1.033062,-0.985421,-2.727279,1.646131,-11.112707
1790541910.4800,0.054887,-0.090349,-0.257614,0.048980,-0.087163,-0.257614,0.526861,-0.898292,-1.142045,0.683911,4.917971,-6.028441
1790541910.4947,0.063903,-0.098435,-0.265284,0.059426,-0.095054,-0.265284,0.407875,-0.604470,-1.157829,0.760567,-0.584669,-7.348021
1790541910.5085,0.074909,-0.110238,-0.274183,0.070264,-0.105683,-0.274183,0.701697,-0.734383,-1.069197,-0.312616,-0.807749,-8.434735
1790541910.5225,0.057079,-0.110225,-0.289528,0.061035,-0.108862,-0.289528,-0.017075,1.323588,-0.930784,-0.235960,2.241011,-18.292777
1790541910.5368,0.040264,-0.097281,-0.305755,0.046495,-0.100755,-0.305755,-0.977461,1.363655,-0.831225,-3.647151,0.121751,-16.313406
1790541910.5507,0.045917,-0.085682,-0.321661,0.046090,-0.090204,-0.321661,-0.961678,-0.132168,-0.889504,-4.835318,-1.291089,-13.092077
1790541910.5647,0.043174,-0.070466,-0.344711,0.044049,-0.076388,-0.344711,-1.202078,0.643668,-0.925928,-2.918919,-0.324409,-3.932637
1790541910.5791,0.031643,-0.048492,-0.357842,0.035364,-0.056861,-0.357842,-1.712017,1.007911,-0.762019,-0.772552,-0.659029,-3.738581
1790541910.5932,0.020583,-0.028166,-0.373212,0.025018,-0.036775,-0.373212,-1.406054,1.091687,-0.839724,-1.692424,1.274331,-5.368651
1790541910.6072,0.010189,-0.012292,-0.387098,0.014638,-0.019637,-0.387098,-1.182651,0.960559,-0.737736,-1.654096,1.014071,-11.966553
1790541910.6210,0.007852,-0.004714,-0.398251,0.009888,-0.009191,-0.398251,-0.501518,0.399626,-0.724380,-2.075704,3.021791,-12.626343
1790541910.6350,0.015530,-0.022802,-0.402601,0.013837,-0.018719,-0.402601,1.061083,-0.492769,-0.139164,-1.462456,-5.269348,-21.203616
1790541910.6489,0.014766,-0.029502,-0.394841,0.014487,-0.026267,-0.394841,0.531717,-0.064177,0.443624,0.875551,2.352551,-9.793126
1790541910.6629,0.016448,-0.040095,-0.383404,0.015860,-0.035947,-0.383404,0.769689,-0.320360,0.703451,1.757095,1.757671,-10.724595
1790541910.6770,0.020347,-0.055699,-0.374044,0.019001,-0.049774,-0.374044,1.058655,-0.361641,0.674311,-0.120976,0.307651,-8.473546
1790541910.6909,0.004348,-0.063152,-0.365284,0.008744,-0.059139,-0.365284,0.571784,0.942347,0.626960,2.715294,2.055111,-11.035084
1790541910.7049,-0.005076,-0.072643,-0.355420,-0.000930,-0.068592,-0.355420,0.710196,0.567177,0.736233,0.837223,2.129471,-11.772497
1790541910.7185,-0.025010,-0.076443,-0.343396,-0.017786,-0.074088,-0.343396,0.468582,1.289592,0.777514,1.450471,2.910251,-6.028441
1790541910.7321,-0.036607,-0.078627,-0.333817,-0.030961,-0.077265,-0.333817,0.206327,0.839145,0.881930,-0.542584,2.241011,-9.327392
1790541910.7460,-0.037781,-0.082149,-0.323401,-0.035735,-0.080684,-0.323401,0.241537,0.052381,0.828507,-0.235960,1.497411,-9.793126
1790541910.7598,-0.035213,-0.081338,-0.312984,-0.035369,-0.081142,-0.312984,-0.043786,-0.228086,0.767800,-0.005993,2.947431,-15.187882
1790541910.7738,-0.023787,-0.076527,-0.298601,-0.027261,-0.077912,-0.298601,-0.358249,-0.969927,0.761730,2.217030,1.943571,-13.363756
1790541910.7881,-0.013857,-0.067213,-0.282883,-0.017878,-0.070423,-0.282883,-0.717635,-0.917718,0.664598,3.251886,0.493551,-11.306763
1790541910.8020,-0.006025,-0.061141,-0.264856,-0.009581,-0.063925,-0.264856,-0.581651,-0.895864,0.611176,3.175230,-0.733389,-6.416553
1790541910.8159,0.000490,-0.049971,-0.254466,-0.002531,-0.054157,-0.254466,-0.837835,-0.734383,0.416913,2.370342,0.530731,-6.144874
1790541910.8297,0.006286,-0.039959,-0.245659,0.003641,-0.044218,-0.245659,-0.825694,-0.644536,0.210509,2.293686,-0.138509,-6.843476
1790541910.8436,0.012756,-0.028976,-0.243376,0.010021,-0.033548,-0.243376,-0.802625,-0.685817,0.033244,3.596838,1.274331,-9.676693
1790541910.8575,0.007103,-0.022315,-0.243952,0.007978,-0.025685,-0.243952,-0.530657,0.243001,-0.199871,4.555037,0.865351,-12.859210
1790541910.8714,-0.000373,-0.027385,-0.254656,0.002132,-0.026875,-0.254656,0.338669,0.678878,-0.855508,0.262303,1.534591,-17.322497
1790541910.8853,0.010433,-0.034021,-0.282088,0.007943,-0.031877,-0.282088,0.525646,-0.297292,-1.298669,-4.337055,1.534591,-7.969000
1790541910.8992,0.013757,-0.036943,-0.315735,0.012013,-0.035423,-0.315735,0.586354,-0.237799,-0.822726,1.220503,4.285911,-4.204315
1790541910.9131,0.013081,-0.049107,-0.317575,0.012760,-0.045002,-0.317575,0.876533,-0.016825,-0.479124,1.258831,0.753811,-5.640329
1790541910.9271,0.035082,-0.063012,-0.335920,0.028385,-0.057609,-0.335920,1.053798,-1.311100,-0.911358,-3.493839,2.501271,-11.539630
1790541910.9410,0.041536,-0.075197,-0.351271,0.037591,-0.069920,-0.351271,0.928742,-0.407779,-1.075267,0.837223,2.538451,-11.112707
1790541910.9546,0.050572,-0.082812,-0.371867,0.046677,-0.078944,-0.371867,0.626420,-0.523122,-1.173613,-0.619240,2.129471,-8.318301
1790541910.9682,0.061141,-0.091083,-0.381386,0.056802,-0.087441,-0.381386,0.514719,-0.690674,-0.990277,-0.312616,-0.026969,-7.580888
1790541910.9821,0.058162,-0.101856,-0.394869,0.057754,-0.097532,-0.394869,0.875319,0.238145,-0.679457,0.185647,3.467951,-11.500819
1790541910.9961,0.031717,-0.106537,-0.394186,0.039528,-0.103835,-0.394186,0.194186,1.868738,-0.615107,2.293686,-2.480848,-20.582637
1790541911.0099,0.026577,-0.093317,-0.403316,0.030462,-0.096472,-0.403316,-1.051524,0.546537,-0.643033,-3.340527,-1.030829,-15.575993
1790541911.0244,0.027782,-0.078124,-0.409379,0.028586,-0.083628,-0.409379,-1.236074,0.199292,-0.619964,-3.378855,-1.885968,-7.736133
1790541911.0389,0.023797,-0.057565,-0.414621,0.025233,-0.065384,-0.414621,-1.659809,0.576891,-0.626035,-2.957247,-2.257768,-6.494175
1790541911.0529,0.022594,-0.033044,-0.424636,0.023386,-0.042746,-0.424636,-1.826147,0.480973,-0.522833,-2.995575,0.010211,-4.747672
1790541911.0669,0.013079,-0.017806,-0.433372,0.016171,-0.025288,-0.433372,-1.291924,1.016410,-0.436629,-2.229015,-1.030829,-4.747672
1790541911.0807,-0.006644,-0.006063,-0.443738,0.000201,-0.011831,-0.443738,-0.943466,1.527564,-0.403847,-0.044320,-0.026969,-12.781588
1790541911.0948,0.013830,-0.010926,-0.448264,0.009741,-0.011197,-0.448264,0.190543,-1.279533,-0.504621,-4.030431,-2.257768,-21.281238
1790541911.1086,0.013823,-0.015605,-0.447066,0.012599,-0.014283,-0.447066,0.302244,-0.151595,0.238434,2.983590,1.683311,-15.847672
1790541911.1225,0.017639,-0.013967,-0.435272,0.016127,-0.014062,-0.435272,0.046060,-0.412635,0.583251,0.492271,3.356411,-7.153965
1790541911.1363,0.026270,-0.018256,-0.421925,0.023227,-0.016998,-0.421925,0.316814,-0.756238,0.840649,-0.197632,1.051251,-6.300119
1790541911.1503,0.016734,-0.026992,-0.411545,0.018682,-0.023994,-0.411545,0.706554,0.318278,0.770229,1.948735,1.237151,-4.126693
1790541911.1641,0.006484,-0.035426,-0.402273,0.010143,-0.031997,-0.402273,0.608208,0.540466,0.778728,1.987063,1.720491,-11.811308
1790541911.1775,-0.009465,-0.042778,-0.393317,-0.003583,-0.039544,-0.393317,0.568141,1.051620,0.838221,0.722239,2.055111,-10.491728
1790541911.1910,-0.023817,-0.046098,-0.382790,-0.017746,-0.044131,-0.382790,0.309529,0.984842,0.943851,-0.159304,2.575631,-9.016902
1790541911.2050,-0.025758,-0.048143,-0.370067,-0.023354,-0.046940,-0.370067,0.166260,0.121587,0.946279,-1.232488,2.129471,-9.055714
1790541911.2188,-0.029525,-0.050049,-0.358383,-0.027674,-0.049116,-0.358383,0.118909,0.154369,0.869788,0.492271,1.274331,-7.930189
1790541911.2325,-0.030085,-0.053098,-0.347135,-0.029362,-0.051903,-0.347135,0.192971,-0.070247,0.809081,0.530599,1.237151,-8.628791
1790541911.2463,-0.015302,-0.053504,-0.332445,-0.019520,-0.053024,-0.332445,0.083699,-1.247965,0.871002,1.718767,3.988471,-13.790679
1790541911.2601,-0.003924,-0.047854,-0.317894,-0.008603,-0.049405,-0.317894,-0.502732,-1.026991,0.803011,2.408670,0.196111,-13.480189
1790541911.2740,0.007968,-0.038342,-0.303355,0.002997,-0.041661,-0.303355,-0.812338,-1.094983,0.732590,2.523654,-0.547489,-11.384385
1790541911.2884,0.013362,-0.025872,-0.291827,0.010252,-0.030608,-0.291827,-0.996888,-0.767165,0.441196,3.060246,-0.510309,-4.631238
1790541911.3025,0.025622,-0.009725,-0.286422,0.021011,-0.015990,-0.286422,-1.117088,-1.002708,0.316140,0.645583,1.162791,-5.523895
1790541911.3164,0.015235,-0.011203,-0.285105,0.016968,-0.012639,-0.285105,0.031491,0.555036,0.052671,3.903462,0.456371,-11.656063
1790541911.3304,0.012224,-0.021326,-0.299764,0.013647,-0.018720,-0.299764,0.819469,0.359559,-0.690384,-0.619240,4.546171,-14.295224
1790541911.3443,0.020841,-0.028853,-0.317437,0.018683,-0.025813,-0.317437,0.546287,-0.393209,-1.353306,-0.504256,1.646131,-10.802217
1790541911.3581,0.005264,-0.033198,-0.335140,0.009290,-0.030982,-0.335140,0.444299,0.876784,-0.803299,3.826806,1.906391,-4.359560
1790541911.3720,0.012070,-0.044032,-0.339005,0.011236,-0.040117,-0.339005,0.715053,-0.349500,-0.647889,-0.734224,0.196111,-8.978091
1790541911.3859,0.023734,-0.064234,-0.347079,0.019985,-0.056999,-0.347079,1.426540,-0.676104,-0.793586,-1.347472,0.716631,-10.879840
1790541911.3997,0.038151,-0.075287,-0.373039,0.032701,-0.069801,-0.373039,1.019802,-0.840013,-1.016988,-1.117504,3.058971,-5.679140
1790541911.4133,0.048862,-0.080368,-0.386215,0.044014,-0.077198,-0.386215,0.353238,-0.699173,-1.049770,-0.120976,0.902531,-8.706413
1790541911.4268,0.049083,-0.086306,-0.396880,0.047563,-0.083573,-0.396880,0.393305,-0.047179,-1.058269,1.910407,0.790991,-10.452916
1790541911.4407,0.049474,-0.091386,-0.410211,0.048901,-0.089042,-0.410211,0.384806,0.012314,-0.828796,0.300631,1.943571,-12.082986
1790541911.4546,0.035221,-0.091366,-0.415858,0.039325,-0.090669,-0.415858,-0.078996,0.949632,-0.842152,4.095102,0.047391,-17.050819
1790541911.4686,0.026873,-0.082612,-0.422165,0.030608,-0.085029,-0.422165,-0.760130,0.817291,-0.839724,-3.072231,-1.402628,-12.082986
1790541911.4825,0.029828,-0.074440,-0.426158,0.030062,-0.077617,-0.426158,-0.781985,0.110660,-0.837295,-4.337055,-2.257768,-9.637881
1790541911.4965,0.023290,-0.059690,-0.434475,0.025322,-0.065068,-0.434475,-1.208148,0.693448,-0.899217,-1.385800,-0.844929,-6.610609
1790541911.5105,0.017034,-0.040240,-0.451993,0.019520,-0.047688,-0.451993,-1.270070,0.672808,-0.811798,-1.002520,1.720491,-4.825294
1790541911.5245,0.013575,-0.025745,-0.458113,0.015359,-0.032328,-0.458113,-1.355060,0.598745,-0.605394,-2.612295,-2.592388,-5.019350
1790541911.5386,0.004430,-0.011029,-0.467095,0.007708,-0.017418,-0.467095,-1.226361,1.005483,-0.695241,-4.452038,-2.034688,-10.841028
1790541911.5530,0.018771,-0.019192,-0.472849,0.015452,-0.018660,-0.472849,0.410303,-0.750167,-0.664887,-5.563550,-2.741108,-21.281238
1790541911.5670,0.018460,-0.034518,-0.475110,0.017558,-0.029760,-0.475110,1.033158,-0.172235,0.340422,3.596838,0.567911,-15.343126
1790541911.5809,0.018523,-0.039257,-0.462488,0.018233,-0.036408,-0.462488,0.352024,-0.035037,0.708307,-1.155832,1.608951,-9.909560
1790541911.5948,0.027418,-0.048944,-0.449606,0.024663,-0.045184,-0.449606,0.823111,-0.343429,0.310069,-3.072231,1.646131,-4.165504
1790541911.6087,0.014538,-0.056883,-0.449828,0.017576,-0.053373,-0.449828,0.627634,0.768725,0.363491,1.987063,2.092291,-9.599070
1790541911.6225,0.002170,-0.067687,-0.444923,0.006792,-0.063392,-0.444923,0.826754,0.888925,0.365919,-0.312616,2.166651,-11.772497
1790541911.6361,-0.014289,-0.074313,-0.443860,-0.007964,-0.071037,-0.443860,0.622778,1.060119,0.373204,1.757095,2.798711,-7.774944
1790541911.6498,-0.023757,-0.078808,-0.438262,-0.019019,-0.076477,-0.438262,0.388448,0.610886,0.489762,1.105519,2.426911,-10.763406
1790541911.6637,-0.030981,-0.083170,-0.431036,-0.027393,-0.081162,-0.431036,0.332598,0.483402,0.538328,0.223975,1.274331,-7.813756
1790541911.6777,-0.035814,-0.087432,-0.423802,-0.033288,-0.085551,-0.423802,0.362951,0.312208,0.504332,0.300631,2.315371,-9.793126
1790541911.6917,-0.022104,-0.089127,-0.414629,-0.025459,-0.088054,-0.414629,0.036347,-0.994209,0.607534,-0.619240,0.047391,-15.110259
1790541911.7055,-0.010300,-0.076742,-0.410852,-0.014848,-0.080135,-0.410852,-0.927682,-1.111981,0.494618,4.593365,0.939711,-11.733686
1790541911.7194,-0.011797,-0.064295,-0.412743,-0.012712,-0.069047,-0.412743,-1.046668,-0.296078,0.537113,7.046356,-1.662888,-9.560259
1790541911.7332,-0.003336,-0.048163,-0.410423,-0.006149,-0.054428,-0.410423,-1.323492,-0.894650,0.227507,3.443526,-0.956469,-7.464455
1790541911.7471,0.010188,-0.029756,-0.415145,0.005287,-0.037158,-0.415145,-1.317421,-1.277104,0.019889,3.213558,0.939711,-5.795574
1790541911.7610,0.020444,-0.017821,-0.413655,0.015897,-0.023622,-0.413655,-0.888829,-1.120480,0.177727,3.366870,0.456371,-4.902916
1790541911.7749,0.028876,-0.010268,-0.414121,0.024982,-0.014274,-0.414121,-0.506374,-0.750167,0.163158,2.063719,2.612811,-11.772497
1790541911.7888,0.012162,-0.023235,-0.420258,0.016008,-0.020547,-0.420258,0.939669,1.236170,-0.198657,0.760567,3.096151,-19.185434
1790541911.8030,0.007323,-0.030555,-0.437005,0.009929,-0.027552,-0.437005,0.587568,0.508899,-0.857936,-0.849208,4.620531,-17.865854
1790541911.8170,0.007608,-0.032473,-0.450716,0.008305,-0.030997,-0.450716,0.160190,0.258785,-1.099550,-2.152360,1.943571,-11.539630
1790541911.8310,0.003308,-0.039897,-0.466542,0.004807,-0.037227,-0.466542,0.611851,0.433622,-0.796015,-0.005993,1.757671,-6.843476
1790541911.8451,0.012610,-0.050688,-0.466980,0.010269,-0.046650,-0.466980,0.812184,-0.249940,-0.737736,-2.995575,1.014071,-4.825294
1790541911.8590,0.028864,-0.063208,-0.481582,0.023285,-0.058241,-0.481582,1.048942,-1.028205,-0.823940,-0.695896,2.575631,-6.843476
1790541911.8725,0.037233,-0.070360,-0.495441,0.033049,-0.066724,-0.495441,0.605780,-0.609326,-0.899217,1.067191,2.166651,-8.318301
1790541911.8860,0.046263,-0.073833,-0.507860,0.042299,-0.071700,-0.507860,0.235466,-0.644536,-1.058269,1.028863,1.051251,-9.676693
1790541911.9000,0.054018,-0.078630,-0.518303,0.050502,-0.076551,-0.518303,0.287675,-0.568045,-1.010918,1.335487,0.530731,-8.628791
1790541911.9138,0.042695,-0.080034,-0.535005,0.045037,-0.078989,-0.535005,0.209969,0.857357,-0.704954,0.453943,3.653851,-11.345574
1790541911.9276,0.023236,-0.069912,-0.544991,0.029776,-0.072635,-0.544991,-0.778342,1.428004,-0.804514,2.025391,1.088431,-17.749420
1790541911.9414,0.017323,-0.053679,-0.546514,0.021059,-0.059366,-0.546514,-1.350203,0.706804,-0.867649,-2.957247,-1.625708,-10.103616
1790541911.9551,0.013622,-0.040225,-0.540680,0.015853,-0.045967,-0.540680,-1.282211,0.623028,-0.845794,-2.229015,-2.257768,-4.980539
1790541911.9689,0.007167,-0.026084,-0.543359,0.009773,-0.032049,-0.543359,-1.287068,0.810006,-0.650318,-2.229015,-1.811608,-5.213406
1790541911.9827,-0.001457,-0.010515,-0.551914,0.001912,-0.016975,-0.551914,-1.151084,0.861000,-0.717095,-1.424128,0.939711,-8.706413
1790541911.9965,0.015323,-0.016481,-0.555438,0.011300,-0.016629,-0.555438,0.276747,-1.045203,-0.626035,-2.037376,-1.700068,-16.196973
1790541912.0103,0.010945,-0.021124,-0.559740,0.011051,-0.019776,-0.559740,0.424873,0.017171,0.623317,4.056774,3.542311,-11.035084
1790541912.0241,0.006254,-0.031057,-0.551877,0.007693,-0.027672,-0.551877,0.706554,0.066951,0.945065,1.948735,1.125611,-8.434735
1790541912.0380,0.015886,-0.042891,-0.530511,0.013428,-0.038326,-0.530511,0.752691,-0.725884,1.003344,-1.347472,-0.101329,-7.076343
1790541912.0524,0.011546,-0.045116,-0.527637,0.012111,-0.043079,-0.527637,0.248822,0.226003,0.460622,0.185647,1.757671,-5.717951
1790541912.0664,-0.003831,-0.052556,-0.523041,0.000952,-0.049713,-0.523041,0.492865,0.959345,0.585679,1.795423,0.939711,-12.975644
1790541912.0803,-0.020654,-0.064495,-0.517016,-0.014172,-0.060061,-0.517016,0.883818,1.071046,0.795726,1.258831,1.794851,-9.676693
1790541912.0938,-0.037170,-0.066355,-0.511630,-0.030271,-0.064467,-0.511630,0.258535,1.103828,0.936566,0.760567,3.282051,-8.512357
1790541912.1074,-0.043329,-0.069432,-0.498889,-0.039411,-0.067942,-0.498889,0.231824,0.440907,0.960849,-0.810880,1.943571,-9.405014
1790541912.1211,-0.045086,-0.071133,-0.488467,-0.043383,-0.070176,-0.488467,0.134693,0.069379,0.834578,0.108991,1.832031,-8.667602
1790541912.1350,-0.045270,-0.073730,-0.478073,-0.044704,-0.072664,-0.478073,0.146834,-0.044750,0.731376,0.300631,1.125611,-9.715504
1790541912.1489,-0.035050,-0.077112,-0.463340,-0.037946,-0.075777,-0.463340,0.059416,-0.773235,0.716806,-0.159304,-1.514168,-11.966553
1790541912.1627,-0.023465,-0.073982,-0.454659,-0.027809,-0.074520,-0.454659,-0.281758,-0.990567,0.651243,2.063719,0.828171,-11.772497
1790541912.1766,-0.011251,-0.065069,-0.445920,-0.016219,-0.067904,-0.445920,-0.705494,-1.065844,0.663384,2.370342,0.567911,-11.267951
1790541912.1906,-0.005091,-0.053197,-0.443108,-0.008430,-0.057609,-0.443108,-0.915540,-0.740454,0.473978,2.868606,0.158931,-6.300119
1790541912.2045,0.009638,-0.037229,-0.441097,0.004218,-0.043343,-0.441097,-1.171724,-1.239466,0.211723,1.603783,0.716631,-6.494175
1790541912.2184,0.019819,-0.024010,-0.441007,0.015138,-0.029810,-0.441007,-1.001744,-0.948072,0.049028,2.638638,0.530731,-7.774944
1790541912.2323,0.021943,-0.016554,-0.443985,0.019902,-0.020530,-0.443985,-0.576795,-0.259653,-0.167089,3.060246,1.311511,-14.139979
1790541912.2461,0.007975,-0.022417,-0.457899,0.011553,-0.021851,-0.457899,0.413945,1.060119,-0.732879,2.485326,2.241011,-16.856763
1790541912.2599,0.009691,-0.026435,-0.476434,0.010250,-0.025060,-0.476434,0.345953,0.178652,-1.370304,-1.960720,3.058971,-13.519000
1790541912.2738,0.013501,-0.032357,-0.506873,0.012526,-0.030168,-0.506873,0.664059,-0.143096,-1.245247,0.530599,3.133331,-5.446273
1790541912.2877,0.006557,-0.046351,-0.514930,0.008347,-0.041496,-0.514930,1.013732,0.370486,-0.579897,2.293686,0.828171,-5.834385
1790541912.3020,0.018159,-0.063208,-0.520877,0.015215,-0.056694,-0.520877,1.140002,-0.605684,-0.895574,-2.152360,0.642271,-12.859210
1790541912.3160,0.032782,-0.072034,-0.543822,0.027512,-0.067432,-0.543822,0.761190,-0.999066,-1.101978,0.990535,3.319231,-9.831937
1790541912.3296,0.036867,-0.080775,-0.561802,0.034060,-0.076772,-0.561802,0.631277,-0.290007,-1.352092,1.757095,1.088431,-9.249770
1790541912.3432,0.047994,-0.082439,-0.583994,0.043814,-0.080739,-0.583994,0.212398,-0.759880,-1.142045,0.338959,1.943571,-6.882287
1790541912.3572,0.055902,-0.091353,-0.586443,0.052276,-0.088169,-0.586443,0.497721,-0.568045,-1.025487,0.990535,-0.621849,-8.124245
1790541912.3715,0.049815,-0.098508,-0.601249,0.050553,-0.095406,-0.601249,0.478295,0.427551,-0.959924,1.565455,1.497411,-14.799770
1790541912.3854,0.032951,-0.085865,-0.618648,0.038232,-0.088727,-0.618648,-0.866975,1.272594,-0.785087,-0.005993,2.798711,-14.877392
1790541912.3995,0.032334,-0.070030,-0.607209,0.034103,-0.075639,-0.607209,-1.295567,0.399626,-0.810584,-5.448566,-1.700068,-10.297672
1790541912.4134,0.030847,-0.055086,-0.583514,0.031824,-0.061252,-0.583514,-1.442478,0.496757,-0.728023,-3.378855,-3.261628,-5.058161
1790541912.4280,0.022620,-0.035276,-0.583008,0.025381,-0.043069,-0.583008,-1.624599,0.805149,-0.598109,-1.807408,-2.257768,-6.067252
1790541912.4423,0.016474,-0.015190,-0.587808,0.019146,-0.023553,-0.587808,-1.480116,0.643668,-0.653960,-1.385800,0.307651,-7.852567
1790541912.4557,0.000899,0.000965,-0.594149,0.006373,-0.006391,-0.594149,-1.220290,1.362440,-0.494907,-0.810880,1.014071,-6.455364
1790541912.4693,0.011865,-0.006976,-0.597836,0.010217,-0.006800,-0.597836,0.455226,-0.594757,-0.747449,-2.535639,-0.919289,-18.913756
1790541912.4832,0.017274,-0.025064,-0.596246,0.015157,-0.019585,-0.596246,1.339122,-0.537692,0.433911,1.412143,2.612811,-12.160609
1790541912.4970,0.012556,-0.029173,-0.588238,0.013336,-0.026296,-0.588238,0.360523,0.221147,0.822437,-0.005993,2.538451,-9.599070
1790541912.5111,0.026582,-0.036952,-0.571791,0.022609,-0.033755,-0.571791,0.551143,-1.048846,0.827293,-1.347472,1.274331,-9.288581
1790541912.5265,0.017277,-0.046505,-0.581615,0.018877,-0.042680,-0.581615,0.682271,0.289139,0.747160,2.830278,1.608951,-6.688231
1790541912.5413,0.002382,-0.060379,-0.575585,0.007330,-0.055069,-0.575585,0.889889,0.807578,0.775085,2.408670,0.456371,-11.656063
1790541912.5556,-0.013588,-0.070230,-0.572967,-0.007313,-0.065682,-0.572967,0.784259,1.005483,0.809081,0.607255,2.501271,-8.240679
1790541912.5699,-0.031055,-0.070573,-0.570186,-0.023933,-0.069106,-0.570186,0.146834,1.151180,0.881930,0.223975,3.244871,-8.551168
1790541912.5845,-0.036760,-0.074820,-0.555609,-0.032912,-0.073106,-0.555609,0.241537,0.361987,0.901356,-0.542584,0.939711,-9.560259
1790541912.5984,-0.040181,-0.076156,-0.548837,-0.038000,-0.075241,-0.548837,0.133479,0.142228,0.805439,0.875551,2.241011,-9.327392
1790541912.6122,-0.025959,-0.075211,-0.529717,-0.029571,-0.075220,-0.529717,-0.196768,-1.080413,0.960849,-0.695896,-0.175689,-13.713056
1790541912.6262,-0.019300,-0.069342,-0.518071,-0.022381,-0.071105,-0.518071,-0.553726,-0.707672,0.820008,2.945262,-0.659029,-10.608161
1790541912.6401,-0.014339,-0.062717,-0.506479,-0.016752,-0.065233,-0.506479,-0.670284,-0.642108,0.786013,3.251886,-1.588528,-8.628791
1790541912.6539,-0.004630,-0.054969,-0.497438,-0.008267,-0.058048,-0.497438,-0.751631,-0.980854,0.578394,2.561982,-1.253909,-6.765853
1790541912.6680,0.001378,-0.044894,-0.496014,-0.001515,-0.048840,-0.496014,-0.862118,-0.739240,0.409628,3.826806,-1.030829,-7.969000
1790541912.6819,0.009593,-0.031849,-0.497871,0.006261,-0.036947,-0.497871,-0.981104,-0.791448,0.200796,3.060246,0.716631,-10.646972
1790541912.6957,0.003411,-0.024410,-0.507442,0.004266,-0.028171,-0.507442,-0.528229,0.295210,0.007747,3.098574,1.832031,-11.384385
1790541912.7095,-0.005748,-0.027608,-0.506223,-0.002744,-0.027777,-0.506223,0.263392,0.960559,-0.568970,-3.532167,2.241011,-11.384385
1790541912.7234,0.002612,-0.031847,-0.511063,0.001005,-0.030626,-0.511063,0.327741,-0.220801,-1.208823,-3.685479,1.794851,-11.229140
1790541912.7373,0.004705,-0.037811,-0.521093,0.003595,-0.035655,-0.521093,0.548715,0.164082,-0.850651,-2.957247,2.984611,-8.900469
1790541912.7510,0.002155,-0.050462,-0.523416,0.002587,-0.046020,-0.523416,0.870463,0.275783,-0.459697,-0.197632,0.344831,-8.551168
1790541912.7648,0.016203,-0.061453,-0.527790,0.012118,-0.056823,-0.527790,0.813398,-0.759880,-0.877362,-2.880591,1.497411,-10.996273
1790541912.7786,0.028662,-0.067887,-0.545516,0.023699,-0.064568,-0.545516,0.570570,-0.740454,-1.087409,-0.964192,3.096151,-10.569350
1790541912.7924,0.032979,-0.075103,-0.568997,0.030195,-0.071943,-0.568997,0.589996,-0.265724,-1.188183,0.875551,1.869211,-7.969000
1790541912.8064,0.042676,-0.080874,-0.585688,0.038932,-0.078195,-0.585688,0.403018,-0.650607,-1.049770,0.453943,0.679451,-5.912007
1790541912.8205,0.056420,-0.092720,-0.591912,0.051173,-0.088362,-0.591912,0.717481,-0.901935,-0.899217,-0.235960,-0.659029,-8.900469
1790541912.8344,0.042654,-0.102467,-0.603202,0.045210,-0.098236,-0.603202,0.651917,0.979986,-0.643033,1.335487,0.605091,-17.089630
1790541912.8483,0.022665,-0.091297,-0.620169,0.029428,-0.093379,-0.620169,-0.733419,1.582200,-0.906502,-2.114032,3.951291,-17.361308
1790541912.8623,0.024089,-0.073391,-0.622694,0.025691,-0.079387,-0.622694,-1.317421,0.223575,-0.796015,-5.218598,0.716631,-11.617252
1790541912.8762,0.026316,-0.061933,-0.620290,0.026128,-0.067170,-0.620290,-1.119516,0.272141,-0.786301,-4.375383,-3.112908,-5.717951
1790541912.8901,0.016945,-0.045532,-0.623773,0.019700,-0.052023,-0.623773,-1.433979,0.899852,-0.538616,-1.539112,-1.885968,-5.873196
1790541912.9039,0.013915,-0.025373,-0.622695,0.015651,-0.033368,-0.622695,-1.518969,0.523468,-0.517976,-1.960720,0.233291,-5.174595
1790541912.9179,0.006312,-0.006902,-0.622891,0.009114,-0.014842,-0.622891,-1.294353,0.836717,-0.417202,-2.382327,1.423051,-6.571797
1790541912.9317,0.017723,-0.011090,-0.623716,0.015140,-0.012216,-0.623716,0.208755,-0.551047,-0.440271,-5.716862,-0.026969,-16.196973
1790541912.9456,0.022567,-0.014304,-0.613938,0.020339,-0.013677,-0.613938,0.361737,-0.461201,0.660956,-0.120976,4.360271,-11.035084
1790541912.9593,0.016905,-0.016867,-0.596170,0.017935,-0.015910,-0.596170,0.285246,0.369272,1.020342,-2.037376,3.430771,-10.297672
1790541912.9732,0.034200,-0.024558,-0.576691,0.029321,-0.021964,-0.576691,0.610636,-1.215183,0.928067,-2.458983,1.683311,-6.921098
1790541912.9871,0.020354,-0.034331,-0.600133,0.023044,-0.030621,-0.600133,0.734479,0.584175,0.732590,3.021918,1.088431,-5.368651
1790541913.0010,0.006022,-0.041101,-0.592646,0.011129,-0.037957,-0.592646,0.483151,0.947204,0.667027,0.070663,1.348691,-9.754315
1790541913.0146,-0.007577,-0.047762,-0.581011,-0.001965,-0.044820,-0.581011,0.524432,0.958131,0.783584,-0.465928,1.646131,-7.930189
1790541913.0282,-0.011437,-0.051226,-0.563655,-0.008595,-0.049304,-0.563655,0.251250,0.272141,1.016700,-1.730752,1.794851,-10.841028
1790541913.0419,-0.020806,-0.049332,-0.548340,-0.017143,-0.049323,-0.548340,-0.103279,0.547751,1.096833,0.338959,2.055111,-8.318301
1790541913.0562,-0.023913,-0.051091,-0.535589,-0.021882,-0.050561,-0.535589,0.135907,0.012314,1.048267,1.450471,1.980751,-8.745224
1790541913.0703,-0.027580,-0.052879,-0.529544,-0.025871,-0.052184,-0.529544,0.246394,-0.001041,0.914712,2.485326,3.319231,-7.697322
1790541913.0843,-0.014604,-0.047825,-0.519304,-0.017984,-0.049133,-0.519304,-0.262332,-1.026991,0.594178,0.607255,3.467951,-9.715504
1790541913.0982,-0.003354,-0.041958,-0.512590,-0.007743,-0.044111,-0.512590,-0.416528,-1.036704,0.626960,3.596838,2.612811,-14.295224
1790541913.1121,0.005425,-0.033635,-0.515510,0.001474,-0.036778,-0.515510,-0.696995,-0.912862,0.341637,4.746677,-0.175689,-11.772497
1790541913.1261,0.011071,-0.022469,-0.521935,0.008192,-0.026762,-0.521935,-0.840263,-0.704029,0.141303,3.520182,0.567911,-6.959909
1790541913.1399,0.021422,-0.009814,-0.528550,0.017453,-0.014899,-0.528550,-0.854833,-0.992995,-0.062673,1.987063,1.237151,-4.475993
1790541913.1537,0.015581,-0.016431,-0.528519,0.016142,-0.015971,-0.528519,0.366594,0.375343,-0.082099,1.028863,-0.212869,-9.094525
1790541913.1676,0.011265,-0.026624,-0.539284,0.012728,-0.023428,-0.539284,0.876533,0.631527,-0.725594,-3.148887,3.542311,-8.512357
1790541913.1815,0.026380,-0.036475,-0.553087,0.022284,-0.032561,-0.553087,0.755119,-0.741668,-1.253746,-3.953775,2.910251,-12.859210
1790541913.1955,0.021876,-0.043906,-0.572766,0.021999,-0.040503,-0.572766,0.554786,0.326777,-1.152972,3.443526,2.426911,-12.742777
1790541913.2094,0.024001,-0.053701,-0.584138,0.023401,-0.049741,-0.584138,0.647061,-0.062962,-0.889504,0.415615,0.456371,-11.462007
1790541913.2234,0.042053,-0.067264,-0.593501,0.036457,-0.062007,-0.593501,0.897174,-1.005137,-1.082552,-3.072231,0.047391,-9.793126
1790541913.2373,0.058413,-0.080669,-0.610683,0.051827,-0.075071,-0.610683,0.983378,-1.136264,-1.194253,0.530599,1.125611,-5.950818
1790541913.2509,0.067130,-0.088300,-0.631549,0.062539,-0.084331,-0.631549,0.684699,-0.622682,-1.244033,0.683911,2.389731,-5.989630
1790541913.2644,0.070226,-0.096812,-0.649765,0.067920,-0.093068,-0.649765,0.583925,-0.265724,-1.290170,1.833751,1.125611,-9.637881
1790541913.2784,0.065063,-0.104889,-0.667372,0.065920,-0.101342,-0.667372,0.483151,0.240573,-1.293813,5.168285,0.344831,-14.334035
1790541913.2923,0.054132,-0.102335,-0.681544,0.057669,-0.102037,-0.681544,-0.319396,0.967844,-1.233106,-2.995575,-0.993649,-16.158161
1790541913.3068,0.043581,-0.096455,-0.694005,0.047807,-0.098130,-0.694005,-0.569510,0.902281,-1.167542,-2.190688,-1.885968,-14.178791
1790541913.3207,0.041183,-0.084771,-0.703419,0.043170,-0.088779,-0.703419,-0.992031,0.540466,-1.077696,-3.493839,-0.919289,-6.649420
1790541913.3346,0.040467,-0.070507,-0.712557,0.041278,-0.075989,-0.712557,-1.197221,0.366844,-0.945354,-3.417183,-1.402628,-8.279490
1790541913.3485,0.038500,-0.053802,-0.723064,0.039334,-0.060458,-0.723064,-1.373272,0.318278,-0.849437,-1.194160,-1.105189,-8.240679
1790541913.3624,0.035658,-0.036218,-0.732792,0.036761,-0.043490,-0.732792,-1.491044,0.518612,-0.839724,-2.765607,-1.774428,-7.542077
1790541913.3763,0.024672,-0.018363,-0.745783,0.028299,-0.025902,-0.745783,-1.453405,1.056477,-0.917429,-1.845736,-0.993649,-9.327392
1790541913.3901,0.021984,-0.002059,-0.753886,0.023878,-0.009212,-0.753886,-1.305280,0.522254,-0.855508,-3.187215,-0.324409,-10.646972
1790541913.4039,0.035003,-0.015027,-0.771535,0.031665,-0.013283,-0.771535,0.708982,-0.968712,-0.425701,1.872079,-3.521888,-16.274595
1790541913.4178,0.022365,-0.031778,-0.788575,0.025155,-0.026230,-0.788575,1.161857,0.636383,0.266360,6.126485,0.976891,-15.381938
1790541913.4316,0.021985,-0.037852,-0.789054,0.022936,-0.034365,-0.789054,0.626420,-0.164950,0.484905,1.335487,3.021791,-6.300119
1790541913.4455,0.027795,-0.044506,-0.786422,0.026337,-0.041464,-0.786422,0.506220,-0.404136,0.039315,-0.350944,1.348691,-7.464455
1790541913.4594,0.015146,-0.056393,-0.795898,0.018503,-0.051915,-0.795898,0.813398,0.632741,0.282144,4.516709,0.456371,-10.491728
1790541913.4730,-0.005308,-0.072528,-0.798075,0.001835,-0.066344,-0.798075,1.161857,1.313875,0.490976,2.446998,0.642271,-9.521448
1790541913.4865,-0.018824,-0.081497,-0.786311,-0.012626,-0.076951,-0.786311,0.801257,1.090473,0.413271,-1.424128,2.873071,-8.046623
1790541913.5000,-0.028062,-0.086152,-0.776028,-0.023432,-0.083392,-0.776028,0.433372,0.715303,0.554111,-0.734224,2.389731,-8.628791
1790541913.5138,-0.032881,-0.091855,-0.766307,-0.030046,-0.089316,-0.766307,0.421230,0.342561,0.595392,-0.159304,1.051251,-7.192776
1790541913.5277,-0.026163,-0.096815,-0.753679,-0.027328,-0.094565,-0.753679,0.196614,-0.571688,0.790869,0.952207,-1.588528,-13.130889
1790541913.5417,-0.018061,-0.092051,-0.744791,-0.020841,-0.092805,-0.744791,-0.443239,-0.725884,0.786013,2.293686,-0.435949,-13.945924
1790541913.5561,-0.010506,-0.082101,-0.739331,-0.013606,-0.085312,-0.739331,-0.818409,-0.816945,0.823651,4.631693,-1.030829,-11.151518
1790541913.5701,-0.008231,-0.064955,-0.738702,-0.009844,-0.071062,-0.738702,-1.262785,-0.565617,0.682810,6.126485,0.456371,-8.978091
1790541913.5841,0.004875,-0.044782,-0.735655,0.000459,-0.052666,-0.735655,-1.535967,-1.137478,0.276073,2.293686,-0.064149,-8.357112
1790541913.5980,0.017467,-0.024649,-0.737599,0.012365,-0.033054,-0.737599,-1.432765,-1.284389,0.254218,3.175230,0.865351,-4.902916
1790541913.6119,0.037239,-0.007601,-0.740635,0.029777,-0.015237,-0.740635,-0.984746,-1.602495,0.341637,0.722239,2.649991,-4.204315
1790541913.6259,0.035180,-0.008260,-0.740240,0.033559,-0.010353,-0.740240,0.066701,-0.021682,0.323424,1.297159,1.423051,-7.464455
1790541913.6398,0.012047,-0.021392,-0.753880,0.018501,-0.018081,-0.753880,1.027087,1.631980,-0.195014,2.255358,4.397451,-14.799770
1790541913.6537,0.024693,-0.030176,-0.752927,0.022835,-0.026548,-0.752927,0.700483,-0.586258,-0.882219,-4.375383,3.505131,-12.277042
1790541913.6677,0.017534,-0.039519,-0.757472,0.019124,-0.035627,-0.757472,0.621564,0.357131,-0.583540,4.325070,0.679451,-9.754315
1790541913.6816,0.020778,-0.052076,-0.762840,0.020282,-0.047141,-0.762840,0.939669,-0.044750,-0.619964,-1.807408,1.943571,-9.870749
1790541913.6954,0.035218,-0.061846,-0.768024,0.030737,-0.057435,-0.768024,0.774546,-0.820587,-0.752306,-2.114032,1.980751,-8.046623
1790541913.7090,0.047906,-0.067719,-0.781180,0.042755,-0.064634,-0.781180,0.542644,-0.792662,-0.814227,-0.810880,2.055111,-6.338930
1790541913.7225,0.051390,-0.071738,-0.791299,0.048800,-0.069607,-0.791299,0.336240,-0.098172,-0.746235,-1.385800,1.757671,-8.357112
1790541913.7364,0.053256,-0.074086,-0.805448,0.051919,-0.072742,-0.805448,0.185687,-0.163736,-0.851865,1.297159,1.423051,-7.891378
1790541913.7503,0.056516,-0.074002,-0.819459,0.055137,-0.073624,-0.819459,0.025420,-0.209874,-0.782659,0.530599,2.017931,-9.987182
1790541913.7640,0.035008,-0.069387,-0.837503,0.041047,-0.070658,-0.837503,-0.327895,1.624695,-0.967209,1.220503,3.282051,-19.030189
1790541913.7779,0.025423,-0.051732,-0.847974,0.030110,-0.057410,-0.847974,-1.316207,0.930206,-1.029130,-2.267343,0.939711,-11.694875
1790541913.7918,0.021858,-0.039070,-0.830327,0.024334,-0.044572,-0.830327,-1.198435,0.499185,-0.898003,-1.424128,-2.443668,-7.231588
1790541913.8061,0.012248,-0.019817,-0.844449,0.015874,-0.027244,-0.844449,-1.325920,0.720159,-0.701312,0.338959,0.567911,-2.807112
1790541913.8202,-0.001257,-0.002654,-0.856242,0.003883,-0.010031,-0.856242,-1.200864,1.152394,-0.742592,-0.580912,1.460231,-7.852567
1790541913.8342,0.010997,-0.016921,-0.854988,0.008863,-0.014854,-0.854988,0.939669,-0.565617,-0.825154,-5.563550,0.233291,-18.642077
1790541913.8480,0.007212,-0.023476,-0.858517,0.007707,-0.020889,-0.858517,0.579069,0.032955,0.337994,3.673494,3.653851,-10.414105
1790541913.8620,0.004013,-0.033042,-0.853776,0.005121,-0.029397,-0.853776,0.722337,0.077878,0.589322,1.105519,1.943571,-8.978091
1790541913.8759,0.008702,-0.049673,-0.843417,0.007628,-0.043590,-0.843417,1.212851,-0.662749,0.861289,2.293686,1.125611,-6.144874
1790541913.8898,0.007285,-0.064533,-0.842981,0.007388,-0.058250,-0.842981,1.154572,-0.088459,0.449695,1.642111,1.720491,-6.649420
1790541913.9036,-0.006605,-0.073006,-0.835416,-0.002407,-0.068579,-0.835416,0.572998,0.908351,0.518901,1.143847,0.642271,-11.694875
1790541913.9175,-0.015648,-0.083905,-0.824746,-0.011676,-0.079307,-0.824746,0.751477,0.626670,0.709522,-0.619240,1.162791,-15.071448
1790541913.9313,-0.035515,-0.088782,-0.822123,-0.028363,-0.085939,-0.822123,0.509863,1.236170,1.107760,1.718767,2.984611,-6.765853
1790541913.9449,-0.048995,-0.092052,-0.815737,-0.042805,-0.090218,-0.815737,0.315600,0.983628,1.013057,-0.465928,2.501271,-8.357112
1790541913.9584,-0.052893,-0.097140,-0.802253,-0.049867,-0.095063,-0.802253,0.310743,0.302494,0.917140,-0.619240,0.642271,-8.279490
1790541913.9722,-0.053351,-0.100754,-0.788840,-0.052305,-0.099047,-0.788840,0.168689,0.014743,0.759301,0.032335,0.196111,-12.471098
1790541913.9861,-0.046313,-0.098050,-0.776938,-0.048111,-0.098349,-0.776938,-0.246548,-0.583829,0.845505,1.335487,1.534591,-16.429840
1790541914.0002,-0.033047,-0.090980,-0.761187,-0.037566,-0.093191,-0.761187,-0.604720,-1.064630,0.790869,1.910407,0.047391,-13.751868
1790541914.0141,-0.029454,-0.084681,-0.732224,-0.031888,-0.087234,-0.732224,-0.649643,-0.605684,0.752017,5.474909,-1.737248,-9.288581
1790541914.0279,-0.014375,-0.066787,-0.723534,-0.019629,-0.072921,-0.723534,-1.291924,-1.340240,0.783584,2.370342,1.274331,-7.464455
1790541914.0418,-0.006263,-0.046730,-0.698788,-0.010273,-0.054587,-0.698788,-1.605173,-0.992995,0.789655,4.018446,-0.659029,-6.494175
1790541914.0558,0.003870,-0.025962,-0.676539,-0.000373,-0.034550,-0.676539,-1.642811,-0.954143,0.645172,1.488799,-0.547489,-5.989630
1790541914.0704,0.018205,-0.007835,-0.666218,0.012632,-0.015850,-0.666218,-1.304066,-1.206684,0.447267,1.833751,0.530731,-7.542077
1790541914.0845,0.004484,-0.011258,-0.647284,0.006928,-0.012636,-0.647284,0.046060,0.834289,0.386560,3.596838,-2.964188,-21.203616
1790541914.0984,-0.006521,-0.022947,-0.652407,-0.002486,-0.019853,-0.652407,0.899602,1.142681,-0.422059,-5.870174,3.096151,-12.509909
1790541914.1123,0.005093,-0.027416,-0.674349,0.002819,-0.025147,-0.674349,0.475867,-0.521908,-1.103193,-2.497311,3.542311,-9.210958
1790541914.1264,-0.000607,-0.031343,-0.711681,0.000421,-0.029484,-0.711681,0.547501,0.327991,-0.542259,1.335487,2.501271,-3.971448
1790541914.1402,0.000719,-0.046885,-0.706811,0.000630,-0.041665,-0.706811,1.063511,0.127658,-0.373493,-2.382327,0.307651,-8.900469
1790541914.1540,0.019049,-0.067620,-0.707418,0.013523,-0.059833,-0.707418,1.473891,-1.102268,-0.668530,-2.995575,0.642271,-11.384385
1790541914.1676,0.030918,-0.080725,-0.727758,0.025700,-0.074458,-0.727758,1.091437,-0.781734,-0.876148,-0.197632,2.761531,-8.822846
1790541914.1812,0.039707,-0.083257,-0.747649,0.035505,-0.080617,-0.747649,0.290103,-0.632395,-0.870077,0.683911,2.203831,-7.813756
1790541914.1950,0.050758,-0.084200,-0.760497,0.046182,-0.083125,-0.760497,0.078842,-0.812088,-0.821512,0.722239,0.939711,-6.571797
1790541914.2090,0.060310,-0.090682,-0.768378,0.056072,-0.088415,-0.768378,0.365380,-0.701601,-1.002419,1.373815,-0.101329,-10.103616
1790541914.2228,0.043789,-0.091410,-0.779740,0.047474,-0.090512,-0.779740,0.016921,1.140252,-0.740164,3.136902,1.348691,-17.516553
1790541914.2367,0.016473,-0.074075,-0.793397,0.025774,-0.079006,-0.793397,-1.227575,2.083641,-0.626035,-1.424128,2.910251,-18.913756
1790541914.2506,0.018729,-0.055405,-0.773102,0.020842,-0.062486,-0.773102,-1.552965,0.321921,-0.711025,-7.211653,-2.518028,-8.007811
1790541914.2643,0.014107,-0.043772,-0.759627,0.016127,-0.049386,-0.759627,-1.250643,0.562321,-0.568970,-1.347472,-3.261628,-4.941727
1790541914.2781,0.001719,-0.023358,-0.763266,0.006042,-0.031166,-0.763266,-1.543252,1.132968,-0.570184,-0.542584,0.121751,-2.574245
1790541914.2920,-0.007474,-0.004833,-0.784874,-0.003419,-0.012733,-0.784874,-1.151084,1.009125,-0.686742,-2.037376,2.352551,-4.864105
1790541914.3058,0.002013,-0.010398,-0.786211,0.000383,-0.011099,-0.786211,0.206327,-0.593542,-0.595681,0.338959,-3.335988,-18.991378
1790541914.3202,0.008888,-0.024064,-0.785052,0.006337,-0.020174,-0.785052,0.976093,-0.622682,0.340422,2.906934,3.988471,-19.612357
1790541914.3341,0.005298,-0.028699,-0.781390,0.005610,-0.026142,-0.781390,0.395733,-0.019253,0.970562,2.332014,2.687171,-9.909560
1790541914.3480,0.019190,-0.036528,-0.764691,0.015116,-0.033412,-0.764691,0.591210,-0.837585,0.947493,-3.723807,1.274331,-6.067252
1790541914.3618,0.017683,-0.046513,-0.754496,0.016913,-0.042582,-0.754496,0.653131,-0.069033,0.762944,1.067191,0.121751,-8.861658
1790541914.3758,0.000212,-0.052581,-0.748584,0.005222,-0.049582,-0.748584,0.432157,1.038265,0.880716,1.833751,1.274331,-9.599070
1790541914.3897,-0.016034,-0.061815,-0.736555,-0.009657,-0.058145,-0.736555,0.657988,1.077117,0.998487,-0.082648,1.534591,-10.336483
1790541914.4033,-0.030601,-0.064235,-0.726120,-0.024318,-0.062408,-0.726120,0.218468,1.007911,1.034912,-0.312616,2.203831,-8.978091
1790541914.4170,-0.037642,-0.066695,-0.710602,-0.033645,-0.065409,-0.710602,0.138335,0.521040,1.014271,-1.462456,1.385871,-10.841028
1790541914.4310,-0.036568,-0.067839,-0.695582,-0.035691,-0.067110,-0.695582,0.030276,-0.118813,0.946279,-0.504256,1.125611,-9.831937
1790541914.4447,-0.033919,-0.066372,-0.688186,-0.034451,-0.066593,-0.688186,-0.046214,-0.325217,0.863718,0.913879,2.426911,-8.201867
1790541914.4586,-0.025385,-0.062947,-0.677618,-0.028104,-0.064041,-0.677618,-0.303613,-0.860654,0.951136,3.750150,1.385871,-13.945924
1790541914.4725,-0.017917,-0.054722,-0.667519,-0.020973,-0.057517,-0.667519,-0.689710,-0.769593,0.779942,2.753622,0.158931,-10.608161
1790541914.4864,-0.011646,-0.045825,-0.658269,-0.014444,-0.049333,-0.658269,-0.789269,-0.700387,0.633031,3.328542,-0.993649,-10.608161
1790541914.5002,-0.001432,-0.033530,-0.657680,-0.005335,-0.038271,-0.657680,-0.921611,-0.951714,0.293071,2.025391,0.716631,-6.882287
1790541914.5141,0.005139,-0.020402,-0.662174,0.001997,-0.025763,-0.662174,-1.013886,-0.759880,0.056313,3.443526,0.233291,-6.882287
1790541914.5279,0.002349,-0.014601,-0.670049,0.002243,-0.017949,-0.670049,-0.365534,0.104589,-0.037176,1.833751,2.389731,-9.560259
1790541914.5418,-0.004137,-0.018028,-0.683608,-0.002223,-0.018005,-0.683608,0.314386,0.675236,-0.805728,-1.194160,3.021791,-12.160609
1790541914.5559,0.001507,-0.023419,-0.699110,0.000388,-0.021794,-0.699110,0.416374,-0.016825,-1.462579,-3.302199,2.278191,-13.286133
1790541914.5704,0.004318,-0.027774,-0.724699,0.003139,-0.025980,-0.724699,0.505006,0.075450,-1.190611,-0.925864,2.947431,-5.756762
1790541914.5844,0.002336,-0.036823,-0.730429,0.002577,-0.033570,-0.730429,0.594853,0.251500,-0.656388,-0.005993,0.270471,-6.571797
1790541914.5984,0.013491,-0.050165,-0.734413,0.010217,-0.045187,-0.734413,0.902030,-0.531621,-0.866435,-3.187215,0.456371,-12.665154
1790541914.6138,0.027536,-0.058245,-0.754778,0.022340,-0.054328,-0.754778,0.620350,-0.818159,-1.071625,0.377287,2.761531,-9.249770
1790541914.6279,0.028573,-0.060159,-0.777871,0.026703,-0.058410,-0.777871,0.256107,-0.008326,-1.125047,0.875551,2.798711,-7.969000
1790541914.6418,0.034195,-0.061984,-0.792807,0.031947,-0.060912,-0.792807,0.135907,-0.294864,-1.052199,-0.005993,1.051251,-7.231588
1790541914.6567,0.042875,-0.069814,-0.799774,0.039597,-0.067144,-0.799774,0.415159,-0.517052,-0.893146,0.300631,-0.473129,-9.172147
1790541914.6708,0.046120,-0.076241,-0.811637,0.044163,-0.073512,-0.811637,0.553572,-0.234156,-0.441485,0.568927,2.910251,-10.103616
1790541914.6846,0.020089,-0.065414,-0.815471,0.027311,-0.067843,-0.815471,-0.893686,1.839598,-0.494907,2.293686,-0.621849,-13.014455
1790541914.6988,0.020178,-0.050278,-0.812289,0.022318,-0.055548,-0.812289,-1.172938,0.335276,-0.578683,-5.831846,-0.621849,-11.617252
1790541914.7128,0.013541,-0.041343,-0.810101,0.016174,-0.045605,-0.810101,-0.813552,0.641240,-0.474267,-1.654096,-1.662888,-10.220049
1790541914.7267,0.006922,-0.026637,-0.811275,0.009697,-0.032327,-0.811275,-1.086734,0.819719,-0.378350,-2.688951,0.493551,-5.329839
1790541914.7406,0.000034,-0.012205,-0.810881,0.002933,-0.018242,-0.810881,-1.108589,0.698305,-0.212012,-2.075704,0.307651,-8.201867
1790541914.7546,-0.002291,-0.003886,-0.810021,-0.000724,-0.008193,-0.810021,-0.612005,0.340133,-0.117309,-2.114032,1.348691,-9.172147
1790541914.7685,0.013921,-0.015035,-0.798502,0.009528,-0.012983,-0.798502,0.723552,-1.056131,0.387774,-5.065286,0.753811,-16.041728
1790541914.7823,0.002741,-0.026740,-0.793860,0.004777,-0.022613,-0.793860,0.818255,0.459119,1.047053,4.631693,1.534591,-13.519000
1790541914.7962,0.005240,-0.042085,-0.777088,0.005101,-0.036243,-0.777088,1.022231,-0.368926,1.161182,0.530599,0.382011,-12.548721
1790541914.8103,0.001404,-0.052244,-0.769961,0.002513,-0.047444,-0.769961,0.806113,0.133729,0.765372,0.568927,1.906391,-6.610609
1790541914.8246,-0.012057,-0.060819,-0.764711,-0.007686,-0.056807,-0.764711,0.558428,0.725016,0.764158,2.446998,0.716631,-9.831937
1790541914.8385,-0.024321,-0.072362,-0.755081,-0.019330,-0.067696,-0.755081,0.809756,0.794222,0.804225,0.645583,1.423051,-12.703965
1790541914.8524,-0.048651,-0.078450,-0.749873,-0.039855,-0.075224,-0.749873,0.557214,1.574915,1.037340,1.642111,3.244871,-8.124245
1790541914.8661,-0.056366,-0.083571,-0.735828,-0.051413,-0.081067,-0.735828,0.407875,0.608458,1.045839,-1.730752,2.798711,-10.220049
1790541914.8798,-0.058925,-0.095108,-0.721395,-0.056672,-0.090896,-0.721395,0.840109,0.136157,1.111403,-0.005993,2.017931,-9.249770
1790541914.8938,-0.051823,-0.096838,-0.705490,-0.053278,-0.095056,-0.705490,0.039990,-0.599613,1.087120,0.952207,1.088431,-13.324944
1790541914.9076,-0.043091,-0.093275,-0.691834,-0.046147,-0.093809,-0.691834,-0.372819,-0.772021,0.945065,1.910407,0.047391,-12.199420
1790541914.9216,-0.032083,-0.087650,-0.678319,-0.036302,-0.089498,-0.678319,-0.584079,-1.039133,0.974205,3.558510,-1.365448,-10.763406
1790541914.9355,-0.025677,-0.079309,-0.670009,-0.028865,-0.082366,-0.670009,-0.806267,-0.840013,0.815152,5.283269,-1.960328,-8.434735
1790541914.9495,-0.020568,-0.065359,-0.664782,-0.023057,-0.070461,-0.664782,-1.118302,-0.623896,0.476406,3.520182,-0.696209,-8.589979
1790541914.9634,-0.011577,-0.048908,-0.659450,-0.015021,-0.055374,-0.659450,-1.316207,-0.831514,0.255432,2.332014,-0.584669,-8.434735
1790541914.9772,-0.001209,-0.030067,-0.666749,-0.005352,-0.037659,-0.666749,-1.306494,-0.962642,0.081810,2.102047,1.460231,-5.912007
1790541914.9912,0.013275,-0.012716,-0.670610,0.007687,-0.020199,-0.670610,-1.194793,-1.186044,0.028388,1.450471,1.497411,-6.222497
1790541915.0052,-0.000669,-0.013705,-0.673471,0.001838,-0.015653,-0.673471,0.061844,0.965416,0.010176,1.948735,2.947431,-20.039280
1790541915.0191,-0.010419,-0.021861,-0.685293,-0.006742,-0.019999,-0.685293,0.687127,1.021267,-0.881005,-2.995575,3.319231,-10.957462
1790541915.0329,0.003223,-0.033083,-0.679371,0.000233,-0.029158,-0.679371,0.778188,-0.396851,-1.356948,-7.441621,0.270471,-9.560259
1790541915.0469,-0.001568,-0.035240,-0.705226,-0.001028,-0.033415,-0.705226,0.446727,0.349846,-0.690384,1.258831,4.211551,-5.950818
1790541915.0610,-0.003512,-0.043259,-0.707083,-0.002767,-0.040306,-0.707083,0.575426,0.318278,-0.306715,-2.114032,1.423051,-9.987182
1790541915.0754,0.012893,-0.054241,-0.710918,0.008195,-0.050060,-0.710918,0.793972,-0.921361,-0.570184,-3.263871,2.055111,-12.160609
1790541915.0891,0.025196,-0.066408,-0.721008,0.020096,-0.061503,-0.721008,0.897174,-0.809660,-0.814227,-0.044320,1.311511,-10.220049
1790541915.1028,0.034229,-0.066780,-0.735739,0.029989,-0.065197,-0.735739,0.239109,-0.626324,-0.669744,0.338959,3.542311,-6.959909
1790541915.1167,0.038107,-0.068319,-0.747030,0.035671,-0.067382,-0.747030,0.161404,-0.258439,-0.690384,0.492271,1.497411,-6.921098
1790541915.1307,0.042285,-0.073182,-0.757596,0.040301,-0.071442,-0.757596,0.366594,-0.239013,-0.702526,-0.005993,1.460231,-9.016902
1790541915.1446,0.037600,-0.074408,-0.765239,0.038410,-0.073519,-0.765239,0.095840,0.315850,-0.480338,1.258831,1.720491,-12.548721
1790541915.1586,0.020692,-0.063969,-0.773949,0.026007,-0.066834,-0.773949,-0.746774,1.260453,-0.464554,0.300631,2.129471,-16.158161
1790541915.1727,0.015586,-0.051400,-0.772489,0.018713,-0.056030,-0.772489,-0.987175,0.694662,-0.388063,-5.026958,-0.584669,-9.405014
1790541915.1866,0.011945,-0.043924,-0.769917,0.013975,-0.047556,-0.769917,-0.694566,0.499185,-0.204727,-2.688951,-1.068009,-7.619700
1790541915.2005,0.003313,-0.027268,-0.772534,0.006512,-0.033354,-0.772534,-1.066094,0.881640,-0.128236,-1.615768,1.497411,-3.738581
1790541915.2146,-0.008461,-0.014371,-0.774977,-0.003969,-0.020066,-0.774977,-0.983532,1.021267,-0.105168,-1.807408,0.233291,-7.309210
1790541915.2286,-0.001518,-0.019643,-0.773342,-0.002254,-0.019770,-0.773342,0.253679,-0.347072,-0.010465,-4.337055,-0.919289,-18.021098
1790541915.2425,0.002605,-0.027703,-0.765150,0.001147,-0.025323,-0.765150,0.513505,-0.519480,0.673097,2.791950,0.790991,-13.907112
1790541915.2564,0.000241,-0.037479,-0.752559,0.000513,-0.033832,-0.752559,0.613065,-0.001041,0.970562,0.760567,0.233291,-11.656063
1790541915.2703,-0.000536,-0.049113,-0.742492,-0.000221,-0.044529,-0.742492,0.872891,-0.055678,0.725305,0.300631,1.608951,-7.309210
1790541915.2842,-0.009688,-0.058636,-0.737198,-0.006848,-0.054404,-0.737198,0.734479,0.468832,0.578394,1.795423,1.646131,-7.425644
1790541915.2982,-0.023313,-0.070504,-0.729972,-0.018374,-0.065674,-0.729972,0.870463,0.877998,0.657313,0.990535,1.943571,-11.035084
1790541915.3121,-0.045604,-0.080659,-0.722340,-0.037435,-0.076164,-0.722340,0.758762,1.469285,0.766586,1.450471,1.832031,-8.900469
1790541915.3265,-0.059151,-0.087565,-0.712038,-0.052636,-0.084145,-0.712038,0.506220,0.885283,0.827293,0.530599,2.315371,-10.220049
1790541915.3400,-0.065483,-0.095032,-0.701000,-0.061629,-0.091766,-0.701000,0.531717,0.460333,0.845505,-0.197632,1.534591,-9.793126
1790541915.3539,-0.059659,-0.098928,-0.689487,-0.060250,-0.096780,-0.689487,0.265820,-0.423563,0.783584,-0.235960,1.869211,-11.151518
1790541915.3678,-0.046626,-0.097571,-0.676465,-0.050713,-0.097334,-0.676465,-0.184627,-1.031848,0.857647,1.258831,0.642271,-13.247322
1790541915.3817,-0.033495,-0.094531,-0.663229,-0.038661,-0.095372,-0.663229,-0.400744,-1.121694,0.839435,2.523654,-1.514168,-11.306763
1790541915.3956,-0.022983,-0.092567,-0.650677,-0.027687,-0.093408,-0.650677,-0.348536,-0.994209,0.790869,3.175230,-1.997508,-9.327392
1790541915.4095,-0.019038,-0.082793,-0.643325,-0.021632,-0.085978,-0.643325,-0.869403,-0.678532,0.588107,5.666549,-1.551348,-7.697322
1790541915.4234,-0.014186,-0.067740,-0.637909,-0.016420,-0.073211,-0.637909,-1.222718,-0.645751,0.380489,3.481854,-0.807749,-6.998721
1790541915.4373,-0.011020,-0.046379,-0.637077,-0.012640,-0.054429,-0.637077,-1.606387,-0.532835,0.248148,4.248414,0.121751,-7.969000
1790541915.4510,0.003252,-0.024253,-0.632856,-0.001516,-0.033306,-0.632856,-1.701090,-1.227325,0.101236,2.446998,0.084571,-8.473546
1790541915.4649,0.010401,-0.005384,-0.637226,0.006826,-0.013760,-0.637226,-1.340490,-0.714957,0.008962,2.868606,1.646131,-8.395923
1790541915.4789,-0.010018,-0.020687,-0.636006,-0.004965,-0.018609,-0.636006,0.948168,1.421933,-0.263006,4.210086,-1.960328,-20.388581
1790541915.4927,-0.000541,-0.035696,-0.653641,-0.001868,-0.030570,-0.653641,1.507887,-0.192876,-0.900431,-5.985158,7.260310,-4.010259
1790541915.5066,-0.008425,-0.037767,-0.669073,-0.006458,-0.035608,-0.669073,0.267034,0.453048,-0.519190,3.328542,2.873071,-8.745224
1790541915.5205,-0.019452,-0.052203,-0.674850,-0.015553,-0.047224,-0.674850,1.016160,0.932634,-0.558043,-0.504256,0.530731,-9.016902
1790541915.5344,-0.003029,-0.065540,-0.680637,-0.006787,-0.060045,-0.680637,1.016160,-0.850941,-0.819083,-4.298727,1.943571,-10.608161
1790541915.5480,0.000046,-0.079033,-0.694696,-0.002004,-0.073337,-0.694696,1.065940,-0.173449,-0.839724,0.645583,1.646131,-8.551168
1790541915.5617,0.009530,-0.085097,-0.711279,0.006070,-0.081569,-0.711279,0.577855,-0.614183,-0.888289,0.108991,2.575631,-8.628791
1790541915.5759,0.025471,-0.087946,-0.721089,0.019651,-0.086033,-0.721089,0.192971,-1.080413,-0.811798,0.415615,0.679451,-8.551168
1790541915.5905,0.034439,-0.092927,-0.730377,0.030002,-0.090859,-0.730377,0.302244,-0.662749,-0.848223,1.718767,0.307651,-9.094525
1790541915.6046,0.038461,-0.094383,-0.739266,0.035923,-0.093326,-0.739266,0.129836,-0.307005,-0.521619,0.837223,1.348691,-9.405014
1790541915.6184,0.021774,-0.085374,-0.753766,0.026019,-0.087760,-0.753766,-0.692138,1.288378,-1.052199,0.300631,0.790991,-16.352217
1790541915.6324,0.017065,-0.067368,-0.762939,0.019751,-0.073485,-0.762939,-1.267641,0.692234,-0.822726,-4.375383,1.348691,-8.784035
1790541915.6461,0.013192,-0.055881,-0.764090,0.015160,-0.061162,-0.764090,-0.962892,0.633955,-0.723166,-3.493839,-0.807749,-7.464455
1790541915.6600,0.005154,-0.039793,-0.766919,0.008156,-0.046204,-0.766919,-1.202078,0.914422,-0.428130,-2.573967,0.270471,-5.329839
1790541915.6740,-0.011586,-0.019928,-0.782872,-0.005663,-0.027811,-0.782872,-1.032098,1.260453,-0.426915,0.223975,3.802571,-3.505713
1790541915.6880,-0.006771,-0.027550,-0.789065,-0.006438,-0.027628,-0.789065,0.560857,-0.241441,-0.458483,-0.235960,1.125611,-7.037532
1790541915.7018,-0.001315,-0.034663,-0.783685,-0.002852,-0.032552,-0.783685,0.583925,-0.512195,0.375632,1.182175,2.835891,-10.103616
1790541915.7158,0.001231,-0.041163,-0.771126,0.000006,-0.038580,-0.771126,0.395733,-0.304577,0.760516,0.453943,0.567911,-12.509909
1790541915.7297,0.000325,-0.050860,-0.755445,0.000229,-0.047176,-0.755445,0.640990,-0.132168,1.005772,1.527127,0.790991,-12.509909
1790541915.7435,-0.009262,-0.063851,-0.745150,-0.006414,-0.058849,-0.745150,0.962738,0.491901,0.812724,1.603783,1.423051,-7.697322
1790541915.7574,-0.029163,-0.076996,-0.731659,-0.022339,-0.071551,-0.731659,0.904459,1.204602,0.975419,2.485326,0.716631,-9.016902
1790541915.7713,-0.044778,-0.087673,-0.720249,-0.038046,-0.082836,-0.720249,0.733265,1.075903,0.980275,-0.044320,1.237151,-11.073895
1790541915.7848,-0.061972,-0.093879,-0.709337,-0.054794,-0.090566,-0.709337,0.468582,1.188818,1.113831,0.492271,1.794851,-8.163056
1790541915.7984,-0.068073,-0.098623,-0.698493,-0.064090,-0.096206,-0.698493,0.332598,0.512541,1.079835,-1.500784,1.832031,-9.482637
1790541915.8123,-0.056618,-0.102246,-0.685756,-0.058860,-0.100434,-0.685756,0.260963,-0.809660,1.079835,-1.040848,2.835891,-11.966553
1790541915.8264,-0.043407,-0.100171,-0.671481,-0.048043,-0.100250,-0.671481,-0.246548,-0.994209,0.901356,0.415615,0.307651,-12.665154
1790541915.8405,-0.035816,-0.096907,-0.647519,-0.039484,-0.097910,-0.647519,-0.437168,-0.803589,1.102904,4.555037,-2.071868,-12.665154
1790541915.8544,-0.026535,-0.094554,-0.619858,-0.030420,-0.095561,-0.619858,-0.482092,-1.022135,0.998487,3.826806,-2.852648,-6.377742
1790541915.8683,-0.021839,-0.081628,-0.608877,-0.024413,-0.085808,-0.608877,-0.985960,-0.713743,0.894071,3.673494,0.419191,-6.144874
1790541915.8821,-0.017480,-0.062739,-0.597627,-0.019560,-0.069660,-0.597627,-1.459476,-0.633609,0.620889,2.830278,-0.101329,-5.717951
1790541915.8960,-0.012081,-0.044703,-0.589623,-0.014325,-0.052190,-0.589623,-1.341704,-0.571688,0.500689,2.025391,0.865351,-8.978091
1790541915.9098,0.002008,-0.027337,-0.582000,-0.002892,-0.034793,-0.582000,-1.350203,-1.315957,0.248148,3.711822,0.084571,-8.163056
1790541915.9237,-0.006599,-0.019130,-0.586552,-0.005487,-0.023829,-0.586552,-0.534300,0.323135,0.390202,4.708349,2.612811,-9.909560
1790541915.9375,-0.014865,-0.025690,-0.586196,-0.012051,-0.025132,-0.586196,0.379949,0.519826,-0.432986,4.325070,-0.250049,-14.838581
1790541915.9513,0.002273,-0.034154,-0.608004,-0.002024,-0.031447,-0.608004,0.768475,-0.736811,-1.082552,-5.601878,3.058971,-7.503266
1790541915.9651,-0.016731,-0.038655,-0.636943,-0.012319,-0.036493,-0.636943,0.608208,1.091687,-0.463340,4.938317,3.951291,-4.864105
1790541915.9790,-0.016147,-0.048726,-0.642876,-0.014999,-0.045056,-0.642876,0.733265,0.144656,-0.511905,-1.424128,0.976891,-8.861658
1790541915.9929,0.003376,-0.065372,-0.651057,-0.002137,-0.059277,-0.651057,1.212851,-1.237038,-0.717095,-1.309144,1.199971,-10.025993
1790541916.0066,0.013675,-0.082727,-0.666330,0.008932,-0.075692,-0.666330,1.334265,-0.705244,-0.878576,0.645583,1.646131,-8.434735
1790541916.0203,0.027908,-0.087996,-0.690045,0.022215,-0.084305,-0.690045,0.551143,-0.866724,-0.973279,-1.194160,2.649991,-7.270399
1790541916.0342,0.037450,-0.094586,-0.700596,0.032880,-0.091502,-0.700596,0.490436,-0.701601,-0.843366,0.990535,1.051251,-7.930189
1790541916.0481,0.048878,-0.103118,-0.715633,0.044079,-0.099633,-0.715633,0.632491,-0.705244,-0.877362,-1.117504,1.385871,-10.103616
1790541916.0622,0.035981,-0.109047,-0.731490,0.038410,-0.106223,-0.731490,0.416374,1.045549,-0.881005,-2.343999,1.832031,-18.642077
1790541916.0768,0.012172,-0.089275,-0.747723,0.020044,-0.094360,-0.747723,-1.318635,1.866309,-0.752306,-5.601878,2.687171,-17.788231
1790541916.0910,0.012985,-0.072629,-0.742114,0.015102,-0.079148,-0.742114,-1.329563,0.348632,-0.887075,-6.636734,-1.960328,-10.375294
1790541916.1050,0.001282,-0.058245,-0.731128,0.005428,-0.064516,-0.731128,-1.338062,0.993341,-0.721952,-0.427600,-1.737248,-3.893825
1790541916.1189,-0.010610,-0.037729,-0.743542,-0.005799,-0.045765,-0.743542,-1.421837,1.039479,-0.634534,-0.849208,1.199971,-6.300119
1790541916.1329,-0.016831,-0.025345,-0.739585,-0.013521,-0.031471,-0.739585,-1.115874,0.890139,-0.493693,-3.992103,-2.071868,-5.291028
1790541916.1469,-0.017876,-0.026533,-0.743317,-0.016569,-0.028014,-0.743317,-0.037716,0.302494,-0.490051,-4.490366,-1.848788,-20.582637
1790541916.1609,-0.005903,-0.040785,-0.733135,-0.009103,-0.036954,-0.733135,0.927527,-0.933502,0.507974,0.300631,0.382011,-17.594175
1790541916.1744,-0.009933,-0.044842,-0.726687,-0.009684,-0.042476,-0.726687,0.343525,0.001387,0.823651,3.635166,2.501271,-10.336483
1790541916.1875,-0.003503,-0.057062,-0.711279,-0.005357,-0.052686,-0.711279,0.844966,-0.480627,0.918354,-1.347472,0.158931,-7.231588
1790541916.2005,-0.007867,-0.073025,-0.704063,-0.007114,-0.066923,-0.704063,1.187354,0.047525,0.794512,2.255358,0.493551,-6.455364
1790541916.2140,-0.024940,-0.085336,-0.700021,-0.019592,-0.079812,-0.700021,0.977307,1.041907,0.771443,2.791950,2.055111,-8.861658
1790541916.2278,-0.041616,-0.097574,-0.691656,-0.035009,-0.092246,-0.691656,0.936026,1.073475,0.983918,1.258831,2.203831,-8.861658
1790541916.2413,-0.058750,-0.102690,-0.684395,-0.051628,-0.099557,-0.684395,0.475867,1.260453,0.998487,-0.197632,2.538451,-7.464455
1790541916.2549,-0.065339,-0.106615,-0.672248,-0.061226,-0.104498,-0.672248,0.271891,0.502828,1.060409,-0.734224,1.794851,-9.948371
1790541916.2687,-0.064080,-0.109800,-0.661738,-0.063224,-0.108209,-0.661738,0.206327,-0.116385,0.847934,0.300631,1.720491,-11.772497
1790541916.2825,-0.051566,-0.110962,-0.649734,-0.055064,-0.110136,-0.649734,0.026634,-1.009993,0.803011,1.527127,0.865351,-10.646972
1790541916.2964,-0.041261,-0.108635,-0.636446,-0.045402,-0.109086,-0.636446,-0.307255,-0.852155,0.650029,1.910407,-0.993649,-11.267951
1790541916.3103,-0.033078,-0.108721,-0.616320,-0.036775,-0.108830,-0.616320,-0.193126,-0.861868,0.981489,3.980118,-1.774428,-9.521448
1790541916.3249,-0.027007,-0.104723,-0.599436,-0.029938,-0.105955,-0.599436,-0.418956,-0.680961,0.919568,4.440053,-1.179549,-10.763406
1790541916.3390,-0.018027,-0.090397,-0.590113,-0.021600,-0.095065,-0.590113,-1.081878,-0.870367,0.626960,2.485326,0.121751,-6.959909
1790541916.3530,-0.015085,-0.070179,-0.583654,-0.017039,-0.077645,-0.583654,-1.574819,-0.479413,0.199582,3.711822,-0.844929,-7.503266
1790541916.3668,-0.010106,-0.040879,-0.586193,-0.012186,-0.051908,-0.586193,-2.127254,-0.574116,0.067240,2.868606,1.051251,-7.542077
1790541916.3806,0.005593,-0.015710,-0.582665,0.000259,-0.026569,-0.582665,-1.901424,-1.286818,-0.135521,2.370342,0.270471,-8.434735
1790541916.3945,-0.011937,-0.019155,-0.574351,-0.008278,-0.021379,-0.574351,0.049703,1.170606,-0.119737,5.436581,-3.744968,-21.281238
1790541916.4083,-0.003801,-0.045978,-0.588314,-0.005144,-0.038598,-0.588314,2.095532,-0.070247,-0.556829,-11.427731,4.955151,-10.297672
1790541916.4221,-0.019276,-0.041427,-0.647118,-0.015037,-0.040578,-0.647118,0.313172,1.334515,-0.672172,-1.232488,6.851330,-0.478441
1790541916.4360,-0.027673,-0.054409,-0.660213,-0.023882,-0.050260,-0.660213,0.997948,0.816076,-0.788730,-1.117504,1.497411,-9.133336
1790541916.4497,-0.020333,-0.058577,-0.670658,-0.021398,-0.056082,-0.670658,0.434586,-0.236585,-0.729237,-2.918919,2.612811,-8.628791
1790541916.4633,-0.015417,-0.074064,-0.672418,-0.017211,-0.068669,-0.672418,1.014946,-0.237799,-0.789944,-0.274288,-1.439808,-10.841028
1790541916.4770,-0.004969,-0.079928,-0.687311,-0.008642,-0.076551,-0.687311,0.685913,-0.650607,-0.770518,-0.350944,3.988471,-7.464455
1790541916.4905,0.001010,-0.082800,-0.695545,-0.001885,-0.080925,-0.695545,0.291317,-0.486698,-0.703740,1.680439,1.757671,-8.551168
1790541916.5045,0.014546,-0.090106,-0.704691,0.009616,-0.087352,-0.704691,0.518362,-0.820587,-0.706168,-1.194160,0.605091,-8.551168
1790541916.5184,0.029771,-0.098687,-0.712618,0.023724,-0.095287,-0.712618,0.614279,-1.016064,-0.629677,-0.580912,0.716631,-9.249770
1790541916.5323,0.014570,-0.095487,-0.717818,0.017316,-0.095427,-0.717818,-0.202839,0.995770,-0.549544,3.405198,1.906391,-13.790679
1790541916.5461,-0.006872,-0.077648,-0.721461,0.000385,-0.082982,-0.721461,-1.305280,1.566416,-0.196228,0.913879,1.534591,-21.281238
