t,imu_roll,imu_pitch,imu_yaw,lpf_roll,lpf_pitch,lpf_yaw,gyro_x,gyro_y,gyro_z,acc_x,acc_y,acc_z
1790542146.7864,-0.037242,-0.028599,-0.009680,-0.026070,-0.020019,-0.009680,0.001998,0.004103,-0.003250,0.185647,1.348691,-9.521448
1790542146.8018,-0.033730,-0.035951,-0.006894,-0.031432,-0.031171,-0.006894,0.014139,0.001675,0.005249,0.108991,1.311511,-10.258860
1790542146.8156,-0.038924,-0.036399,-0.008579,-0.036677,-0.034830,-0.008579,-0.004073,-0.012895,0.001607,0.300631,1.311511,-9.793126
1790542146.8292,-0.034815,-0.037217,-0.006789,-0.035373,-0.036501,-0.006789,-0.019857,-0.009252,-0.002036,0.032335,1.311511,-10.025993
1790542146.8431,-0.035984,-0.035835,-0.007624,-0.035800,-0.036035,-0.007624,-0.024713,-0.020180,-0.005678,0.223975,1.385871,-9.909560
1790542146.8571,-0.033726,-0.035650,-0.006776,-0.034349,-0.035766,-0.006776,-0.080564,-0.056604,-0.002036,0.070663,1.348691,-10.297672
1790542146.8712,-0.035981,-0.034172,-0.007638,-0.035491,-0.034650,-0.007638,-0.141271,-0.028679,0.002821,0.338959,1.385871,-10.336483
1790542146.8855,-0.040475,-0.031356,-0.009404,-0.038980,-0.032344,-0.009404,-0.184980,-0.021394,0.021033,0.568927,1.460231,-10.336483
1790542146.8997,-0.042017,-0.028261,-0.009398,-0.041106,-0.029486,-0.009398,-0.180123,-0.037178,0.080526,0.377287,1.460231,-9.870749
1790542146.9136,-0.043291,-0.022381,-0.010147,-0.042636,-0.024513,-0.010147,-0.182552,-0.057818,0.194656,0.377287,1.720491,-9.521448
1790542146.9276,-0.045161,-0.018130,-0.007173,-0.044403,-0.020045,-0.007173,-0.163125,-0.020180,0.369492,0.377287,1.646131,-9.405014
1790542146.9416,-0.051318,-0.017760,0.000965,-0.049244,-0.018445,0.000965,-0.038069,0.010174,0.540686,0.798895,1.423051,-9.210958
1790542146.9555,-0.045851,-0.025939,0.021273,-0.046869,-0.023691,0.021273,0.055420,-0.130667,0.606250,-0.312616,0.567911,-9.521448
1790542146.9695,-0.032777,-0.024369,0.036243,-0.037004,-0.024165,0.036243,-0.039283,-0.249653,0.613535,-1.194160,1.497411,-9.133336
1790542146.9834,-0.027988,-0.024745,0.044121,-0.030693,-0.024571,0.044121,-0.024713,-0.102741,0.411987,-0.580912,1.571771,-11.423196
1790542146.9972,-0.027778,-0.032979,0.040625,-0.028652,-0.030456,0.040625,0.077275,-0.203515,0.309999,0.453943,0.382011,-12.393476
1790542147.0111,-0.025346,-0.037696,0.045231,-0.026338,-0.035524,0.045231,0.054206,-0.151307,0.362207,-0.120976,0.790991,-11.229140
1790542147.0250,-0.021569,-0.041394,0.056950,-0.023000,-0.039633,0.056950,0.113699,-0.052961,0.365850,-0.580912,0.902531,-9.637881
1790542147.0385,-0.022225,-0.038520,0.064891,-0.022458,-0.038854,0.064891,-0.136414,0.108519,0.268718,-0.159304,1.237151,-8.163056
1790542147.0521,-0.017000,-0.031289,0.081801,-0.018638,-0.033558,0.081801,-0.295467,-0.130667,0.231080,-0.580912,1.534591,-7.619700
1790542147.0660,-0.013073,-0.025490,0.088368,-0.014742,-0.027911,0.088368,-0.365887,-0.208372,0.166730,-0.350944,1.646131,-10.297672
1790542147.0799,-0.013297,-0.019557,0.084404,-0.013730,-0.022063,0.084404,-0.426594,-0.264222,0.142447,0.760567,1.683311,-11.073895
1790542147.0939,-0.010752,-0.012507,0.083094,-0.011645,-0.015374,0.083094,-0.404740,-0.458485,0.108451,0.760567,2.092291,-10.957462
1790542147.1079,-0.009234,-0.003643,0.080672,-0.009958,-0.007162,0.080672,-0.461804,-0.408705,0.021033,1.067191,2.835891,-12.587532
1790542147.1218,-0.015676,-0.007473,0.075678,-0.013960,-0.007380,0.075678,0.407521,0.507972,-0.298286,-0.005993,2.947431,-13.984735
1790542147.1365,-0.024980,-0.005636,0.063371,-0.021674,-0.006160,0.063371,0.605426,0.877071,-0.650387,-0.504256,5.029511,-10.879840
1790542147.1502,-0.003363,0.002125,0.010797,-0.008856,-0.000360,0.010797,0.407521,-0.153735,-0.825224,-3.723807,3.988471,-6.067252
1790542147.1634,-0.015812,0.006126,0.083998,-0.013725,0.004180,0.083998,0.660063,0.827292,-1.042555,0.415615,3.207691,-5.795574
1790542147.1765,0.000057,0.011744,0.020681,-0.004078,0.009475,0.020681,0.303105,-0.412348,-0.962422,-2.343999,4.843611,-9.366203
1790542147.1900,0.002809,0.016845,0.038908,0.000743,0.014634,0.038908,-0.109703,-0.120953,-1.377658,0.262303,4.025651,-13.480189
1790542147.2040,0.007229,0.010745,-0.001911,0.005283,0.011912,-0.001911,0.128269,-0.012895,-1.570707,-0.235960,0.865351,-11.345574
1790542147.2180,-0.000854,0.013567,0.008481,0.000987,0.013070,0.008481,-0.279683,0.528613,-1.468719,0.798895,1.237151,-7.736133
1790542147.2320,-0.010005,0.012360,-0.003026,-0.006707,0.012573,-0.003026,-0.205620,0.658526,-1.318166,0.875551,0.567911,-9.094525
1790542147.2459,-0.017537,0.013244,-0.039559,-0.014288,0.013043,-0.039559,-0.175267,0.909853,-1.370374,-0.427600,1.460231,-10.297672
1790542147.2599,-0.017587,0.016077,-0.080516,-0.016597,0.015167,-0.080516,-0.279683,0.443623,-1.392228,-0.772552,1.646131,-10.336483
1790542147.2735,-0.023508,0.017494,-0.108247,-0.021435,0.016796,-0.108247,-0.256614,0.674310,-1.216178,0.070663,1.088431,-9.055714
1790542147.2871,-0.028149,0.018124,-0.121785,-0.026134,0.017725,-0.121785,-0.198336,0.392629,-0.873790,0.568927,0.976891,-8.512357
1790542147.3012,-0.029072,0.016377,-0.148980,-0.028191,0.016781,-0.148980,-0.098776,0.238433,-0.689240,-0.044320,0.679451,-8.900469
1790542147.3153,-0.029820,0.018976,-0.156542,-0.029331,0.018318,-0.156542,-0.091491,0.236004,-0.655244,-0.197632,2.278191,-9.599070
1790542147.3292,-0.030277,0.021061,-0.165943,-0.029993,0.020238,-0.165943,-0.182552,0.121875,-0.641888,0.338959,1.980751,-11.423196
1790542147.3430,-0.019034,0.011784,-0.166112,-0.022322,0.014320,-0.166112,0.588428,-0.885863,-0.402702,1.143847,2.203831,-15.847672
1790542147.3570,-0.024465,0.007722,-0.097456,-0.023822,0.009701,-0.097456,0.791190,-0.249653,0.183728,3.251886,4.471811,-8.939280
1790542147.3711,-0.026367,-0.005583,-0.066810,-0.025603,-0.000998,-0.066810,1.173645,-0.337071,0.520046,1.642111,2.241011,-7.270399
1790542147.3854,-0.027158,-0.021099,-0.040545,-0.026692,-0.015069,-0.040545,1.236780,-0.356497,0.630533,1.297159,1.720491,-6.804665
1790542147.3994,-0.040114,-0.021318,-0.024455,-0.036087,-0.019443,-0.024455,-0.040497,0.750801,0.798084,0.722239,1.608951,-13.053266
1790542147.4133,-0.039295,-0.022006,-0.043495,-0.038332,-0.021237,-0.043495,-0.183766,0.073309,0.993561,-1.960720,0.270471,-14.566903
1790542147.4272,-0.039974,-0.029327,-0.033829,-0.039482,-0.026900,-0.033829,0.137982,-0.119739,1.202393,0.147319,-0.733389,-8.861658
1790542147.4411,-0.031018,-0.029196,-0.072536,-0.033557,-0.028507,-0.072536,-0.300324,-0.263008,0.941353,-2.957247,-0.287229,-9.443825
1790542147.4552,-0.035781,-0.032940,-0.067939,-0.035114,-0.031610,-0.067939,-0.149770,0.180154,0.879432,0.377287,-1.216729,-9.754315
1790542147.4693,-0.037424,-0.039493,-0.062202,-0.036731,-0.037128,-0.062202,0.161050,0.075738,0.858791,-0.312616,-0.584669,-9.987182
1790542147.4846,-0.040954,-0.048006,-0.051549,-0.039687,-0.044743,-0.051549,0.379596,0.166798,0.949852,-0.197632,0.084571,-10.452916
1790542147.4987,-0.041686,-0.051677,-0.040240,-0.041087,-0.049597,-0.040240,0.157408,0.155871,0.793228,-1.194160,0.642271,-10.491728
1790542147.5128,-0.040979,-0.050979,-0.025777,-0.041011,-0.050565,-0.025777,-0.046568,0.149800,0.641460,-1.615768,1.237151,-9.443825
1790542147.5272,-0.041089,-0.049403,-0.016645,-0.041065,-0.049751,-0.016645,-0.092705,0.046598,0.454482,-0.427600,1.311511,-9.366203
1790542147.5417,-0.040361,-0.048696,-0.011504,-0.040572,-0.049012,-0.011504,-0.044140,-0.110026,0.308785,0.338959,1.199971,-9.172147
1790542147.5557,-0.034524,-0.042041,0.007899,-0.036338,-0.044132,0.007899,-0.229903,-0.477911,0.265076,0.338959,3.244871,-10.297672
1790542147.5697,-0.030306,-0.039879,0.012757,-0.032116,-0.041155,0.012757,-0.178909,-0.420847,0.337924,0.798895,1.460231,-12.471098
1790542147.5838,-0.020712,-0.030913,0.022497,-0.024133,-0.033985,0.022497,-0.538295,-0.798445,0.195870,0.798895,2.538451,-11.850119
1790542147.5978,-0.018995,-0.023449,0.017548,-0.020536,-0.026610,0.017548,-0.651211,-0.602968,0.012534,3.635166,0.530731,-9.637881
1790542147.6117,-0.016402,-0.012979,0.014939,-0.017642,-0.017068,0.014939,-0.685207,-0.581113,-0.254577,2.408670,1.497411,-6.959909
1790542147.6259,-0.026217,-0.018180,0.007834,-0.023645,-0.017847,0.007834,0.380810,0.458192,-0.518046,3.060246,1.906391,-11.423196
1790542147.6402,-0.029503,-0.020831,-0.023825,-0.027745,-0.019935,-0.023825,0.482798,0.501901,-1.087479,-0.695896,3.616671,-9.094525
1790542147.6542,-0.012648,-0.029337,-0.052547,-0.017177,-0.026516,-0.052547,0.619996,-0.700099,-1.455364,-3.072231,1.832031,-12.238231
1790542147.6683,-0.015331,-0.035232,-0.056885,-0.015885,-0.032617,-0.056885,0.382024,0.070881,-1.285384,2.217030,1.051251,-9.133336
1790542147.6822,-0.013440,-0.042130,-0.063669,-0.014173,-0.039276,-0.063669,0.406307,-0.094242,-0.866505,0.453943,0.530731,-8.822846
1790542147.6962,0.004881,-0.050705,-0.077828,-0.000835,-0.047276,-0.077828,0.463372,-0.973281,-1.006131,-2.075704,0.047391,-10.103616
1790542147.7102,0.010018,-0.058292,-0.092905,0.006762,-0.054988,-0.092905,0.604212,-0.379566,-1.165184,0.875551,1.794851,-9.172147
1790542147.7239,0.015136,-0.057762,-0.116054,0.012624,-0.056930,-0.116054,0.163479,-0.260580,-1.235604,-0.120976,2.649991,-8.201867
1790542147.7376,0.018384,-0.058573,-0.126968,0.016656,-0.058080,-0.126968,0.060277,-0.236297,-1.144543,0.607255,1.348691,-9.016902
1790542147.7518,0.019230,-0.061963,-0.138302,0.018458,-0.060798,-0.138302,0.192618,-0.008038,-1.031628,0.147319,1.014071,-9.754315
1790542147.7657,0.015743,-0.064335,-0.150917,0.016557,-0.063274,-0.150917,0.287321,0.249360,-0.677099,0.338959,2.501271,-10.646972
1790542147.7798,-0.007357,-0.057269,-0.150689,-0.000183,-0.059071,-0.150689,-0.540724,1.531494,-0.678313,2.063719,1.311511,-12.742777
1790542147.7938,-0.009942,-0.047440,-0.171718,-0.007015,-0.050929,-0.171718,-0.867328,0.562609,-0.701381,-3.378855,-0.324409,-12.199420
1790542147.8077,-0.014653,-0.035971,-0.182979,-0.012361,-0.040459,-0.182979,-1.066447,0.650027,-0.607892,-1.845736,-0.733389,-8.667602
1790542147.8216,-0.018516,-0.025586,-0.194790,-0.016669,-0.030048,-0.194790,-0.960817,0.681594,-0.412416,-1.884064,-0.361589,-5.756762
1790542147.8358,-0.029675,-0.015666,-0.201616,-0.025773,-0.019980,-0.201616,-0.703419,0.934136,-0.303143,-0.542584,1.088431,-7.192776
1790542147.8498,-0.023989,-0.015519,-0.202439,-0.024525,-0.016858,-0.202439,0.005640,-0.301861,-0.089454,-1.155832,2.352551,-13.713056
1790542147.8637,-0.018800,-0.023735,-0.200079,-0.020518,-0.021672,-0.200079,0.374739,-0.366210,0.500619,-0.810880,-0.547489,-9.676693
1790542147.8778,-0.027180,-0.030790,-0.186731,-0.025181,-0.028055,-0.186731,0.486441,0.283356,1.077337,1.757095,1.423051,-10.802217
1790542147.8925,-0.024124,-0.045105,-0.172485,-0.024441,-0.039990,-0.172485,0.940530,-0.509479,1.015416,1.603783,0.865351,-9.443825
1790542147.9066,-0.024685,-0.055185,-0.163224,-0.024611,-0.050627,-0.163224,0.843398,-0.120953,0.623248,0.837223,2.315371,-9.055714
1790542147.9207,-0.048832,-0.062276,-0.153086,-0.041566,-0.058781,-0.153086,0.516794,1.382154,0.711880,3.060246,1.311511,-10.025993
1790542147.9348,-0.059439,-0.073293,-0.138832,-0.054077,-0.068940,-0.138832,0.666134,0.742302,0.879432,-0.465928,0.121751,-13.286133
1790542147.9488,-0.075413,-0.080150,-0.130692,-0.069012,-0.076787,-0.130692,0.653992,1.005770,0.968064,0.722239,2.092291,-6.765853
1790542147.9624,-0.082675,-0.084419,-0.123135,-0.078576,-0.082130,-0.123135,0.440303,0.650027,0.943781,-1.194160,2.389731,-8.822846
1790542147.9760,-0.082841,-0.088436,-0.114445,-0.081561,-0.086544,-0.114445,0.431804,0.114590,0.878218,-1.117504,2.724351,-9.676693
1790542147.9900,-0.077248,-0.091464,-0.101005,-0.078542,-0.089988,-0.101005,0.193832,-0.516764,0.709452,1.718767,1.497411,-14.605714
1790542148.0038,-0.070726,-0.090376,-0.088289,-0.073071,-0.090259,-0.088289,-0.167982,-0.599325,0.588038,1.680439,0.307651,-12.859210
1790542148.0176,-0.067773,-0.088616,-0.061036,-0.069363,-0.089109,-0.061036,-0.346461,-0.562901,0.687597,3.903462,-1.253909,-10.685784
1790542148.0316,-0.061792,-0.085084,-0.042750,-0.064063,-0.086291,-0.042750,-0.482445,-0.781447,0.499405,3.290214,-1.216729,-8.357112
1790542148.0455,-0.050893,-0.075101,-0.031335,-0.054844,-0.078458,-0.031335,-0.840617,-0.905289,0.314856,0.875551,-0.138509,-6.765853
1790542148.0596,-0.051454,-0.062675,-0.038957,-0.052471,-0.067410,-0.038957,-1.030023,-0.397778,0.220152,4.286742,-0.547489,-8.046623
1790542148.0736,-0.041706,-0.046366,-0.039785,-0.044936,-0.052679,-0.039785,-1.207288,-0.894362,-0.032389,2.178703,0.753811,-9.210958
1790542148.0875,-0.033734,-0.028265,-0.047733,-0.037095,-0.035589,-0.047733,-1.337201,-0.905289,-0.139234,3.175230,0.679451,-7.619700
1790542148.1015,-0.031591,-0.017263,-0.040587,-0.033242,-0.022761,-0.040587,-0.880683,-0.280006,-0.253363,2.715294,0.716631,-13.907112
1790542148.1156,-0.042151,-0.027432,-0.043774,-0.039478,-0.026031,-0.043774,0.720770,1.124756,-0.724450,-3.340527,1.608951,-12.703965
1790542148.1297,-0.027467,-0.040276,-0.069790,-0.031071,-0.036002,-0.069790,0.974526,-0.398992,-1.221034,-7.249981,2.129471,-11.462007
1790542148.1438,-0.026162,-0.044941,-0.082059,-0.027635,-0.042260,-0.082059,0.390523,0.198366,-0.747519,-1.577440,1.348691,-7.153965
1790542148.1578,-0.026297,-0.057941,-0.085382,-0.026698,-0.053237,-0.085382,0.899249,0.268786,-0.618820,-2.305671,0.865351,-11.345574
1790542148.1717,-0.005684,-0.075511,-0.094489,-0.011988,-0.068829,-0.094489,1.284132,-1.145689,-0.870147,-3.532167,1.348691,-11.229140
1790542148.1854,0.005983,-0.088848,-0.119555,0.000591,-0.082842,-0.119555,1.202784,-0.742594,-1.001274,-0.389272,2.389731,-6.494175
1790542148.1989,0.015763,-0.094906,-0.140790,0.011211,-0.091287,-0.140790,0.645493,-0.753521,-1.004917,0.607255,2.315371,-6.804665
1790542148.2128,0.029975,-0.103383,-0.152691,0.024346,-0.099754,-0.152691,0.606641,-1.033988,-0.968493,0.300631,0.790991,-7.270399
1790542148.2268,0.020907,-0.119471,-0.149217,0.021939,-0.113556,-0.149217,0.916247,0.582035,-0.749947,1.642111,-3.150088,-17.904665
1790542148.2408,0.003998,-0.113911,-0.164987,0.009380,-0.113804,-0.164987,-0.390170,1.340874,-0.816725,-2.573967,2.092291,-21.281238
1790542148.2546,-0.006140,-0.094597,-0.175821,-0.001484,-0.100359,-0.175821,-1.481684,0.958419,-0.769373,-3.800463,-0.212869,-17.283686
1790542148.2685,0.000013,-0.077005,-0.201087,-0.000436,-0.084011,-0.201087,-1.448902,0.238433,-0.836151,-6.713389,-1.291089,-6.183686
1790542148.2824,-0.006629,-0.058058,-0.217152,-0.004771,-0.065844,-0.217152,-1.750009,0.652455,-0.734163,-0.580912,-1.588528,-4.475993
1790542148.2967,-0.018242,-0.036589,-0.228816,-0.014201,-0.045366,-0.228816,-1.638308,0.959633,-0.655244,-0.389272,-0.138509,-5.368651
1790542148.3107,-0.018283,-0.019849,-0.194975,-0.017058,-0.027504,-0.194975,-1.192718,0.582035,-0.650387,-3.877119,0.679451,-5.640329
1790542148.3247,-0.009837,-0.022461,-0.207554,-0.012003,-0.023974,-0.207554,0.083345,-0.267865,-0.630961,-4.490366,0.307651,-13.868301
1790542148.3385,-0.007158,-0.028059,-0.210246,-0.008612,-0.026834,-0.210246,0.403879,-0.293362,0.180086,1.220503,2.464091,-17.050819
1790542148.3524,-0.008214,-0.031215,-0.199302,-0.008333,-0.029900,-0.199302,0.363812,-0.130667,0.620819,1.450471,3.133331,-10.336483
1790542148.3663,-0.003182,-0.039824,-0.190920,-0.004727,-0.036847,-0.190920,0.698915,-0.621180,0.834508,1.488799,2.017931,-9.133336
1790542148.3804,-0.011384,-0.050555,-0.201521,-0.009387,-0.046442,-0.201521,0.769336,0.268786,0.556470,2.561982,1.051251,-8.318301
1790542148.3949,-0.020284,-0.058508,-0.193754,-0.017015,-0.054888,-0.193754,0.599356,0.495831,0.592894,0.683911,1.757671,-9.909560
1790542148.4089,-0.033857,-0.066685,-0.186261,-0.028804,-0.063146,-0.186261,0.635780,0.854003,0.618391,0.875551,1.794851,-10.336483
1790542148.4226,-0.043072,-0.068901,-0.173181,-0.038792,-0.067174,-0.173181,0.238756,0.497045,0.948638,1.373815,2.389731,-10.841028
1790542148.4363,-0.048930,-0.066328,-0.154174,-0.045889,-0.066582,-0.154174,-0.051424,0.387772,0.952280,-0.350944,2.612811,-8.395923
1790542148.4504,-0.051813,-0.066400,-0.141616,-0.050035,-0.066455,-0.141616,0.004426,0.049026,0.883074,0.913879,1.088431,-7.891378
1790542148.4642,-0.056111,-0.069994,-0.130701,-0.054288,-0.068933,-0.130701,0.253325,0.149800,0.812654,1.182175,1.088431,-8.589979
1790542148.4782,-0.051251,-0.065227,-0.120098,-0.052162,-0.066339,-0.120098,-0.016214,-0.398992,0.552827,0.223975,5.475671,-8.745224
1790542148.4921,-0.034791,-0.062359,-0.112012,-0.040002,-0.063553,-0.112012,-0.260257,-1.203968,0.702167,-0.849208,0.865351,-13.169700
1790542148.5062,-0.022224,-0.053287,-0.100812,-0.027558,-0.056367,-0.100812,-0.652425,-1.109265,0.374349,2.830278,1.460231,-12.781588
1790542148.5202,-0.018409,-0.042752,-0.095574,-0.021154,-0.046837,-0.095574,-0.846687,-0.684315,0.249292,4.976645,-0.138509,-8.939280
1790542148.5340,-0.010805,-0.030119,-0.097155,-0.013910,-0.035134,-0.097155,-0.930463,-0.908932,-0.129520,2.561982,0.567911,-4.864105
1790542148.5479,0.002586,-0.018980,-0.107362,-0.002363,-0.023826,-0.107362,-0.665780,-1.083768,-0.208440,1.412143,2.873071,-8.434735
1790542148.5619,-0.013196,-0.027512,-0.109139,-0.009946,-0.026406,-0.109139,0.587214,1.074977,-0.314070,1.833751,1.720491,-13.441378
1790542148.5757,-0.016817,-0.035916,-0.147038,-0.014756,-0.033063,-0.147038,0.764479,0.594176,-1.001274,-2.420655,3.244871,-9.288581
1790542148.5895,-0.008591,-0.041975,-0.171985,-0.010440,-0.039302,-0.171985,0.411164,-0.108812,-1.403155,-4.107087,0.902531,-9.288581
1790542148.6035,-0.004941,-0.051567,-0.185327,-0.006591,-0.047887,-0.185327,0.633352,-0.140380,-1.206464,0.147319,0.493551,-7.037532
1790542148.6173,0.003466,-0.064695,-0.204366,0.000449,-0.059653,-0.204366,0.959956,-0.386851,-1.066838,-0.849208,0.790991,-5.329839
1790542148.6313,0.018391,-0.080117,-0.225283,0.013009,-0.073978,-0.225283,1.112938,-0.843368,-1.230747,-1.692424,1.348691,-9.094525
1790542148.6453,0.035693,-0.089191,-0.234598,0.028888,-0.084627,-0.234598,0.828829,-1.151760,-1.354590,-0.120976,2.724351,-6.261308
1790542148.6590,0.042427,-0.096952,-0.238143,0.038366,-0.093254,-0.238143,0.621210,-0.542261,-1.421368,1.258831,2.315371,-8.822846
1790542148.6730,0.036944,-0.106412,-0.247678,0.037370,-0.102465,-0.247678,0.581144,0.403556,-1.199180,0.492271,0.530731,-13.829490
1790542148.6870,0.023795,-0.106128,-0.262370,0.027868,-0.105029,-0.262370,-0.072065,0.972989,-1.298739,0.453943,1.534591,-17.400119
1790542148.7011,0.014620,-0.100402,-0.289736,0.018594,-0.101790,-0.289736,-0.546794,0.851574,-1.364303,-2.650623,-0.770569,-14.916203
1790542148.7152,0.009022,-0.092844,-0.319410,0.011894,-0.095528,-0.319410,-0.807835,0.697378,-1.295097,-2.458983,-2.034688,-7.697322
1790542148.7291,0.010748,-0.080203,-0.346230,0.011092,-0.084801,-0.346230,-1.095587,0.317352,-1.162755,-3.915447,-1.030829,-6.959909
1790542148.7430,0.005939,-0.062626,-0.365830,0.007485,-0.069279,-0.365830,-1.403979,0.537112,-0.962422,-1.155832,-0.398769,-7.503266
1790542148.7572,0.005902,-0.042396,-0.379517,0.006377,-0.050460,-0.379517,-1.617668,0.376845,-0.986705,-2.650623,-0.770569,-6.494175
1790542148.7710,-0.002190,-0.024180,-0.400785,0.000380,-0.032064,-0.400785,-1.576387,0.921995,-1.043769,-2.612295,-1.811608,-9.210958
1790542148.7849,-0.003081,-0.017411,-0.416491,-0.002043,-0.021807,-0.416491,-0.543152,0.234790,-0.923569,-1.232488,2.166651,-21.281238
1790542148.7988,-0.010216,-0.030215,-0.401038,-0.007764,-0.027693,-0.401038,0.935673,0.178940,-0.114951,9.001083,2.687171,-16.235784
1790542148.8126,-0.019212,-0.035808,-0.389027,-0.015778,-0.033373,-0.389027,0.542291,0.449693,0.363421,2.868606,4.174371,-12.393476
1790542148.8264,-0.014452,-0.036667,-0.356438,-0.014850,-0.035679,-0.356438,0.471871,-0.398992,0.521260,-0.274288,5.326951,-6.028441
1790542148.8404,-0.013116,-0.044143,-0.347503,-0.013636,-0.041604,-0.347503,0.554433,-0.280006,0.303928,1.910407,1.460231,-9.676693
1790542148.8542,-0.034004,-0.053658,-0.344046,-0.027893,-0.050041,-0.344046,0.641851,1.121114,0.588038,5.053301,0.382011,-9.405014
1790542148.8679,-0.049155,-0.068724,-0.335187,-0.042777,-0.063119,-0.335187,1.087441,0.964490,0.612320,1.335487,1.051251,-9.831937
1790542148.8818,-0.061053,-0.077474,-0.329245,-0.055570,-0.073167,-0.329245,0.747481,0.753229,0.896430,0.722239,2.761531,-9.094525
1790542148.8960,-0.069933,-0.077916,-0.328822,-0.065624,-0.076491,-0.328822,0.153766,0.624530,0.971706,-0.619240,2.835891,-8.240679
1790542148.9102,-0.076222,-0.080299,-0.320446,-0.073043,-0.079156,-0.320446,0.134339,0.424196,1.022700,-0.350944,0.939711,-7.969000
1790542148.9243,-0.068115,-0.084698,-0.307022,-0.069593,-0.083035,-0.307022,0.250897,-0.644249,1.005702,0.223975,0.976891,-12.432287
1790542148.9382,-0.055186,-0.079069,-0.290332,-0.059508,-0.080259,-0.290332,-0.379243,-1.059485,0.840579,1.833751,2.873071,-15.692427
1790542148.9522,-0.050233,-0.069886,-0.255249,-0.053015,-0.072998,-0.255249,-0.884326,-0.679459,0.870933,4.056774,-2.071868,-10.414105
1790542148.9661,-0.045129,-0.056857,-0.236632,-0.047495,-0.061699,-0.236632,-1.110156,-0.749879,0.750733,3.711822,-0.956469,-7.386832
1790542148.9799,-0.031838,-0.041766,-0.222874,-0.036535,-0.047746,-0.222874,-1.193932,-1.247677,0.518831,1.987063,-0.026969,-5.989630
1790542148.9940,-0.015521,-0.027648,-0.214332,-0.021825,-0.033677,-0.214332,-0.993599,-1.330239,0.541900,0.722239,1.051251,-6.300119
1790542149.0080,0.001549,-0.014533,-0.227037,-0.005463,-0.020276,-0.227037,-0.783552,-1.520859,0.528545,2.063719,2.352551,-6.455364
1790542149.0219,-0.019729,-0.017205,-0.237760,-0.015449,-0.018126,-0.237760,0.326174,1.329946,0.373134,3.290214,4.434631,-12.703965
1790542149.0357,-0.028340,-0.028794,-0.261647,-0.024473,-0.025594,-0.261647,0.925960,0.788439,-0.403917,-2.267343,4.434631,-17.206063
1790542149.0496,-0.017497,-0.038500,-0.291352,-0.019590,-0.034628,-0.291352,0.775406,-0.471841,-1.092335,-3.110559,2.873071,-12.587532
1790542149.0635,-0.027408,-0.047551,-0.272771,-0.025062,-0.043674,-0.272771,0.725627,0.527398,-0.621248,2.715294,1.757671,-6.377742
1790542149.0773,-0.020330,-0.059938,-0.293946,-0.021750,-0.055059,-0.293946,0.925960,-0.288505,-0.422129,-1.807408,1.014071,-7.115154
1790542149.0912,-0.001000,-0.078682,-0.306085,-0.007225,-0.071595,-0.306085,1.308415,-1.197897,-0.742662,-2.382327,0.419191,-11.811308
1790542149.1048,0.017477,-0.096355,-0.323494,0.010067,-0.088927,-0.323494,1.364265,-1.291386,-0.832509,-0.350944,1.757671,-9.172147
1790542149.1185,0.028551,-0.103423,-0.321692,0.023006,-0.099074,-0.321692,0.615140,-0.927144,-1.010988,1.795423,2.315371,-7.774944
1790542149.1325,0.032262,-0.108621,-0.322418,0.029485,-0.105757,-0.322418,0.452445,-0.395350,-0.845864,1.872079,2.203831,-8.512357
1790542149.1469,0.013234,-0.111295,-0.293243,0.018109,-0.109634,-0.293243,-0.016214,1.193962,-1.049840,3.443526,-1.885968,-14.256413
1790542149.1610,-0.000484,-0.095270,-0.334455,0.005094,-0.099579,-0.334455,-1.232785,1.283809,-1.109333,-5.256926,-0.882109,-13.674245
1790542149.1749,0.001128,-0.084096,-0.345148,0.002318,-0.088741,-0.345148,-1.054306,0.171655,-1.031628,-3.685479,-2.964188,-10.646972
1790542149.1889,-0.005726,-0.072148,-0.351890,-0.003313,-0.077126,-0.351890,-1.169649,0.760514,-0.955137,-2.114032,-2.703928,-6.882287
1790542149.2027,-0.013248,-0.049172,-0.383525,-0.010267,-0.057558,-0.383525,-1.723298,0.932922,-0.777872,-2.957247,0.121751,-6.028441
1790542149.2167,-0.019583,-0.027040,-0.402250,-0.016788,-0.036196,-0.402250,-1.697801,0.861288,-0.867719,-2.305671,-0.212869,-4.941727
1790542149.2306,-0.034026,-0.010429,-0.416299,-0.028855,-0.018159,-0.416299,-1.331130,1.338445,-0.813082,-1.577440,-0.398769,-6.998721
1790542149.2444,-0.024748,-0.016544,-0.426345,-0.025980,-0.017029,-0.426345,0.260610,-0.420847,-0.797299,-4.030431,-2.852648,-21.281238
1790542149.2584,-0.018406,-0.028080,-0.427212,-0.020678,-0.024765,-0.427212,0.805760,-0.584756,0.035603,3.366870,2.092291,-18.836133
1790542149.2723,-0.021299,-0.033262,-0.421701,-0.021112,-0.030712,-0.421701,0.481584,-0.063889,0.522474,3.366870,3.282051,-10.297672
1790542149.2863,-0.016826,-0.045721,-0.412205,-0.018112,-0.041218,-0.412205,0.935673,-0.347998,0.635389,-0.657568,1.348691,-7.115154
1790542149.3002,-0.021910,-0.057274,-0.406390,-0.020771,-0.052457,-0.406390,0.915033,0.101235,0.354922,2.638638,1.832031,-7.192776
1790542149.3142,-0.037912,-0.069996,-0.400682,-0.032770,-0.064734,-0.400682,0.941744,0.928065,0.427771,3.903462,2.055111,-13.092077
1790542149.3281,-0.052394,-0.084098,-0.397686,-0.046506,-0.078289,-0.397686,1.093512,0.943849,0.649959,1.067191,2.538451,-10.996273
1790542149.3417,-0.074884,-0.088025,-0.396420,-0.066371,-0.085104,-0.396420,0.426948,1.561847,0.810226,0.952207,3.021791,-8.861658
1790542149.3552,-0.081983,-0.091641,-0.387174,-0.077299,-0.089680,-0.387174,0.210830,0.565037,0.932854,-1.040848,0.716631,-9.637881
1790542149.3691,-0.087384,-0.094797,-0.378470,-0.084359,-0.093262,-0.378470,0.210830,0.358633,0.878218,0.108991,1.051251,-7.813756
1790542149.3832,-0.083341,-0.090212,-0.375805,-0.083646,-0.091127,-0.375805,-0.212905,-0.248438,0.618391,-0.772552,3.505131,-10.646972
1790542149.3977,-0.071771,-0.087842,-0.352766,-0.075334,-0.088827,-0.352766,-0.231117,-0.978138,0.773801,2.868606,0.679451,-12.238231
1790542149.4117,-0.064250,-0.079244,-0.316262,-0.067575,-0.082119,-0.316262,-0.773839,-0.814229,0.806583,3.980118,-0.956469,-10.841028
1790542149.4258,-0.054351,-0.073053,-0.283551,-0.058318,-0.075773,-0.283551,-0.673065,-0.956283,0.847864,3.136902,-2.183408,-10.220049
1790542149.4399,-0.045244,-0.058774,-0.281071,-0.049166,-0.063873,-0.281071,-1.040950,-0.987851,0.669385,2.523654,0.530731,-5.291028
1790542149.4539,-0.034228,-0.039594,-0.270537,-0.038710,-0.046878,-0.270537,-1.431904,-1.092267,0.456910,2.600310,0.307651,-6.261308
1790542149.4677,-0.023345,-0.020556,-0.260443,-0.027954,-0.028452,-0.260443,-1.447688,-1.064342,0.289359,3.098574,0.382011,-8.395923
1790542149.4816,-0.016233,-0.004395,-0.262332,-0.019749,-0.011612,-0.262332,-1.156294,-0.689172,0.082954,3.213558,2.166651,-13.014455
1790542149.4956,-0.037439,-0.017238,-0.256221,-0.032132,-0.015550,-0.256221,0.836113,1.490213,-0.287359,3.520182,0.753811,-21.281238
1790542149.5096,-0.019155,-0.021697,-0.295565,-0.023048,-0.019853,-0.295565,0.426948,-0.940499,-1.255030,-3.685479,3.393591,-11.927742
1790542149.5236,-0.026317,-0.024510,-0.355577,-0.025336,-0.023113,-0.355577,0.476727,0.253002,-0.586038,3.750150,3.096151,-4.747672
1790542149.5374,-0.026199,-0.036994,-0.346616,-0.025940,-0.032830,-0.346616,0.822758,0.166798,-0.460981,-0.964192,0.158931,-5.834385
1790542149.5518,-0.007566,-0.055408,-0.347536,-0.013078,-0.048635,-0.347536,1.253778,-0.985423,-0.732949,-3.532167,0.679451,-8.745224
1790542149.5666,0.003890,-0.071992,-0.371390,-0.001200,-0.064985,-0.371390,1.188215,-0.709812,-0.906571,0.185647,1.794851,-8.240679
1790542149.5811,0.018947,-0.080851,-0.397172,0.012903,-0.076091,-0.397172,0.683132,-0.981780,-0.961208,0.147319,1.832031,-7.580888
1790542149.5955,0.029378,-0.088795,-0.398121,0.024435,-0.084984,-0.398121,0.536220,-0.799659,-0.878646,1.297159,0.902531,-7.231588
1790542149.6098,0.032301,-0.099133,-0.426558,0.029941,-0.094888,-0.426558,0.856754,-0.210800,-0.637032,0.377287,2.501271,-7.774944
1790542149.6241,0.003418,-0.088437,-0.412255,0.011375,-0.090373,-0.412255,-0.875827,1.992868,-0.678313,1.757095,-0.584669,-17.050819
1790542149.6382,-0.006582,-0.070159,-0.411976,-0.001195,-0.076223,-0.411976,-1.410049,1.008199,-0.808226,-5.371910,-0.696209,-13.868301
1790542149.6526,-0.005896,-0.055445,-0.398082,-0.004485,-0.061678,-0.398082,-1.214573,0.265144,-0.775444,-4.490366,-2.034688,-10.724595
1790542149.6667,-0.016130,-0.037339,-0.406316,-0.012637,-0.044640,-0.406316,-1.447688,1.104116,-0.658886,-2.382327,-0.621849,-4.786483
1790542149.6806,-0.025279,-0.017836,-0.433379,-0.021486,-0.025877,-0.433379,-1.317775,0.947492,-0.643103,-1.615768,1.497411,-5.291028
1790542149.6946,-0.046670,-0.006002,-0.450145,-0.039115,-0.011965,-0.450145,-0.851544,1.879953,-0.561755,-2.075704,0.679451,-5.485084
1790542149.7086,-0.035089,-0.015381,-0.454753,-0.036297,-0.014356,-0.454753,0.571431,-0.584756,-0.714737,-3.608823,-0.435949,-17.788231
1790542149.7225,-0.024733,-0.024627,-0.450643,-0.028202,-0.021545,-0.450643,0.719556,-0.879792,0.215296,2.217030,3.393591,-13.790679
1790542149.7364,-0.026779,-0.026381,-0.443168,-0.027206,-0.024931,-0.443168,0.195046,-0.031107,0.652387,1.642111,2.984611,-11.423196
1790542149.7504,-0.018553,-0.037789,-0.426817,-0.021149,-0.033931,-0.426817,0.771764,-0.732881,0.858791,0.377287,0.865351,-11.151518
1790542149.7645,-0.019820,-0.052227,-0.416258,-0.020218,-0.046738,-0.416258,1.061944,-0.119739,0.643888,1.910407,1.571771,-9.172147
1790542149.7784,-0.034141,-0.063823,-0.404407,-0.029964,-0.058698,-0.404407,0.882251,0.733803,0.829652,3.558510,1.980751,-9.870749
1790542149.7920,-0.046169,-0.072982,-0.399066,-0.041308,-0.068696,-0.399066,0.742625,0.760514,1.054268,0.568927,2.017931,-8.784035
1790542149.8055,-0.059089,-0.078559,-0.396182,-0.053754,-0.075600,-0.396182,0.477942,0.906211,1.178111,-0.427600,2.166651,-8.822846
1790542149.8192,-0.066180,-0.077412,-0.393858,-0.062452,-0.076868,-0.393858,0.017782,0.463049,1.243674,-0.312616,3.058971,-9.172147
1790542149.8330,-0.065588,-0.075133,-0.389115,-0.064647,-0.075653,-0.389115,-0.130344,-0.026250,1.145329,-1.347472,2.129471,-9.172147
1790542149.8472,-0.053327,-0.073664,-0.367155,-0.056723,-0.074261,-0.367155,-0.246901,-0.895576,0.993561,-1.117504,-0.844929,-14.062357
1790542149.8613,-0.046479,-0.067389,-0.345837,-0.049552,-0.069451,-0.345837,-0.548008,-0.604182,0.887931,0.837223,-0.138509,-12.859210
1790542149.8753,-0.045925,-0.063436,-0.299243,-0.047013,-0.065240,-0.299243,-0.518869,-0.281220,0.946209,2.332014,-2.071868,-9.327392
1790542149.8896,-0.034497,-0.054708,-0.274873,-0.038252,-0.057868,-0.274873,-0.724059,-1.060699,0.818725,1.488799,-0.175689,-5.252217
1790542149.9037,-0.023567,-0.040801,-0.269819,-0.027972,-0.045921,-0.269819,-0.915894,-0.995136,0.835723,1.450471,1.832031,-7.386832
1790542149.9181,-0.016185,-0.028895,-0.252595,-0.019722,-0.034003,-0.252595,-0.894039,-0.719525,0.486050,2.485326,0.493551,-11.539630
1790542149.9322,-0.018766,-0.026473,-0.246031,-0.019053,-0.028732,-0.246031,-0.238402,0.076952,-0.077312,3.136902,0.716631,-16.546273
1790542149.9463,-0.021583,-0.029281,-0.275064,-0.020824,-0.029116,-0.275064,0.312818,0.328279,-0.828866,-0.082648,3.505131,-11.229140
1790542149.9603,-0.020024,-0.037311,-0.296130,-0.020264,-0.034852,-0.296130,0.575073,0.192295,-1.248959,-2.152360,1.348691,-10.142427
1790542149.9742,-0.020751,-0.038343,-0.363552,-0.020605,-0.037296,-0.363552,0.528936,0.081808,-0.758446,0.798895,4.323091,-3.699769
1790542149.9881,-0.021874,-0.049437,-0.369142,-0.021493,-0.045795,-0.369142,0.765693,0.188653,-0.510761,-0.810880,0.902531,-12.548721
1790542150.0021,-0.003649,-0.065022,-0.385143,-0.009003,-0.059254,-0.385143,1.123865,-1.060699,-0.946638,-3.263871,1.534591,-12.859210
1790542150.0159,0.004142,-0.074343,-0.399671,0.000198,-0.069816,-0.399671,0.771764,-0.524049,-1.110547,0.913879,2.947431,-9.948371
1790542150.0296,0.015000,-0.078448,-0.424326,0.010559,-0.075859,-0.424326,0.357742,-0.655176,-1.259887,-0.619240,2.055111,-8.861658
1790542150.0432,0.022229,-0.083817,-0.421553,0.018728,-0.081429,-0.421553,0.317675,-0.545903,-1.188252,0.990535,0.382011,-7.658511
1790542150.0570,0.016281,-0.087546,-0.440724,0.017015,-0.085711,-0.440724,0.365026,0.478833,-0.905357,0.108991,1.980751,-6.727042
1790542150.0709,0.002671,-0.090098,-0.457633,0.006974,-0.088782,-0.457633,0.117341,1.200033,-0.841008,-4.145415,0.196111,-16.119350
1790542150.0848,-0.001578,-0.077726,-0.466230,0.000988,-0.081043,-0.466230,-0.980243,0.603889,-0.809440,-5.793518,-0.473129,-14.295224
1790542150.0986,-0.001624,-0.066798,-0.454839,-0.000840,-0.071072,-0.454839,-1.006954,0.263930,-0.685598,-3.110559,-2.109048,-8.706413
1790542150.1128,-0.009044,-0.048446,-0.465228,-0.006583,-0.055234,-0.465228,-1.378482,0.690093,-0.649173,-1.002520,-0.064149,-6.261308
1790542150.1268,-0.018091,-0.027399,-0.482993,-0.014639,-0.035749,-0.482993,-1.497468,0.884356,-0.777872,-1.117504,0.939711,-5.485084
1790542150.1407,-0.034103,-0.015522,-0.480533,-0.028264,-0.021590,-0.480533,-1.067661,1.288666,-0.598179,-0.389272,-1.588528,-7.619700
1790542150.1547,-0.038320,-0.008210,-0.492069,-0.035303,-0.012224,-0.492069,-0.535867,0.498259,-0.610321,-1.845736,1.794851,-14.178791
1790542150.1688,-0.029411,-0.023093,-0.490004,-0.031178,-0.019832,-0.490004,0.932031,-0.593255,-0.072456,-0.887536,-0.956469,-21.281238
1790542150.1831,-0.026583,-0.023404,-0.481541,-0.027962,-0.022332,-0.481541,0.111271,-0.215657,0.552827,-1.040848,3.096151,-9.909560
1790542150.1972,-0.027247,-0.028135,-0.467541,-0.027461,-0.026394,-0.467541,0.297034,-0.137951,0.745876,1.105519,0.753811,-8.473546
1790542150.2112,-0.021557,-0.038884,-0.462917,-0.023328,-0.035137,-0.462917,0.847041,-0.373495,0.376777,-1.232488,2.203831,-8.395923
1790542150.2251,-0.036511,-0.052319,-0.447858,-0.032556,-0.047165,-0.447858,0.955099,0.850360,0.567397,3.213558,1.385871,-11.811308
1790542150.2392,-0.048617,-0.065772,-0.439935,-0.043799,-0.060190,-0.439935,0.981811,0.801795,0.724021,0.032335,1.869211,-10.957462
1790542150.2528,-0.069231,-0.070490,-0.427933,-0.061601,-0.067400,-0.427933,0.457301,1.390653,0.887931,0.990535,2.575631,-7.813756
1790542150.2664,-0.077395,-0.071605,-0.421790,-0.072657,-0.070343,-0.421790,0.128269,0.611174,0.942567,-1.155832,2.761531,-10.918651
1790542150.2803,-0.082698,-0.075163,-0.413406,-0.079686,-0.073717,-0.413406,0.225400,0.357419,0.902500,-0.274288,1.051251,-7.969000
1790542150.2943,-0.083790,-0.077111,-0.410004,-0.082559,-0.076092,-0.410004,0.100343,0.142515,0.736163,-1.155832,0.828171,-7.813756
1790542150.3083,-0.069468,-0.075836,-0.397909,-0.073395,-0.075913,-0.397909,-0.126701,-1.083768,0.834508,0.223975,1.646131,-13.286133
1790542150.3223,-0.063069,-0.067374,-0.374408,-0.066167,-0.069936,-0.374408,-0.690063,-0.677031,0.607464,3.903462,0.121751,-12.975644
1790542150.3364,-0.057715,-0.057875,-0.351202,-0.060251,-0.061493,-0.351202,-0.822405,-0.613895,0.660886,3.865134,-1.142369,-12.781588
1790542150.3503,-0.051140,-0.042491,-0.329401,-0.053873,-0.048192,-0.329401,-1.173292,-0.820299,0.465409,3.711822,0.270471,-6.727042
1790542150.3642,-0.031806,-0.024244,-0.323478,-0.038426,-0.031428,-0.323478,-1.301991,-1.462580,0.267504,0.223975,0.976891,-5.252217
1790542150.3781,-0.016653,-0.010433,-0.311821,-0.023185,-0.016732,-0.311821,-0.997241,-1.381233,0.283288,1.833751,0.753811,-4.631238
1790542150.3923,-0.027001,-0.018903,-0.300248,-0.025856,-0.018251,-0.300248,0.481584,0.630601,0.245649,2.370342,-0.659029,-20.116903
1790542150.4068,-0.036222,-0.032114,-0.343327,-0.033113,-0.027955,-0.343327,1.095940,0.917138,-0.360207,-4.796990,5.698751,-12.121798
1790542150.4207,-0.022615,-0.038034,-0.375553,-0.025765,-0.035010,-0.375553,0.613925,-0.550760,-1.047412,-6.636734,5.773111,-11.772497
1790542150.4347,-0.030973,-0.048304,-0.373906,-0.029411,-0.044316,-0.373906,0.738982,0.557752,-1.008559,2.791950,1.162791,-9.443825
1790542150.4487,-0.028030,-0.057402,-0.377552,-0.028444,-0.053476,-0.377552,0.644279,-0.195016,-0.586038,0.683911,0.716631,-7.542077
1790542150.4626,-0.015354,-0.065416,-0.388631,-0.019281,-0.061834,-0.388631,0.622424,-0.819085,-0.590894,-0.580912,1.794851,-10.142427
1790542150.4765,0.000318,-0.074375,-0.413823,-0.005561,-0.070613,-0.413823,0.772978,-0.893148,-0.936925,-2.075704,2.649991,-7.891378
1790542150.4900,0.011397,-0.082345,-0.430953,0.006309,-0.078825,-0.430953,0.680703,-0.696457,-1.146971,-0.619240,2.612811,-9.366203
1790542150.5036,0.018605,-0.086957,-0.440833,0.014916,-0.084517,-0.440833,0.434232,-0.480340,-1.112976,0.262303,2.501271,-8.163056
1790542150.5176,0.013524,-0.089989,-0.454801,0.013942,-0.088347,-0.454801,0.136768,0.449693,-1.066838,-0.389272,0.196111,-13.402567
1790542150.5314,0.005145,-0.084643,-0.471459,0.007784,-0.085754,-0.471459,-0.426594,0.715590,-0.981848,-1.040848,1.125611,-16.274595
1790542150.5455,-0.000843,-0.077447,-0.492349,0.001745,-0.079939,-0.492349,-0.659710,0.652455,-0.889573,-2.573967,-1.253909,-10.064805
1790542150.5595,-0.002046,-0.070793,-0.502110,-0.000909,-0.073537,-0.502110,-0.702205,0.286998,-0.686812,-1.884064,-2.071868,-7.697322
1790542150.5733,-0.006364,-0.055488,-0.516377,-0.004728,-0.060903,-0.516377,-1.198789,0.664596,-0.689240,-2.497311,-0.138509,-4.980539
1790542150.5872,-0.015308,-0.038238,-0.533655,-0.012134,-0.045037,-0.533655,-1.314132,0.851574,-0.746305,-1.654096,0.270471,-9.249770
1790542150.6010,-0.024495,-0.023457,-0.548347,-0.020786,-0.029931,-0.548347,-1.163579,0.943849,-0.664957,-2.458983,-0.175689,-8.279490
1790542150.6148,-0.029744,-0.011075,-0.558236,-0.027057,-0.016732,-0.558236,-1.056734,0.619673,-0.395418,-2.458983,-0.993649,-8.978091
1790542150.6287,-0.012987,-0.012608,-0.561273,-0.017208,-0.013845,-0.561273,0.015353,-1.091053,-0.091882,-3.302199,0.084571,-16.779140
1790542150.6426,-0.021670,-0.021453,-0.537701,-0.020332,-0.019170,-0.537701,0.575073,0.271214,0.812654,5.206613,0.344831,-12.781588
1790542150.6569,-0.022023,-0.034794,-0.517702,-0.021515,-0.030107,-0.517702,0.963598,-0.236297,0.904929,2.217030,1.832031,-9.754315
1790542150.6710,-0.014119,-0.043344,-0.472753,-0.016338,-0.039373,-0.472753,0.730483,-0.249653,0.538258,-4.337055,1.832031,-4.902916
1790542150.6849,-0.027249,-0.050412,-0.467853,-0.023976,-0.047100,-0.467853,0.477942,0.760514,0.537044,1.948735,0.642271,-9.133336
1790542150.6989,-0.039934,-0.064059,-0.461065,-0.035147,-0.058971,-0.461065,0.966027,0.849146,0.601393,0.147319,1.385871,-13.247322
1790542150.7125,-0.058751,-0.071407,-0.439974,-0.051669,-0.067677,-0.439974,0.651564,1.234029,0.847864,1.565455,3.616671,-11.229140
1790542150.7262,-0.069302,-0.072617,-0.424331,-0.064012,-0.071135,-0.424331,0.191404,0.783582,0.937710,-1.155832,3.282051,-9.793126
1790542150.7402,-0.070641,-0.077046,-0.414326,-0.068652,-0.075273,-0.414326,0.255754,0.051455,0.982634,-0.274288,0.753811,-9.637881
1790542150.7541,-0.077915,-0.078587,-0.397069,-0.075136,-0.077593,-0.397069,0.108842,0.410841,0.921927,0.875551,1.385871,-8.395923
1790542150.7682,-0.074228,-0.079251,-0.382753,-0.074500,-0.078753,-0.382753,0.061491,-0.314002,0.762874,0.262303,2.315371,-12.354665
1790542150.7821,-0.061551,-0.073864,-0.369040,-0.065436,-0.075331,-0.369040,-0.416881,-1.016990,0.705809,1.258831,1.385871,-12.665154
1790542150.7959,-0.053473,-0.066714,-0.362960,-0.057062,-0.069299,-0.362960,-0.641497,-0.842154,0.657244,4.248414,-0.733389,-11.888930
1790542150.8099,-0.048751,-0.056461,-0.359367,-0.051244,-0.060312,-0.359367,-0.846687,-0.587184,0.438698,3.328542,-0.510309,-8.861658
1790542150.8238,-0.037569,-0.040182,-0.354548,-0.041671,-0.046221,-0.354548,-1.201217,-1.044916,0.123021,2.906934,0.605091,-7.231588
1790542150.8376,-0.024657,-0.023818,-0.352160,-0.029762,-0.030539,-0.352160,-1.192718,-1.210039,0.007678,3.136902,0.939711,-6.649420
1790542150.8516,-0.014928,-0.007611,-0.351009,-0.019378,-0.014489,-0.351009,-1.157508,-0.965996,-0.033603,3.136902,1.125611,-6.610609
1790542150.8655,-0.019614,-0.001649,-0.354935,-0.019543,-0.005501,-0.354935,-0.347675,0.268786,-0.119807,1.450471,2.873071,-9.288581
1790542150.8795,-0.031851,-0.006095,-0.376027,-0.028159,-0.005917,-0.376027,0.394166,1.096831,-0.871361,-1.040848,3.505131,-12.509909
1790542150.8935,-0.031081,-0.009708,-0.409159,-0.030205,-0.008571,-0.409159,0.310390,0.347705,-1.375230,-3.532167,2.724351,-12.238231
1790542150.9082,-0.025317,-0.015242,-0.438885,-0.026783,-0.013241,-0.438885,0.441517,-0.004396,-1.099620,-2.727279,1.757671,-6.882287
1790542150.9222,-0.029113,-0.026310,-0.456225,-0.028414,-0.022389,-0.456225,0.758408,0.482475,-0.859220,-0.964192,0.679451,-8.201867
1790542150.9361,-0.014707,-0.039727,-0.476141,-0.018819,-0.034526,-0.476141,0.945386,-0.738952,-1.087479,-2.535639,0.976891,-9.831937
1790542150.9498,-0.002005,-0.048428,-0.484777,-0.007049,-0.044257,-0.484777,0.732911,-0.806944,-1.205250,0.147319,2.426911,-7.930189
1790542150.9634,0.004626,-0.051992,-0.483297,0.001124,-0.049671,-0.483297,0.357742,-0.507051,-1.231961,1.718767,2.315371,-7.115154
1790542150.9775,0.009161,-0.052673,-0.491034,0.006750,-0.051772,-0.491034,0.145267,-0.269079,-1.112976,0.645583,2.278191,-6.727042
1790542150.9915,0.016968,-0.055310,-0.508082,0.013903,-0.054248,-0.508082,0.289750,-0.396564,-0.967278,-1.347472,3.802571,-10.957462
1790542151.0054,0.004330,-0.061336,-0.514994,0.007202,-0.059210,-0.514994,0.356527,0.940207,-0.850721,1.335487,0.419191,-14.605714
1790542151.0192,-0.006599,-0.047522,-0.542622,-0.002459,-0.051028,-0.542622,-1.019096,1.048265,-0.543543,-4.298727,1.571771,-13.596623
1790542151.0332,-0.007835,-0.030390,-0.575108,-0.006222,-0.036581,-0.575108,-1.308061,0.473976,-0.549614,-4.643678,0.010211,-8.007811
1790542151.0471,-0.017394,-0.018092,-0.594573,-0.014043,-0.023639,-0.594573,-1.076160,0.912281,-0.450054,-1.654096,-1.068009,-6.727042
1790542151.0610,-0.031546,-0.000646,-0.564916,-0.026295,-0.007544,-0.564916,-0.957174,1.180607,-0.537472,-0.350944,1.683311,-2.263755
1790542151.0749,-0.023897,-0.006441,-0.587539,-0.024617,-0.006772,-0.587539,0.264253,-0.403849,-0.436698,-1.884064,-1.328269,-16.623896
1790542151.0888,-0.022214,-0.017083,-0.534483,-0.022935,-0.013990,-0.534483,0.907748,-0.487624,0.296643,7.161340,5.066691,-12.121798
1790542151.1029,-0.030507,-0.023106,-0.507333,-0.028236,-0.020371,-0.507333,0.553218,0.289427,0.993561,3.558510,4.769251,-12.509909
1790542151.1167,-0.036185,-0.037787,-0.479838,-0.033800,-0.032562,-0.479838,1.057087,0.083022,1.270385,2.561982,1.571771,-9.793126
1790542151.1306,-0.038854,-0.053957,-0.471467,-0.037338,-0.047539,-0.471467,1.112938,0.107305,1.204822,-0.580912,0.456371,-7.503266
1790542151.1445,-0.060807,-0.070550,-0.456352,-0.053766,-0.063647,-0.456352,1.178502,1.439219,0.976563,1.067191,1.125611,-9.754315
1790542151.1587,-0.076891,-0.087121,-0.459027,-0.069953,-0.080078,-0.459027,1.128722,1.164823,1.065195,-1.539112,1.162791,-10.297672
1790542151.1724,-0.090048,-0.096267,-0.453031,-0.084019,-0.091411,-0.453031,0.741410,0.957205,0.949852,-0.274288,2.687171,-9.327392
1790542151.1860,-0.094951,-0.099128,-0.450922,-0.091671,-0.096813,-0.450922,0.235113,0.395057,0.889145,-0.734224,2.092291,-9.443825
1790542151.1996,-0.085887,-0.099127,-0.435724,-0.087622,-0.098432,-0.435724,-0.107275,-0.768091,0.897644,1.527127,0.084571,-12.548721
1790542151.2136,-0.081409,-0.094673,-0.424287,-0.083273,-0.095801,-0.424287,-0.412025,-0.405063,0.670599,1.527127,-0.026969,-13.402567
1790542151.2275,-0.078713,-0.096580,-0.405921,-0.080081,-0.096346,-0.405921,-0.072065,-0.403849,0.846650,3.788478,-2.480848,-12.432287
1790542151.2413,-0.067891,-0.095961,-0.385041,-0.071548,-0.096077,-0.385041,-0.178909,-1.002421,0.823581,2.753622,-0.659029,-9.094525
1790542151.2553,-0.060321,-0.091781,-0.363028,-0.063689,-0.093070,-0.363028,-0.403526,-0.834869,0.912213,3.328542,-0.250049,-7.697322
1790542151.2692,-0.056776,-0.083667,-0.350150,-0.058850,-0.086488,-0.350150,-0.779910,-0.589612,0.878218,2.945262,-1.253909,-5.562707
1790542151.2832,-0.051953,-0.069484,-0.335662,-0.054022,-0.074585,-0.335662,-1.164793,-0.516764,0.550399,1.987063,-0.956469,-8.822846
1790542151.2970,-0.047500,-0.053298,-0.327773,-0.049457,-0.059684,-0.327773,-1.354199,-0.499766,0.280860,2.753622,-1.774428,-10.181238
1790542151.3109,-0.036889,-0.029191,-0.323117,-0.040659,-0.038339,-0.323117,-1.822858,-0.940499,0.120593,2.370342,0.010211,-8.551168
1790542151.3249,-0.023832,-0.005312,-0.318707,-0.028880,-0.015220,-0.318707,-1.815573,-1.144475,0.166730,2.561982,-0.287229,-8.240679
1790542151.3395,-0.029133,0.008825,-0.319518,-0.029057,0.001611,-0.319518,-0.976601,0.305210,0.025890,1.220503,1.869211,-10.724595
1790542151.3535,-0.053323,-0.013317,-0.321693,-0.046043,-0.008838,-0.321693,1.431043,1.872668,-0.536258,-0.427600,-1.848788,-17.632987
1790542151.3676,-0.023852,-0.018346,-0.566181,-0.030510,-0.015494,-0.566181,0.915033,-1.528144,-1.120260,-7.058341,9.268030,-1.371098
1790542151.3815,-0.044825,-0.023111,-0.085565,-0.040531,-0.020826,-0.085565,0.263038,0.904997,-0.258219,6.701404,3.096151,-1.798021
1790542151.3955,-0.042340,-0.037285,-0.099928,-0.041797,-0.032347,-0.099928,0.990310,-0.044462,-0.326211,-1.462456,0.939711,-12.082986
1790542151.4099,-0.023691,-0.058907,-0.116038,-0.029123,-0.050939,-0.116038,1.431043,-1.163901,-0.431842,-1.654096,-0.324409,-11.500819
1790542151.4237,-0.008860,-0.072321,-0.139703,-0.014939,-0.065907,-0.139703,1.066800,-0.953855,-0.558113,-0.810880,1.534591,-6.416553
1790542151.4378,0.001776,-0.078619,-0.154856,-0.003239,-0.074805,-0.154856,0.510723,-0.732881,-0.537472,0.262303,1.794851,-8.551168
1790542151.4517,0.018235,-0.085820,-0.171061,0.011793,-0.082516,-0.171061,0.564146,-1.078912,-0.666171,-0.887536,1.311511,-7.231588
1790542151.4656,-0.000239,-0.083906,-0.210707,0.003371,-0.083489,-0.210707,-0.002859,1.298379,-0.753589,2.408670,4.769251,-14.062357
1790542151.4796,-0.011935,-0.065175,-0.253900,-0.007343,-0.070669,-0.253900,-1.371197,1.127185,-0.596965,-5.218598,0.530731,-13.324944
1790542151.4934,-0.018464,-0.046335,-0.309864,-0.015128,-0.053635,-0.309864,-1.505967,0.804223,-0.382062,-4.758662,-1.514168,-9.676693
1790542151.5075,-0.024204,-0.028967,-0.368811,-0.021481,-0.036368,-0.368811,-1.479255,0.719233,-0.237579,-2.880591,-2.034688,-5.523895
1790542151.5215,-0.044011,-0.019005,-0.386722,-0.037252,-0.024214,-0.386722,-0.792051,1.190320,-0.178086,0.683911,-0.026969,-1.371098
1790542151.5354,-0.034725,-0.018260,-0.396893,-0.035483,-0.020046,-0.396893,0.001998,-0.466984,-0.261862,-2.650623,2.352551,-9.715504
1790542151.5494,-0.039274,-0.023198,-0.389234,-0.038137,-0.022252,-0.389234,0.297034,0.163156,0.574682,2.753622,1.274331,-18.370399
1790542151.5634,-0.032958,-0.029406,-0.375173,-0.034512,-0.027260,-0.375173,0.374739,-0.519192,1.036056,-1.309144,0.567911,-9.948371
1790542151.5773,-0.033919,-0.034889,-0.358364,-0.034097,-0.032600,-0.358364,0.384453,-0.299432,1.445222,3.021918,1.497411,-10.025993
1790542151.5913,-0.033084,-0.047286,-0.343131,-0.033388,-0.042880,-0.343131,0.893178,-0.191374,1.117403,-0.082648,1.385871,-8.589979
1790542151.6052,-0.047341,-0.053845,-0.335272,-0.043155,-0.050556,-0.335272,0.555647,0.696164,1.215749,3.251886,2.687171,-8.745224
1790542151.6191,-0.058394,-0.061183,-0.323495,-0.053823,-0.057995,-0.323495,0.492511,0.777512,1.080979,-1.194160,1.014071,-9.599070
1790542151.6331,-0.070179,-0.066247,-0.312126,-0.065272,-0.063771,-0.312126,0.369883,0.773869,1.040913,-0.120976,1.608951,-8.434735
1790542151.6493,-0.071206,-0.066401,-0.299564,-0.069426,-0.065612,-0.299564,-0.052639,0.083022,0.997203,-2.114032,0.939711,-11.384385
1790542151.6638,-0.077530,-0.064439,-0.284952,-0.075098,-0.064791,-0.284952,-0.210477,0.299140,1.006917,1.067191,0.642271,-9.405014
1790542151.6779,-0.074392,-0.060772,-0.273450,-0.074604,-0.061978,-0.273450,-0.269970,-0.284863,0.878218,-0.005993,1.757671,-9.793126
1790542151.6934,-0.065819,-0.055965,-0.266053,-0.068455,-0.057769,-0.266053,-0.307608,-0.576257,0.488478,-0.159304,1.608951,-9.405014
1790542151.7075,-0.056587,-0.051948,-0.258634,-0.060147,-0.053695,-0.258634,-0.290610,-0.769305,0.433842,1.642111,1.720491,-11.850119
1790542151.7212,-0.043087,-0.044885,-0.254618,-0.048205,-0.047528,-0.254618,-0.548008,-1.084982,0.118165,1.833751,1.199971,-13.208511
1790542151.7351,-0.035166,-0.032980,-0.255490,-0.039077,-0.037344,-0.255490,-0.903752,-0.768091,-0.070027,4.593365,0.605091,-12.393476
1790542151.7491,-0.022481,-0.017659,-0.262002,-0.027460,-0.023565,-0.262002,-1.083445,-1.103194,-0.360207,2.408670,0.939711,-5.562707
1790542151.7631,-0.020403,-0.011308,-0.270207,-0.022520,-0.014985,-0.270207,-0.409596,-0.283648,-0.402702,2.063719,1.385871,-5.912007
1790542151.7770,-0.034210,-0.023294,-0.280799,-0.030703,-0.020801,-0.280799,0.796047,1.042195,-0.831295,1.795423,0.307651,-10.879840
1790542151.7910,-0.026805,-0.035744,-0.309465,-0.027975,-0.031261,-0.309465,0.958742,-0.094242,-1.486931,-5.640206,2.984611,-14.023546
1790542151.8048,-0.018866,-0.046989,-0.336708,-0.021598,-0.042271,-0.336708,0.868895,-0.280006,-1.835390,-1.117504,2.166651,-10.841028
1790542151.8187,-0.021070,-0.050226,-0.358222,-0.021228,-0.047839,-0.358222,0.340744,0.076952,-1.242889,3.366870,2.501271,-7.736133
1790542151.8326,-0.012902,-0.052841,-0.374339,-0.015400,-0.051340,-0.374339,0.164693,-0.380780,-1.170040,-1.500784,0.976891,-11.966553
1790542151.8465,0.000812,-0.062808,-0.392962,-0.004051,-0.059367,-0.392962,0.680703,-0.730453,-1.296311,-2.190688,0.790991,-10.569350
1790542151.8601,0.016826,-0.070676,-0.416940,0.010562,-0.067283,-0.416940,0.657635,-0.913788,-1.363089,-1.999048,2.352551,-8.007811
1790542151.8738,0.018697,-0.075785,-0.436133,0.016256,-0.073235,-0.436133,0.447588,-0.105170,-1.291454,0.952207,2.426911,-7.969000
1790542151.8874,0.021208,-0.079114,-0.452781,0.019722,-0.077350,-0.452781,0.326174,-0.123382,-1.034056,0.147319,2.798711,-9.599070
1790542151.9016,0.005589,-0.078633,-0.464821,0.009829,-0.078248,-0.464821,-0.148556,1.144183,-1.048626,1.105519,-0.473129,-14.683336
1790542151.9161,0.000547,-0.070007,-0.479423,0.003331,-0.072479,-0.479423,-0.728916,0.545611,-0.966064,-2.995575,-1.439808,-15.226693
1790542151.9300,-0.006654,-0.057975,-0.493880,-0.003659,-0.062326,-0.493880,-1.028809,0.787225,-0.860434,-3.455511,-1.700068,-10.957462
1790542151.9441,-0.012886,-0.043575,-0.506210,-0.010118,-0.049201,-0.506210,-1.185433,0.722875,-0.671028,-2.343999,-1.030829,-6.688231
1790542151.9580,-0.012760,-0.030775,-0.516597,-0.011968,-0.036302,-0.516597,-1.071304,0.278499,-0.589680,-2.458983,-0.770569,-6.727042
1790542151.9718,-0.017384,-0.023625,-0.529358,-0.015759,-0.027428,-0.529358,-0.704633,0.629386,-0.751161,-2.229015,-1.253909,-7.076343
1790542151.9858,-0.022269,-0.011896,-0.537781,-0.020316,-0.016556,-0.537781,-0.869756,0.579607,-0.504690,-2.765607,1.162791,-11.190329
1790542151.9997,-0.010948,-0.012901,-0.538131,-0.013759,-0.013998,-0.538131,-0.065994,-0.845796,-0.055458,0.683911,-1.216729,-17.244875
1790542152.0136,-0.016841,-0.024366,-0.530514,-0.015917,-0.021255,-0.530514,0.815473,0.107305,0.703381,3.788478,1.162791,-10.258860
1790542152.0274,-0.018328,-0.035157,-0.516917,-0.017605,-0.030986,-0.516917,0.955099,-0.009252,0.981420,-0.235960,2.873071,-6.416553
1790542152.0414,-0.008410,-0.042012,-0.508414,-0.011169,-0.038704,-0.508414,0.547148,-0.371067,0.513975,-3.992103,1.088431,-4.165504
1790542152.0553,-0.023100,-0.051487,-0.503778,-0.019521,-0.047652,-0.503778,0.639422,0.805437,0.470266,2.370342,0.270471,-6.727042
1790542152.0692,-0.037553,-0.066138,-0.499137,-0.032143,-0.060592,-0.499137,1.047374,0.938993,0.439912,1.450471,1.460231,-13.635434
1790542152.0832,-0.057672,-0.074206,-0.487422,-0.050014,-0.070122,-0.487422,0.747481,1.275310,0.890359,1.757095,3.876931,-8.784035
1790542152.0966,-0.079330,-0.079546,-0.476915,-0.070535,-0.076719,-0.476915,0.469443,1.577631,0.943781,-0.235960,2.575631,-9.288581
1790542152.1104,-0.086186,-0.087473,-0.467605,-0.081490,-0.084247,-0.467605,0.544719,0.540754,0.817510,-0.925864,0.902531,-8.201867
1790542152.1245,-0.079446,-0.096783,-0.458270,-0.080059,-0.093022,-0.458270,0.535006,-0.434202,0.764088,-1.270816,-0.547489,-10.841028
1790542152.1383,-0.070996,-0.097315,-0.448594,-0.073715,-0.096027,-0.448594,0.011711,-0.644249,0.651173,0.377287,1.311511,-14.023546
1790542152.1522,-0.063656,-0.098771,-0.438112,-0.066674,-0.097947,-0.438112,-0.070851,-0.771734,0.660886,4.363398,-2.034688,-11.151518
1790542152.1667,-0.059438,-0.096021,-0.427218,-0.061609,-0.096599,-0.427218,-0.313679,-0.582327,0.643888,4.555037,-0.993649,-9.055714
1790542152.1807,-0.054019,-0.086260,-0.416943,-0.056296,-0.089362,-0.416943,-0.804192,-0.736523,0.620819,4.325070,-0.547489,-7.076343
1790542152.1946,-0.049504,-0.071597,-0.412114,-0.051542,-0.076927,-0.412114,-1.115013,-0.647891,0.291787,4.171758,0.047391,-7.115154
1790542152.2085,-0.046250,-0.058072,-0.405823,-0.047838,-0.063729,-0.405823,-1.146581,-0.479125,0.142447,3.098574,-1.328269,-7.076343
1790542152.2224,-0.035685,-0.040441,-0.401937,-0.039331,-0.047427,-0.401937,-1.321417,-0.912574,0.163088,2.025391,0.456371,-8.900469
1790542152.2362,-0.026388,-0.017427,-0.404966,-0.030271,-0.026427,-0.404966,-1.695373,-0.933214,-0.146518,3.366870,0.567911,-6.610609
1790542152.2503,-0.011884,0.003307,-0.408849,-0.017400,-0.005613,-0.408849,-1.413692,-1.188184,-0.080955,1.718767,1.869211,-6.610609
1790542152.2641,-0.041623,-0.011384,-0.411428,-0.034356,-0.009653,-0.411428,0.916247,2.111854,-0.371135,3.865134,-1.365448,-15.925294
1790542152.2779,-0.046584,-0.035725,-0.426483,-0.042916,-0.027903,-0.426483,1.852350,0.820007,-1.043769,-8.629789,3.951291,-16.119350
1790542152.2919,-0.033405,-0.034073,-0.456014,-0.036258,-0.032222,-0.456014,0.261824,-0.611467,-1.014630,-2.458983,5.178231,-5.096972
1790542152.3058,-0.044742,-0.045074,-0.461350,-0.042197,-0.041218,-0.461350,0.768122,0.668239,-0.562969,5.091629,0.753811,-11.733686
1790542152.3198,-0.028235,-0.064886,-0.465529,-0.032423,-0.057785,-0.465529,1.392191,-0.904075,-0.570254,-4.183743,0.716631,-11.539630
1790542152.3334,-0.011443,-0.080995,-0.476403,-0.017737,-0.074032,-0.476403,1.301130,-1.128691,-0.596965,-0.964192,2.649991,-9.560259
1790542152.3470,0.000139,-0.088483,-0.489088,-0.005224,-0.084147,-0.489088,0.745053,-0.853081,-0.544757,0.453943,3.170511,-7.348021
1790542152.3610,0.015562,-0.099082,-0.499934,0.009326,-0.094602,-0.499934,0.776621,-1.012134,-0.729307,-0.849208,1.088431,-8.434735
1790542152.3749,0.004765,-0.105347,-0.513703,0.006134,-0.102123,-0.513703,0.542291,0.724089,-0.827652,2.063719,3.319231,-12.432287
1790542152.3887,-0.009920,-0.089332,-0.529463,-0.005104,-0.093170,-0.529463,-1.078589,1.138112,-0.791228,-0.619240,3.616671,-15.653616
1790542152.4029,-0.017998,-0.070758,-0.528684,-0.014130,-0.077482,-0.528684,-1.536320,0.843075,-0.606678,-3.953775,-3.075728,-9.676693
1790542152.4175,-0.017360,-0.054025,-0.530032,-0.016391,-0.061062,-0.530032,-1.332344,0.362275,-0.569040,-3.647151,-1.365448,-4.825294
1790542152.4317,-0.023408,-0.034937,-0.534914,-0.021303,-0.042774,-0.534914,-1.362698,0.549253,-0.272789,-1.002520,0.716631,-7.115154
1790542152.4457,-0.030156,-0.012393,-0.543419,-0.027500,-0.021508,-0.543419,-1.587314,0.901354,-0.479193,-3.225543,0.976891,-4.825294
1790542152.4595,-0.025242,0.005932,-0.551226,-0.025919,-0.002300,-0.551226,-1.204859,-0.010467,-0.553256,-3.685479,3.021791,-7.697322
1790542152.4734,-0.011363,0.001689,-0.550247,-0.015730,0.000492,-0.550247,0.212044,-0.984208,-0.025104,-0.849208,0.307651,-16.662707
1790542152.4873,-0.006311,0.003569,-0.539540,-0.009136,0.002646,-0.539540,-0.034426,-0.567758,0.528545,1.450471,2.984611,-8.706413
1790542152.5012,-0.007425,-0.000183,-0.527943,-0.007938,0.000665,-0.527943,0.380810,-0.124596,0.687597,1.412143,3.653851,-10.336483
1790542152.5152,-0.003669,-0.009414,-0.520480,-0.004950,-0.006390,-0.520480,0.643065,-0.431774,0.360993,1.565455,1.311511,-10.569350
1790542152.5291,-0.010040,-0.016185,-0.511789,-0.008513,-0.013246,-0.511789,0.533792,0.194724,0.452054,3.021918,2.055111,-9.016902
1790542152.5429,-0.023176,-0.021181,-0.506296,-0.018777,-0.018801,-0.506296,0.409950,0.807865,0.466623,1.642111,2.687171,-11.617252
1790542152.5564,-0.030912,-0.022747,-0.500529,-0.027271,-0.021563,-0.500529,0.175620,0.515257,0.595322,-0.235960,2.278191,-8.978091
1790542152.5700,-0.031119,-0.021552,-0.492712,-0.029965,-0.021556,-0.492712,-0.062352,-0.046891,0.645102,-0.427600,2.017931,-9.870749
1790542152.5838,-0.034219,-0.016584,-0.481879,-0.032942,-0.018075,-0.481879,-0.323392,0.050241,0.741019,0.990535,1.906391,-8.201867
1790542152.5976,-0.032991,-0.012982,-0.470950,-0.032976,-0.014510,-0.470950,-0.269970,-0.249653,0.683955,0.913879,1.497411,-9.288581
1790542152.6114,-0.028601,-0.006263,-0.461062,-0.029913,-0.008737,-0.461062,-0.410810,-0.480340,0.666957,0.837223,2.798711,-8.939280
1790542152.6253,-0.026873,0.001216,-0.451055,-0.027785,-0.001770,-0.451055,-0.384099,-0.364996,0.641460,2.063719,3.951291,-8.318301
1790542152.6392,-0.019078,0.004116,-0.442941,-0.021690,0.002351,-0.442941,-0.171624,-0.684315,0.475122,0.607255,3.021791,-12.354665
1790542152.6529,-0.018112,0.008984,-0.437633,-0.019186,0.006994,-0.437633,-0.261471,-0.232655,0.245649,2.178703,3.765391,-10.879840
1790542152.6673,-0.020931,-0.003348,-0.436167,-0.020407,-0.000245,-0.436167,0.820330,0.174083,-0.003250,0.607255,1.460231,-14.023546
1790542152.6815,-0.018585,-0.008652,-0.452848,-0.019132,-0.006130,-0.452848,0.565360,0.042956,-0.428199,-1.922392,3.988471,-7.386832
1790542152.6955,-0.011836,-0.017061,-0.468778,-0.014025,-0.013782,-0.468778,0.666134,-0.273935,-0.892002,-1.117504,2.352551,-8.667602
1790542152.7095,-0.002056,-0.029029,-0.490210,-0.005647,-0.024455,-0.490210,0.828829,-0.386851,-1.238032,-2.842263,1.385871,-11.694875
1790542152.7235,-0.000662,-0.031944,-0.496365,-0.002157,-0.029697,-0.496365,0.170764,-0.140380,-1.247745,3.021918,1.051251,-8.628791
1790542152.7374,0.001677,-0.029025,-0.507386,0.000527,-0.029227,-0.507386,-0.206835,-0.129452,-1.159113,1.680439,1.794851,-9.366203
1790542152.7514,0.011816,-0.033150,-0.525468,0.008430,-0.031973,-0.525468,0.205974,-0.475483,-1.206464,-2.075704,0.419191,-11.888930
1790542152.7654,0.018274,-0.041733,-0.545849,0.015320,-0.038805,-0.545849,0.581144,-0.254509,-1.422582,-0.734224,1.608951,-10.336483
1790542152.7792,0.020453,-0.039703,-0.566699,0.018914,-0.039434,-0.566699,-0.022285,-0.035963,-1.562208,0.645583,3.058971,-6.494175
1790542152.7927,0.021262,-0.040317,-0.583419,0.020557,-0.040052,-0.583419,0.017782,0.056311,-1.451721,0.760567,1.869211,-10.142427
1790542152.8063,0.020441,-0.044038,-0.605157,0.020476,-0.042842,-0.605157,0.169549,0.314924,-1.370374,-1.692424,0.493551,-10.491728
1790542152.8203,0.021728,-0.046879,-0.620106,0.021352,-0.045668,-0.620106,0.162265,0.039313,-1.087479,-0.312616,1.162791,-9.055714
1790542152.8342,0.007799,-0.043915,-0.629606,0.011865,-0.044441,-0.629606,-0.226261,1.014269,-0.895644,2.140375,2.464091,-14.760958
1790542152.8482,-0.002043,-0.035476,-0.644881,0.002129,-0.038165,-0.644881,-0.697348,0.913496,-0.707452,-2.688951,0.084571,-13.674245
1790542152.8619,-0.008128,-0.022910,-0.660560,-0.005051,-0.027487,-0.660560,-1.049449,0.715590,-0.617606,-2.995575,-0.696209,-9.599070
1790542152.8759,-0.010986,-0.011394,-0.680129,-0.009205,-0.016222,-0.680129,-1.016667,0.663382,-0.624890,-3.762135,-1.179549,-5.058161
1790542152.8898,-0.018385,0.000737,-0.693147,-0.015631,-0.004350,-0.693147,-1.015453,0.805437,-0.473123,-2.037376,-0.473129,-6.416553
1790542152.9040,-0.010451,-0.000683,-0.700513,-0.012005,-0.001783,-0.700513,-0.028356,-0.334642,-0.299500,-2.573967,-0.435949,-7.930189
1790542152.9184,-0.009172,-0.011035,-0.690788,-0.010022,-0.008259,-0.690788,0.717128,-0.232655,0.561326,0.990535,2.055111,-13.286133
1790542152.9325,-0.017017,-0.025387,-0.674844,-0.014918,-0.020249,-0.674844,0.980596,0.312495,1.101620,1.718767,0.790991,-12.703965
1790542152.9466,-0.015317,-0.039710,-0.649580,-0.015197,-0.033871,-0.649580,1.064372,-0.460913,1.413654,2.638638,2.241011,-10.918651
1790542152.9606,-0.012818,-0.047882,-0.642229,-0.013532,-0.043679,-0.642229,0.598142,-0.049319,0.686383,-2.573967,0.939711,-6.532986
1790542152.9745,-0.032752,-0.055731,-0.630111,-0.026986,-0.052115,-0.630111,0.520437,1.198819,0.758017,2.063719,0.344831,-7.774944
1790542152.9884,-0.048312,-0.067359,-0.621031,-0.041915,-0.062786,-0.621031,0.793619,1.021554,0.755589,0.837223,0.567911,-11.617252
1790542153.0023,-0.067605,-0.071932,-0.604692,-0.059898,-0.069188,-0.604692,0.405093,1.196391,1.049412,1.680439,2.501271,-8.434735
1790542153.0159,-0.076651,-0.076881,-0.592563,-0.071625,-0.074573,-0.592563,0.396594,0.651241,1.026343,-0.810880,2.464091,-10.530539
1790542153.0295,-0.077290,-0.079063,-0.581325,-0.075591,-0.077716,-0.581325,0.212044,0.010174,0.819939,-0.044320,2.501271,-9.831937
1790542153.0433,-0.072990,-0.084044,-0.569033,-0.073770,-0.082146,-0.569033,0.278822,-0.395350,0.853935,0.913879,0.493551,-13.751868
1790542153.0573,-0.065018,-0.085765,-0.557736,-0.067644,-0.084679,-0.557736,0.048135,-0.668532,0.707023,1.220503,0.270471,-12.238231
1790542153.0711,-0.056075,-0.086387,-0.544992,-0.059546,-0.085875,-0.544992,-0.116988,-0.816657,0.641460,2.561982,-1.625708,-11.423196
1790542153.0850,-0.052821,-0.086163,-0.530265,-0.054838,-0.086077,-0.530265,-0.164340,-0.503408,0.597751,3.673494,-1.253909,-8.706413
1790542153.0990,-0.039921,-0.075872,-0.518160,-0.044396,-0.078934,-0.518160,-0.751984,-1.104409,0.620819,1.718767,0.753811,-7.542077
1790542153.1130,-0.036995,-0.061893,-0.506096,-0.039215,-0.067005,-0.506096,-1.112585,-0.487624,0.442340,3.903462,-0.733389,-8.978091
1790542153.1270,-0.031795,-0.042102,-0.499256,-0.034021,-0.049573,-0.499256,-1.521750,-0.568972,0.148518,2.561982,-0.435949,-8.046623
1790542153.1410,-0.019115,-0.022699,-0.493484,-0.023587,-0.030761,-0.493484,-1.502324,-1.060699,0.017391,2.561982,-0.473129,-10.685784
1790542153.1549,-0.007963,-0.004127,-0.489282,-0.012650,-0.012118,-0.489282,-1.458615,-1.055843,-0.043316,3.213558,-0.398769,-7.425644
1790542153.1692,-0.002038,0.011390,-0.489906,-0.005222,0.004338,-0.489906,-1.123512,-0.426917,-0.221795,0.683911,1.274331,-11.073895
1790542153.1834,-0.021353,-0.003925,-0.498986,-0.016514,-0.001446,-0.498986,0.961170,1.509639,-0.709880,0.185647,-0.473129,-21.281238
1790542153.1973,-0.025552,-0.011385,-0.524694,-0.022840,-0.008404,-0.524694,0.684346,0.677952,-1.256244,-3.608823,5.066691,-12.005364
1790542153.2112,-0.033528,-0.009144,-0.549427,-0.030322,-0.008922,-0.549427,0.079703,0.393843,-0.768159,4.095102,3.876931,-5.523895
1790542153.2252,-0.039783,-0.013967,-0.562566,-0.036945,-0.012453,-0.562566,0.425733,0.631815,-0.564183,-0.772552,1.646131,-5.989630
1790542153.2392,-0.021248,-0.030497,-0.572879,-0.025957,-0.025084,-0.572879,1.246494,-1.018204,-0.575111,-4.337055,2.538451,-10.181238
1790542153.2528,-0.007016,-0.042336,-0.587335,-0.012698,-0.037160,-0.587335,1.075299,-0.864008,-0.660101,-1.347472,3.653851,-7.076343
1790542153.2664,-0.004050,-0.047974,-0.597008,-0.006644,-0.044730,-0.597008,0.590857,-0.204729,-0.541115,0.607255,3.467951,-7.697322
1790542153.2804,0.005853,-0.054041,-0.606998,0.002104,-0.051248,-0.606998,0.457301,-0.611467,-0.677099,-0.657568,1.832031,-10.530539
1790542153.2943,0.017379,-0.060965,-0.614749,0.012797,-0.058050,-0.614749,0.509509,-0.793588,-0.674670,0.185647,1.385871,-8.667602
1790542153.3083,0.000590,-0.059749,-0.623419,0.004252,-0.059239,-0.623419,0.023852,1.191534,-0.446412,1.220503,4.211551,-12.548721
1790542153.3221,-0.014668,-0.044078,-0.627454,-0.008992,-0.048626,-0.627454,-1.162364,1.115043,-0.303143,0.798895,1.646131,-20.000469
1790542153.3362,-0.023633,-0.024971,-0.630751,-0.019240,-0.032068,-0.630751,-1.535106,0.875857,-0.281288,-2.803935,-1.365448,-8.395923
1790542153.3502,-0.029688,-0.007458,-0.637491,-0.026554,-0.014841,-0.637491,-1.363912,0.811508,-0.300714,-3.263871,-0.361589,-5.252217
1790542153.3642,-0.034474,0.014151,-0.643426,-0.032098,0.005453,-0.643426,-1.446474,0.840647,-0.226652,-3.685479,1.385871,-3.156413
1790542153.3781,-0.021140,0.008785,-0.646498,-0.024427,0.007786,-0.646498,0.199903,-0.874936,-0.378420,-0.465928,-1.402628,-10.375294
1790542153.3920,-0.020930,0.005319,-0.624344,-0.021979,0.006059,-0.624344,0.426948,-0.437845,0.449625,4.593365,3.579491,-6.028441
1790542153.4061,-0.017650,-0.004760,-0.612047,-0.018949,-0.001514,-0.612047,0.636994,-0.343141,0.856363,-0.925864,0.456371,-13.247322
1790542153.4206,-0.017974,-0.015885,-0.594496,-0.018267,-0.011573,-0.594496,0.772978,-0.219299,1.076123,1.105519,1.571771,-9.599070
1790542153.4347,-0.026357,-0.026368,-0.583376,-0.023930,-0.021930,-0.583376,0.806974,0.482475,0.949852,-0.312616,2.538451,-9.831937
1790542153.4487,-0.043448,-0.037796,-0.567169,-0.037593,-0.033036,-0.567169,0.748695,0.992415,1.112547,1.795423,0.456371,-10.802217
1790542153.4626,-0.055835,-0.048600,-0.552933,-0.050362,-0.043931,-0.552933,0.749909,0.776298,1.187824,-0.159304,1.274331,-9.405014
1790542153.4762,-0.068790,-0.053910,-0.540799,-0.063262,-0.050916,-0.540799,0.447588,0.892855,1.208464,-0.504256,2.055111,-7.076343
1790542153.4898,-0.070885,-0.056132,-0.530707,-0.068598,-0.054567,-0.530707,0.154980,0.203222,1.101620,-2.305671,1.869211,-9.599070
1790542153.5038,-0.068328,-0.056343,-0.519442,-0.068409,-0.055810,-0.519442,-0.021071,-0.193802,0.971706,-1.155832,1.348691,-9.715504
1790542153.5177,-0.066023,-0.058332,-0.508413,-0.066739,-0.057576,-0.508413,0.069990,-0.243582,0.800512,0.300631,0.753811,-13.324944
1790542153.5317,-0.056773,-0.056442,-0.493247,-0.059763,-0.056782,-0.493247,-0.183766,-0.839726,0.836937,2.178703,1.274331,-13.053266
1790542153.5456,-0.055965,-0.050762,-0.476126,-0.057104,-0.052568,-0.476126,-0.528582,-0.338285,0.748304,4.210086,-0.510309,-11.423196
1790542153.5595,-0.049593,-0.044824,-0.459453,-0.051846,-0.047147,-0.459453,-0.623285,-0.740166,0.646316,2.945262,-1.402628,-7.891378
1790542153.5734,-0.034540,-0.031302,-0.449690,-0.039732,-0.036056,-0.449690,-0.988742,-1.174829,0.543114,0.185647,0.865351,-6.144874
1790542153.5873,-0.027175,-0.017009,-0.440865,-0.030942,-0.022723,-0.440865,-1.189076,-0.788732,0.116950,3.328542,-1.030829,-7.774944
1790542153.6011,-0.016202,-0.000330,-0.438073,-0.020624,-0.007048,-0.438073,-1.333558,-0.991493,-0.229080,3.865134,-0.473129,-10.103616
1790542153.6150,-0.016472,0.006345,-0.440501,-0.017718,0.002327,-0.440501,-0.623285,-0.175590,-0.423343,6.471437,-1.105189,-13.286133
1790542153.6288,-0.023555,0.000556,-0.452696,-0.021804,0.001088,-0.452696,0.372311,0.612388,-0.910214,1.910407,1.608951,-16.623896
1790542153.6428,-0.011652,-0.009634,-0.475649,-0.014697,-0.006418,-0.475649,0.782691,-0.425703,-1.485717,-3.263871,2.426911,-9.443825
1790542153.6566,-0.017594,-0.012261,-0.517278,-0.016725,-0.010508,-0.517278,0.638208,0.392629,-1.037699,1.603783,3.765391,-2.224944
1790542153.6712,-0.019818,-0.023279,-0.530426,-0.018890,-0.019448,-0.530426,0.802118,0.261501,-0.730521,0.070663,1.571771,-6.843476
1790542153.6852,-0.007866,-0.031426,-0.547160,-0.011173,-0.027833,-0.547160,0.647921,-0.630893,-0.967278,-1.922392,2.910251,-11.306763
1790542153.6992,0.000240,-0.041541,-0.563202,-0.003184,-0.037428,-0.563202,0.669776,-0.402634,-1.310881,-0.350944,0.828171,-11.500819
1790542153.7131,0.012198,-0.045632,-0.582765,0.007584,-0.043171,-0.582765,0.301891,-0.700099,-1.417725,-0.082648,1.832031,-9.405014
1790542153.7282,0.020217,-0.052119,-0.596785,0.016427,-0.049435,-0.596785,0.371097,-0.469412,-1.208893,1.143847,0.976891,-10.220049
1790542153.7426,0.027558,-0.060629,-0.607995,0.024219,-0.057270,-0.607995,0.564146,-0.418418,-0.813082,-0.504256,1.162791,-9.793126
1790542153.7568,0.012522,-0.060422,-0.622695,0.016031,-0.059477,-0.622695,-0.011358,1.159966,-0.800941,-0.734224,3.765391,-21.281238
1790542153.7712,-0.001291,-0.042750,-0.633964,0.003906,-0.047768,-0.633964,-1.244926,1.159966,-0.458553,-4.068759,1.646131,-15.032637
1790542153.7854,-0.002841,-0.025871,-0.640337,-0.000817,-0.032440,-0.640337,-1.317775,0.493402,-0.504690,-6.138470,-0.844929,-9.715504
1790542153.7991,-0.012630,-0.012901,-0.644911,-0.009086,-0.018762,-0.644911,-1.138082,1.013055,-0.411201,-2.765607,-1.179549,-6.843476
1790542153.8130,-0.022831,0.000709,-0.652130,-0.018708,-0.005133,-0.652130,-0.993599,0.830934,-0.377205,-0.159304,0.567911,-3.932637
1790542153.8269,-0.026933,0.011041,-0.656916,-0.024465,0.006189,-0.656916,-0.799336,0.682809,-0.271575,-2.957247,0.344831,-4.708860
1790542153.8409,-0.018182,0.001296,-0.659788,-0.020067,0.002764,-0.659788,0.559289,-0.504622,-0.294644,-2.458983,-1.105189,-19.495924
1790542153.8549,-0.005356,-0.004840,-0.647002,-0.009769,-0.002559,-0.647002,0.525293,-1.177257,0.552827,3.213558,3.951291,-12.665154
1790542153.8687,-0.011760,-0.013657,-0.629661,-0.011163,-0.010328,-0.629661,0.644279,0.091521,1.042127,3.443526,1.423051,-9.793126
1790542153.8826,-0.011991,-0.027176,-0.610800,-0.011743,-0.022121,-0.610800,0.930817,-0.256937,1.215749,1.182175,0.493551,-8.512357
1790542153.8965,-0.026591,-0.041562,-0.600062,-0.022137,-0.035730,-0.600062,1.085013,0.954776,0.974135,-0.427600,2.092291,-9.482637
1790542153.9107,-0.050012,-0.048782,-0.587889,-0.041649,-0.044867,-0.587889,0.559289,1.410080,0.983848,1.488799,1.274331,-5.446273
1790542153.9255,-0.063837,-0.057813,-0.578144,-0.057181,-0.053929,-0.578144,0.619996,0.894069,0.857577,-0.465928,1.608951,-8.822846
1790542153.9394,-0.074434,-0.062708,-0.569578,-0.069258,-0.060074,-0.569578,0.400236,0.709520,0.816296,0.032335,2.055111,-8.201867
1790542153.9530,-0.074823,-0.065360,-0.560798,-0.073154,-0.063774,-0.560798,0.188976,0.058740,0.798084,-1.462456,1.869211,-11.151518
1790542153.9670,-0.074180,-0.066803,-0.550572,-0.073872,-0.065894,-0.550572,0.093059,-0.094242,0.782300,-0.005993,1.757671,-10.879840
1790542153.9810,-0.068661,-0.068773,-0.537827,-0.070224,-0.067909,-0.537827,0.034780,-0.476697,0.824795,0.415615,0.010211,-11.267951
1790542153.9949,-0.061849,-0.067604,-0.523315,-0.064361,-0.067696,-0.523315,-0.243259,-0.627251,0.789585,1.488799,-1.105189,-11.073895
1790542154.0088,-0.058206,-0.065980,-0.505800,-0.060052,-0.066495,-0.505800,-0.297895,-0.528905,0.864862,3.405198,-1.476988,-9.987182
1790542154.0228,-0.054179,-0.060950,-0.490118,-0.055941,-0.062613,-0.490118,-0.535867,-0.592041,0.732520,3.635166,-1.291089,-8.395923
1790542154.0366,-0.042845,-0.050829,-0.479860,-0.046774,-0.054364,-0.479860,-0.886754,-0.984208,0.367064,1.795423,-0.956469,-8.279490
1790542154.0506,-0.036921,-0.035236,-0.476681,-0.039877,-0.040974,-0.476681,-1.191504,-0.664889,0.121807,4.095102,0.047391,-9.948371
1790542154.0646,-0.022191,-0.014579,-0.475948,-0.027497,-0.022497,-0.475948,-1.552104,-1.234322,-0.176872,3.673494,0.270471,-10.763406
1790542154.0783,-0.010722,0.001902,-0.476351,-0.015754,-0.005418,-0.476351,-1.331130,-0.895576,-0.484050,2.332014,-0.547489,-10.957462
1790542154.0923,-0.021670,-0.008247,-0.482421,-0.019895,-0.007398,-0.482421,0.600570,0.937778,-0.732949,-0.465928,-0.621849,-17.982287
1790542154.1063,-0.010644,-0.018421,-0.499267,-0.013420,-0.015114,-0.499267,0.730483,-0.520406,-1.355804,-2.075704,3.133331,-18.680889
1790542154.1202,-0.011569,-0.021940,-0.546948,-0.012124,-0.019893,-0.546948,0.610283,-0.128238,-1.051054,3.673494,4.174371,-3.350469
1790542154.1342,-0.013097,-0.031664,-0.553925,-0.012805,-0.028133,-0.553925,0.651564,0.195938,-0.652816,0.070663,0.567911,-7.542077
1790542154.1480,-0.000878,-0.045482,-0.561233,-0.004456,-0.040277,-0.561233,0.955099,-0.550760,-0.949066,-3.953775,0.753811,-10.181238
1790542154.1616,0.011644,-0.059871,-0.577187,0.006814,-0.053993,-0.577187,1.094726,-0.776590,-1.061982,-0.734224,2.166651,-10.297672
1790542154.1759,0.020354,-0.066718,-0.599574,0.016292,-0.062901,-0.599574,0.594499,-0.487624,-1.143329,-0.350944,2.612811,-7.037532
1790542154.1896,0.029873,-0.067391,-0.622111,0.025798,-0.066044,-0.622111,0.275180,-0.565329,-1.020701,-0.465928,2.649991,-4.398371
1790542154.2035,0.039941,-0.077345,-0.636330,0.035698,-0.073954,-0.636330,0.695273,-0.621180,-0.981848,-0.657568,1.237151,-8.745224
1790542154.2175,0.021948,-0.082792,-0.644460,0.026073,-0.080141,-0.644460,0.248469,1.269239,-0.967278,2.485326,-0.844929,-18.292777
1790542154.2313,0.006656,-0.063650,-0.654223,0.012481,-0.068597,-0.654223,-1.412478,1.372441,-0.572682,-7.441621,1.906391,-19.340679
1790542154.2452,0.002370,-0.043566,-0.655906,0.005403,-0.051075,-0.655906,-1.586100,0.620887,-0.508333,-3.340527,-0.621849,-7.115154
1790542154.2590,-0.003340,-0.025537,-0.650871,-0.000717,-0.033199,-0.650871,-1.588528,0.694950,-0.487692,-1.922392,-1.774428,-4.708860
1790542154.2729,-0.012109,-0.009327,-0.654495,-0.008691,-0.016488,-0.654495,-1.300777,0.577178,-0.417272,1.297159,-0.324409,-6.377742
1790542154.2867,-0.020436,0.004562,-0.664391,-0.016912,-0.001753,-0.664391,-0.903752,0.928065,-0.487692,-2.229015,1.943571,-5.174595
1790542154.3009,-0.034428,0.014170,-0.675015,-0.029173,0.009393,-0.675015,-0.548008,1.102902,-0.391775,-0.350944,3.467951,-8.395923
1790542154.3148,-0.022700,0.002965,-0.668062,-0.024642,0.004893,-0.668062,0.720770,-0.825156,0.245649,-2.114032,0.642271,-17.128441
1790542154.3288,-0.019606,-0.000220,-0.656857,-0.021117,0.001314,-0.656857,0.282465,-0.511907,0.777444,2.638638,2.687171,-9.948371
1790542154.3428,-0.019775,-0.009080,-0.637270,-0.020177,-0.005962,-0.637270,0.604212,-0.329786,1.294668,1.833751,0.976891,-8.745224
1790542154.3567,-0.016438,-0.024870,-0.624970,-0.017560,-0.019197,-0.624970,1.064372,-0.118525,0.693668,-2.918919,0.196111,-7.115154
1790542154.3706,-0.034891,-0.034350,-0.617535,-0.029692,-0.029805,-0.617535,0.766907,1.019126,0.826009,2.600310,1.906391,-6.532986
1790542154.3845,-0.049873,-0.047780,-0.606215,-0.043819,-0.042387,-0.606215,0.907748,0.963275,0.874575,0.415615,0.679451,-10.918651
1790542154.3981,-0.066124,-0.054274,-0.595632,-0.059432,-0.050708,-0.595632,0.475513,1.147825,0.965636,-0.427600,1.534591,-9.366203
1790542154.4118,-0.067691,-0.058612,-0.581570,-0.065213,-0.056241,-0.581570,0.263038,0.144944,1.012987,-2.152360,1.162791,-11.112707
1790542154.4264,-0.074354,-0.060239,-0.567662,-0.071612,-0.059040,-0.567662,0.085774,0.341635,1.032414,0.568927,1.348691,-8.784035
1790542154.4404,-0.070169,-0.060139,-0.554325,-0.070602,-0.059809,-0.554325,-0.099990,-0.344356,0.852721,-0.427600,0.456371,-13.130889
1790542154.4543,-0.068383,-0.057107,-0.541631,-0.069049,-0.057918,-0.541631,-0.274827,-0.349212,0.883074,4.056774,1.497411,-16.002917
1790542154.4682,-0.065499,-0.047782,-0.530189,-0.066564,-0.050823,-0.530189,-0.805407,-0.423275,0.657244,3.596838,-0.621849,-13.092077
1790542154.4822,-0.056281,-0.038613,-0.518435,-0.059366,-0.042276,-0.518435,-0.850330,-0.906503,0.506690,2.830278,-1.402628,-8.007811
1790542154.4960,-0.039001,-0.024761,-0.507840,-0.045110,-0.030015,-0.507840,-1.111370,-1.424942,0.476336,1.067191,-0.026969,-6.028441
1790542154.5100,-0.035632,-0.009010,-0.505972,-0.038476,-0.015312,-0.505972,-1.289849,-0.661247,0.240793,4.631693,-1.030829,-5.601518
1790542154.5238,-0.023370,0.005710,-0.499550,-0.027901,-0.000597,-0.499550,-1.157508,-1.036417,0.165516,1.833751,0.233291,-9.831937
1790542154.5377,-0.031609,0.005215,-0.497414,-0.030496,0.003472,-0.497414,-0.153412,0.433909,-0.084597,6.241469,-2.889828,-18.680889
1790542154.5515,-0.037279,-0.002748,-0.506131,-0.035244,-0.000882,-0.506131,0.548362,0.677952,-0.922355,-2.612295,1.869211,-18.059910
1790542154.5656,-0.024553,-0.008249,-0.530483,-0.027761,-0.006039,-0.530483,0.605426,-0.460913,-1.417725,-3.225543,4.062831,-7.192776
1790542154.5794,-0.028823,-0.009947,-0.560620,-0.028504,-0.008774,-0.560620,0.442731,0.335564,-0.810654,0.952207,3.356411,-4.087881
1790542154.5932,-0.029081,-0.016671,-0.573128,-0.028908,-0.014302,-0.573128,0.593285,0.171655,-0.609107,-0.350944,1.311511,-4.049070
1790542154.6071,-0.010372,-0.032590,-0.579273,-0.015933,-0.027104,-0.579273,1.159075,-1.001206,-0.845864,-4.452038,1.646131,-10.258860
1790542154.6207,0.001156,-0.047913,-0.593859,-0.003971,-0.041670,-0.593859,1.133578,-0.680673,-1.116618,-0.695896,1.794851,-10.996273
1790542154.6343,0.012514,-0.050890,-0.612512,0.007569,-0.048124,-0.612512,0.310390,-0.713455,-1.176111,-0.082648,2.947431,-9.172147
1790542154.6478,0.018577,-0.051748,-0.625259,0.015275,-0.050661,-0.625259,0.059063,-0.386851,-0.930854,0.377287,1.646131,-10.142427
1790542154.6619,0.020462,-0.058799,-0.637024,0.018906,-0.056357,-0.637024,0.492511,0.013816,-0.792442,-1.539112,1.646131,-11.229140
1790542154.6762,0.009506,-0.062566,-0.649060,0.012326,-0.060704,-0.649060,0.265467,0.936564,-0.679527,-2.535639,2.092291,-13.092077
1790542154.6902,-0.001071,-0.052235,-0.655312,0.002948,-0.054776,-0.655312,-0.738629,0.953562,-0.354137,-3.953775,1.943571,-14.101168
1790542154.7042,-0.007462,-0.037032,-0.657538,-0.004339,-0.042355,-0.657538,-1.208502,0.730160,-0.412416,-4.452038,-0.733389,-11.345574
1790542154.7183,-0.012501,-0.022771,-0.656618,-0.010052,-0.028646,-0.656618,-1.192718,0.641528,-0.312856,-3.417183,-1.476988,-7.736133
1790542154.7322,-0.020731,-0.007502,-0.660658,-0.017528,-0.013845,-0.660658,-1.198789,0.715590,-0.299500,-0.695896,-0.026969,-6.183686
1790542154.7463,-0.025392,0.002239,-0.658628,-0.023033,-0.002586,-0.658628,-0.901324,0.629386,-0.180514,-3.033903,-1.476988,-6.261308
1790542154.7604,-0.030366,0.011283,-0.662171,-0.028166,0.007122,-0.662171,-0.614786,0.449693,-0.248506,-1.079176,3.616671,-16.041728
1790542154.7742,-0.018834,0.004890,-0.655774,-0.021633,0.005559,-0.655774,0.401451,-0.953855,0.375563,1.028863,1.423051,-18.253966
1790542154.7881,-0.021172,-0.000647,-0.647002,-0.021310,0.001215,-0.647002,0.383238,-0.199873,0.920712,5.091629,1.980751,-13.945924
1790542154.8021,-0.028048,-0.011825,-0.639117,-0.026026,-0.007913,-0.639117,0.737768,0.160728,0.852721,1.297159,0.196111,-3.738581
1790542154.8159,-0.038561,-0.023597,-0.636853,-0.034801,-0.018892,-0.636853,0.906534,0.521328,0.527330,1.948735,1.571771,-6.261308
1790542154.8298,-0.050881,-0.038657,-0.632735,-0.046057,-0.032728,-0.632735,1.089869,0.687665,0.573468,2.025391,1.348691,-8.240679
1790542154.8439,-0.066936,-0.049611,-0.626847,-0.060672,-0.044546,-0.626847,0.866467,0.994843,0.761660,1.335487,3.021791,-9.249770
1790542154.8576,-0.085960,-0.056234,-0.617253,-0.078374,-0.052728,-0.617253,0.510723,1.283809,0.965636,0.683911,2.278191,-9.637881
1790542154.8713,-0.088714,-0.063818,-0.601050,-0.085612,-0.060491,-0.601050,0.487655,0.171655,1.106476,-0.964192,1.460231,-11.733686
1790542154.8854,-0.095363,-0.067728,-0.588092,-0.092437,-0.065557,-0.588092,0.229042,0.416912,0.947424,0.070663,1.237151,-9.405014
1790542154.8993,-0.084149,-0.073415,-0.571948,-0.086635,-0.071058,-0.571948,0.292178,-0.796016,0.895215,-1.424128,0.233291,-13.053266
1790542154.9135,-0.075320,-0.069038,-0.561244,-0.078715,-0.069644,-0.561244,-0.363459,-0.783875,0.739805,2.638638,1.162791,-12.975644
1790542154.9282,-0.068836,-0.060429,-0.547599,-0.071800,-0.063194,-0.547599,-0.795693,-0.641820,0.679098,3.136902,-2.294948,-11.384385
1790542154.9422,-0.064278,-0.049142,-0.537229,-0.066534,-0.053358,-0.537229,-0.994813,-0.619966,0.601393,4.095102,-1.625708,-8.978091
1790542154.9562,-0.055672,-0.031637,-0.529520,-0.058930,-0.038153,-0.529520,-1.406407,-0.948998,0.511547,3.558510,-0.696209,-6.921098
1790542154.9703,-0.045302,-0.016906,-0.519289,-0.049390,-0.023280,-0.519289,-1.241284,-1.070413,0.461767,3.328542,-1.216729,-6.494175
1790542154.9842,-0.030937,-0.003935,-0.516378,-0.036473,-0.009739,-0.516378,-0.987528,-1.336310,0.376777,2.715294,0.567911,-6.727042
1790542154.9980,-0.016794,0.007638,-0.512270,-0.022698,0.002425,-0.512270,-0.934106,-1.286530,0.170373,2.255358,0.047391,-6.067252
1790542155.0119,-0.033192,0.002048,-0.515840,-0.030044,0.002161,-0.515840,0.332245,1.136898,-0.144090,3.366870,1.125611,-20.931938
1790542155.0258,-0.030814,-0.007731,-0.532507,-0.030583,-0.004764,-0.532507,0.766907,0.076952,-1.154256,-1.347472,4.137191,-16.546273
1790542155.0396,-0.025001,-0.013739,-0.547059,-0.026676,-0.011046,-0.547059,0.596927,0.046598,-1.360661,-1.807408,1.720491,-3.738581
1790542155.0534,-0.028072,-0.014645,-0.569718,-0.027653,-0.013565,-0.569718,0.312818,0.200794,-0.571468,0.837223,2.352551,-3.816203
1790542155.0672,-0.024733,-0.024081,-0.571772,-0.025609,-0.020926,-0.571772,0.650350,-0.034749,-0.581181,-2.037376,0.976891,-10.646972
1790542155.0808,-0.005142,-0.040687,-0.575291,-0.011282,-0.034759,-0.575291,1.240423,-1.137190,-0.875004,-3.992103,1.794851,-11.112707
1790542155.0944,0.010684,-0.052891,-0.589153,0.004094,-0.047451,-0.589153,0.917461,-1.010920,-1.058339,-0.695896,1.794851,-9.443825
1790542155.1081,0.020370,-0.053593,-0.610871,0.015487,-0.051750,-0.610871,0.214473,-0.689172,-1.037699,0.913879,3.282051,-7.076343
1790542155.1219,0.022776,-0.052131,-0.630984,0.020590,-0.052017,-0.630984,0.052992,-0.116097,-0.932068,0.300631,3.096151,-6.610609
1790542155.1360,0.011576,-0.056898,-0.640904,0.014280,-0.055433,-0.640904,0.341958,0.907425,-0.544757,-1.424128,2.278191,-14.566903
1790542155.1498,-0.006481,-0.053404,-0.649849,-0.000253,-0.054013,-0.649849,-0.299109,1.410080,-0.601822,-1.117504,1.497411,-21.281238
1790542155.1637,-0.011540,-0.037939,-0.656062,-0.008154,-0.042761,-0.656062,-1.101657,0.622102,-0.567826,-3.685479,1.794851,-11.151518
1790542155.1781,-0.022549,-0.019837,-0.656954,-0.018231,-0.026714,-0.656954,-1.379696,1.047051,-0.579967,-1.960720,-0.398769,-5.756762
1790542155.1921,-0.023234,-0.002977,-0.653190,-0.021733,-0.010098,-0.653190,-1.331130,0.437552,-0.515618,-4.222071,-0.547489,-7.464455
1790542155.2060,-0.031186,0.008208,-0.657037,-0.028350,0.002716,-0.657037,-0.938962,0.817578,-0.527759,-1.615768,-0.398769,-7.231588
1790542155.2200,-0.034008,0.013452,-0.663010,-0.032310,0.010231,-0.663010,-0.357388,0.393843,-0.488906,-1.692424,2.278191,-11.190329
1790542155.2340,-0.029016,0.004750,-0.655865,-0.030005,0.006394,-0.655865,0.541077,-0.355283,0.311213,-1.769080,0.865351,-18.525644
1790542155.2479,-0.031521,-0.004209,-0.643605,-0.031066,-0.001028,-0.643605,0.586000,-0.000753,0.908571,0.645583,1.014071,-11.733686
1790542155.2617,-0.025419,-0.016914,-0.626844,-0.027113,-0.012148,-0.626844,0.783905,-0.590826,1.025129,-0.312616,-0.547489,-9.870749
1790542155.2755,-0.037268,-0.029139,-0.621897,-0.034222,-0.024042,-0.621897,0.991524,0.733803,0.614749,0.223975,0.865351,-2.535434
1790542155.2894,-0.052519,-0.040374,-0.616722,-0.047030,-0.035474,-0.616722,0.866467,0.974203,0.631747,1.067191,2.352551,-9.366203
1790542155.3032,-0.070301,-0.054737,-0.610214,-0.063320,-0.048958,-0.610214,1.037661,1.195177,0.660886,0.798895,1.571771,-10.220049
1790542155.3169,-0.094230,-0.063417,-0.603934,-0.084957,-0.059079,-0.603934,0.694059,1.544850,0.877003,2.485326,2.464091,-8.667602
1790542155.3306,-0.099231,-0.071693,-0.589518,-0.094949,-0.067909,-0.589518,0.565360,0.397485,0.974135,-1.270816,1.460231,-9.521448
1790542155.3444,-0.101542,-0.076046,-0.578590,-0.099564,-0.073605,-0.578590,0.344386,0.107305,0.845436,0.492271,2.687171,-10.297672
1790542155.3583,-0.092627,-0.078627,-0.563329,-0.094708,-0.077120,-0.563329,0.033566,-0.690386,0.948638,0.032335,-0.361589,-12.587532
1790542155.3722,-0.083178,-0.076653,-0.549273,-0.086637,-0.076793,-0.549273,-0.334319,-0.788732,0.887931,1.105519,-1.291089,-10.918651
1790542155.3860,-0.075354,-0.073297,-0.535742,-0.078739,-0.074346,-0.535742,-0.498229,-0.867651,1.028771,4.018446,-2.443668,-9.715504
1790542155.3999,-0.071599,-0.067444,-0.523038,-0.073741,-0.069515,-0.523038,-0.639069,-0.624822,1.074909,4.056774,-1.588528,-8.046623
1790542155.4141,-0.063964,-0.054033,-0.514773,-0.066897,-0.058678,-0.514773,-1.077374,-0.871293,0.799298,3.941790,-0.435949,-8.085434
1790542155.4285,-0.060517,-0.032194,-0.511896,-0.062431,-0.040139,-0.511896,-1.582458,-0.566544,0.520046,4.248414,0.344831,-7.930189
1790542155.4426,-0.046450,-0.008428,-0.508369,-0.051244,-0.017941,-0.508369,-1.774292,-1.267104,0.246864,3.405198,0.196111,-8.124245
1790542155.4567,-0.034061,0.013914,-0.507779,-0.039216,0.004358,-0.507779,-1.581243,-1.258605,0.392561,4.516709,1.608951,-7.774944
1790542155.4708,-0.043368,0.017413,-0.508616,-0.042122,0.013497,-0.508616,-0.210477,0.438766,0.488478,2.561982,2.501271,-9.521448
1790542155.4847,-0.059429,0.002298,-0.512153,-0.054237,0.005658,-0.512153,1.002451,1.220674,-0.473123,2.025391,0.158931,-19.030189
1790542155.4987,-0.040933,-0.007963,-0.515650,-0.044924,-0.003877,-0.515650,0.956314,-0.826370,-1.102048,-5.525222,4.769251,-7.774944
1790542155.5127,-0.049973,-0.016437,-0.542088,-0.048458,-0.012669,-0.542088,0.985453,0.498259,-0.569040,2.255358,3.653851,-3.234035
1790542155.5266,-0.050021,-0.028941,-0.548663,-0.049552,-0.024060,-0.548663,0.927174,0.057525,-0.378420,0.300631,1.534591,-8.745224
1790542155.5404,-0.034535,-0.044990,-0.549626,-0.039040,-0.038711,-0.549626,1.187001,-0.905289,-0.476765,-3.302199,1.832031,-12.354665
1790542155.5540,-0.021407,-0.060471,-0.557968,-0.026697,-0.053943,-0.557968,1.108081,-0.737738,-1.000060,-1.692424,0.567911,-9.482637
1790542155.5676,-0.010696,-0.063408,-0.575624,-0.015496,-0.060569,-0.575624,0.535006,-0.683101,-0.753589,-0.350944,3.951291,-5.291028
1790542155.5816,-0.002702,-0.070918,-0.586779,-0.006540,-0.067813,-0.586779,0.556861,-0.514335,-0.766945,0.108991,1.274331,-8.784035
1790542155.5955,-0.007377,-0.077116,-0.598625,-0.007126,-0.074325,-0.598625,0.661277,0.528613,-0.482836,-2.957247,5.326951,-10.297672
1790542155.6093,-0.022761,-0.067550,-0.606947,-0.018070,-0.069583,-0.606947,-0.760483,1.176964,-0.725664,0.338959,-0.064149,-17.594175
1790542155.6232,-0.020852,-0.051943,-0.600634,-0.020017,-0.057235,-0.600634,-1.263138,0.260287,-0.662529,-7.020013,-1.700068,-11.112707
1790542155.6371,-0.033138,-0.032233,-0.604803,-0.029202,-0.039734,-0.604803,-1.507181,1.184249,-0.565397,-2.957247,-0.212869,-8.046623
1790542155.6510,-0.040214,-0.015149,-0.600439,-0.036910,-0.022524,-0.600439,-1.522965,0.659740,-0.382062,-0.657568,-1.923148,-5.135783
1790542155.6650,-0.045666,0.006461,-0.599757,-0.043040,-0.002234,-0.599757,-1.603098,0.889213,-0.521688,-3.225543,0.047391,-3.855014
1790542155.6795,-0.051632,0.019338,-0.606398,-0.049054,0.012866,-0.606398,-0.935320,0.824863,-0.626105,-3.877119,0.344831,-7.425644
1790542155.6936,-0.040488,0.003977,-0.605078,-0.043058,0.006644,-0.605078,1.023091,-0.646677,-0.140448,-3.532167,0.902531,-17.361308
1790542155.7077,-0.032004,-0.001894,-0.599704,-0.035320,0.000667,-0.599704,0.450016,-0.763235,0.368278,1.642111,2.426911,-9.909560
1790542155.7217,-0.032999,-0.009145,-0.591737,-0.033695,-0.006201,-0.591737,0.469443,-0.188945,0.779872,2.638638,1.088431,-11.345574
1790542155.7357,-0.030831,-0.022509,-0.584278,-0.031690,-0.017617,-0.584278,0.923532,-0.326143,0.612320,1.297159,1.051251,-9.793126
1790542155.7497,-0.046267,-0.033390,-0.581921,-0.041894,-0.028658,-0.581921,0.822758,0.807865,0.634175,3.443526,1.980751,-8.279490
1790542155.7636,-0.056075,-0.046388,-0.572376,-0.051821,-0.041069,-0.572376,0.913819,0.595390,0.784729,0.568927,1.385871,-10.491728
1790542155.7773,-0.073238,-0.052533,-0.563208,-0.066813,-0.049094,-0.563208,0.555647,1.139326,0.900072,0.645583,2.612811,-7.270399
1790542155.7910,-0.081186,-0.053775,-0.548676,-0.076874,-0.052371,-0.548676,0.102772,0.574750,1.037270,-1.270816,2.278191,-9.715504
1790542155.8063,-0.088488,-0.054266,-0.532994,-0.085004,-0.053698,-0.532994,0.010497,0.436338,1.026343,-0.427600,1.237151,-6.338930
1790542155.8212,-0.091183,-0.056756,-0.519321,-0.089329,-0.055838,-0.519321,0.063919,0.113376,0.909785,0.070663,0.419191,-9.676693
1790542155.8355,-0.085335,-0.060419,-0.509174,-0.086533,-0.059045,-0.509174,0.323746,-0.428131,0.605036,-0.197632,2.873071,-9.249770
1790542155.8505,-0.078048,-0.054228,-0.499148,-0.080594,-0.055673,-0.499148,-0.427808,-0.734095,0.659672,5.244941,2.426911,-13.751868
1790542155.8646,-0.060975,-0.037033,-0.488362,-0.066860,-0.042625,-0.488362,-1.291063,-1.373948,0.617177,1.987063,0.828171,-11.384385
1790542155.8783,-0.055684,-0.025902,-0.479983,-0.059037,-0.030919,-0.479983,-1.040950,-0.707384,0.532187,5.129957,-2.480848,-10.957462
1790542155.8925,-0.043476,-0.007645,-0.474339,-0.048144,-0.014627,-0.474339,-1.355413,-1.082554,0.331854,1.872079,0.382011,-6.144874
1790542155.9065,-0.029458,0.009340,-0.469762,-0.035064,0.002150,-0.469762,-1.274065,-1.292601,0.273575,2.906934,0.642271,-7.153965
1790542155.9208,-0.037595,0.007560,-0.466948,-0.036836,0.005937,-0.466948,0.076061,0.489760,0.248078,1.565455,1.720491,-17.128441
1790542155.9352,-0.042889,-0.003751,-0.478492,-0.041073,-0.000845,-0.478492,0.915033,0.583249,-0.620034,-2.037376,4.769251,-12.238231
1790542155.9493,-0.031043,-0.010114,-0.493484,-0.034052,-0.007333,-0.493484,0.522865,-0.394135,-1.357018,-4.490366,2.687171,-10.802217
1790542155.9634,-0.035090,-0.018281,-0.511428,-0.034779,-0.014996,-0.511428,0.702558,0.414483,-1.055911,0.607255,2.464091,-6.998721
1790542155.9774,-0.028086,-0.028545,-0.518926,-0.030094,-0.024481,-0.518926,0.796047,-0.222941,-0.649173,-1.769080,1.274331,-5.485084
1790542155.9913,-0.009898,-0.044056,-0.527722,-0.015957,-0.038183,-0.527722,1.088655,-1.053415,-0.876218,-2.880591,0.902531,-11.151518
1790542156.0050,0.000209,-0.058680,-0.541538,-0.004641,-0.052531,-0.541538,1.110510,-0.639392,-1.061982,0.185647,2.092291,-10.025993
1790542156.0185,0.014519,-0.065118,-0.556318,0.008771,-0.061342,-0.556318,0.583572,-0.883435,-1.170040,-1.117504,2.910251,-8.667602
1790542156.0325,0.023738,-0.066317,-0.570176,0.019248,-0.064824,-0.570176,0.153766,-0.624822,-1.048626,0.645583,2.315371,-8.007811
1790542156.0464,-0.001493,-0.065281,-0.587104,0.004729,-0.065144,-0.587104,-0.112131,1.824102,-1.082622,2.983590,1.869211,-17.050819
1790542156.0602,-0.014134,-0.053847,-0.602124,-0.008475,-0.057236,-0.602124,-0.870970,1.179393,-0.944210,-4.413711,1.162791,-17.206063
1790542156.0741,-0.021267,-0.043869,-0.615444,-0.017430,-0.047879,-0.615444,-0.937748,0.755657,-0.952709,-2.382327,-2.964188,-11.423196
1790542156.0879,-0.026138,-0.033258,-0.627985,-0.023526,-0.037644,-0.627985,-0.949890,0.675524,-0.922355,-2.267343,-1.328269,-6.765853
1790542156.1018,-0.029689,-0.012877,-0.636330,-0.027840,-0.020307,-0.636330,-1.530249,0.645170,-0.723236,-2.842263,0.196111,-5.795574
1790542156.1157,-0.030420,0.011341,-0.642173,-0.029646,0.001846,-0.642173,-1.733011,0.296711,-0.516832,-1.232488,0.865351,-4.902916
1790542156.1297,-0.039842,0.026113,-0.651000,-0.036783,0.018833,-0.651000,-1.155080,1.002128,-0.465838,-4.528694,0.084571,-12.315854
1790542156.1436,-0.021565,0.021999,-0.653819,-0.026130,0.021049,-0.653819,0.171978,-0.997564,-0.403917,-6.713389,-0.547489,-14.644525
1790542156.1576,-0.021179,0.015516,-0.653706,-0.022664,0.017176,-0.653706,0.371097,-0.276364,0.488478,2.523654,0.307651,-9.948371
1790542156.1716,-0.020506,0.008977,-0.644249,-0.021153,0.011436,-0.644249,0.385667,-0.231440,0.872147,0.377287,0.567911,-11.462007
1790542156.1861,-0.007964,-0.000762,-0.624381,-0.011921,0.002898,-0.624381,0.726841,-0.650319,0.439912,-2.918919,1.274331,-4.670049
1790542156.2002,-0.017628,-0.007840,-0.621295,-0.015916,-0.004618,-0.621295,0.528936,0.592962,0.334282,0.875551,2.278191,-11.112707
1790542156.2141,-0.028933,-0.018437,-0.618179,-0.025028,-0.014291,-0.618179,0.763265,0.716805,0.401060,1.067191,2.203831,-13.790679
1790542156.2280,-0.046000,-0.023750,-0.609711,-0.039708,-0.020912,-0.609711,0.492511,1.091975,0.552827,1.182175,3.021791,-8.512357
1790542156.2417,-0.056349,-0.024939,-0.598099,-0.051357,-0.023731,-0.598099,0.190190,0.658526,0.658458,0.492271,3.021791,-8.589979
1790542156.2553,-0.058217,-0.027548,-0.589117,-0.056159,-0.026403,-0.589117,0.150123,0.064810,0.694882,-0.044320,1.162791,-9.831937
1790542156.2693,-0.063690,-0.029246,-0.582208,-0.061431,-0.028393,-0.582208,0.057848,0.260287,0.675456,0.875551,0.679451,-8.357112
1790542156.2833,-0.066090,-0.029520,-0.572597,-0.064692,-0.029182,-0.572597,0.025067,0.047812,0.649959,0.952207,1.832031,-9.172147
1790542156.2972,-0.064233,-0.028784,-0.561574,-0.064371,-0.028904,-0.561574,0.011711,-0.301861,0.617177,1.565455,2.612811,-8.512357
1790542156.3112,-0.048762,-0.022899,-0.548923,-0.053445,-0.024701,-0.548923,-0.289396,-1.129906,0.418058,-0.619240,5.215411,-12.393476
1790542156.3251,-0.038481,-0.017717,-0.537151,-0.042970,-0.019812,-0.537151,-0.381671,-0.969639,0.733735,2.255358,1.943571,-11.112707
1790542156.3389,-0.026959,-0.010425,-0.527084,-0.031762,-0.013241,-0.527084,-0.521297,-1.019419,0.573468,1.642111,2.092291,-11.112707
1790542156.3535,-0.022576,-0.001197,-0.524260,-0.025332,-0.004810,-0.524260,-0.719203,-0.612681,0.447197,4.095102,0.121751,-9.443825
1790542156.3678,-0.010309,0.012089,-0.522221,-0.014816,0.007019,-0.522221,-0.941391,-1.043701,0.069599,2.332014,1.460231,-8.822846
1790542156.3816,-0.021210,0.014996,-0.528900,-0.019292,0.012603,-0.528900,-0.311251,0.588106,-0.114951,5.513237,0.084571,-13.674245
1790542156.3957,-0.024988,0.011730,-0.541819,-0.023280,0.011992,-0.541819,0.232685,0.441194,-0.859220,-0.082648,2.352551,-13.208511
1790542156.4095,-0.012466,0.004811,-0.557720,-0.015710,0.006965,-0.557720,0.586000,-0.487624,-1.342448,-3.263871,3.207691,-9.521448
1790542156.4238,-0.022302,-0.002975,-0.571732,-0.020324,0.000007,-0.571732,0.612711,0.691308,-0.828866,2.102047,2.278191,-7.658511
1790542156.4381,-0.022716,-0.011589,-0.584633,-0.021999,-0.008110,-0.584633,0.570216,0.206865,-0.876218,-0.427600,0.828171,-8.240679
1790542156.4521,-0.008343,-0.022070,-0.597886,-0.012440,-0.017882,-0.597886,0.755980,-0.796016,-1.104477,-1.385800,1.646131,-10.103616
1790542156.4657,-0.002612,-0.031628,-0.615097,-0.005561,-0.027505,-0.615097,0.694059,-0.267865,-1.306024,0.300631,1.311511,-8.124245
1790542156.4794,0.006219,-0.036850,-0.630656,0.002685,-0.034046,-0.630656,0.420877,-0.481554,-1.239246,-0.197632,1.646131,-6.843476
1790542156.4934,0.014619,-0.040578,-0.645613,0.011039,-0.038618,-0.645613,0.212044,-0.505836,-1.125117,0.377287,0.716631,-7.658511
1790542156.5075,0.026003,-0.047607,-0.656913,0.021514,-0.044910,-0.656913,0.468228,-0.683101,-0.899287,-0.772552,1.237151,-9.987182
1790542156.5215,0.004806,-0.051372,-0.672705,0.009818,-0.049433,-0.672705,0.225400,1.666264,-0.935711,-1.424128,2.389731,-21.281238
1790542156.5354,-0.010251,-0.036101,-0.685502,-0.004230,-0.040101,-0.685502,-1.098015,1.425864,-0.720808,-5.831846,1.980751,-12.820399
1790542156.5493,-0.009450,-0.022530,-0.700376,-0.007884,-0.027801,-0.700376,-1.196360,0.314924,-0.719593,-4.260399,-2.109048,-8.240679
1790542156.5633,-0.013093,-0.008596,-0.712387,-0.011531,-0.014358,-0.712387,-1.193932,0.631815,-0.592109,-2.420655,-0.956469,-4.631238
1790542156.5772,-0.020080,0.004656,-0.720722,-0.017515,-0.001048,-0.720722,-1.133225,0.759300,-0.287359,-2.267343,-0.956469,-6.416553
1790542156.5911,-0.024925,0.015931,-0.726352,-0.022702,0.010837,-0.726352,-0.930463,0.529827,-0.221795,-1.730752,-0.064149,-8.085434
1790542156.6050,-0.024480,0.013178,-0.730281,-0.023946,0.012476,-0.730281,0.031137,0.057525,0.038031,-2.918919,-1.700068,-18.370399
1790542156.6189,-0.024336,0.008701,-0.724115,-0.024219,0.009834,-0.724115,0.328602,-0.357711,0.782300,4.555037,2.612811,-12.781588
1790542156.6327,-0.028062,0.002142,-0.716185,-0.026909,0.004449,-0.716185,0.395380,-0.107598,1.122260,3.750150,0.642271,-12.199420
1790542156.6466,-0.025175,-0.012273,-0.704807,-0.025695,-0.007256,-0.704807,0.983025,-0.355283,0.870933,0.032335,0.753811,-8.784035
1790542156.6607,-0.040587,-0.023129,-0.698926,-0.036120,-0.018367,-0.698926,0.845827,0.714376,0.727664,2.906934,1.571771,-5.058161
1790542156.6747,-0.055028,-0.036000,-0.690465,-0.049355,-0.030710,-0.690465,0.884679,0.923209,0.795656,0.492271,1.014071,-9.793126
1790542156.6893,-0.074599,-0.046473,-0.677215,-0.067026,-0.041744,-0.677215,0.754766,1.179393,1.000846,1.258831,2.538451,-9.676693
1790542156.7031,-0.081609,-0.050062,-0.660411,-0.077234,-0.047567,-0.660411,0.244826,0.431481,1.070052,-0.274288,2.241011,-11.423196
1790542156.7169,-0.086917,-0.052133,-0.642252,-0.084012,-0.050763,-0.642252,0.156194,0.276071,1.156256,0.262303,2.278191,-9.172147
1790542156.7309,-0.093165,-0.054791,-0.628678,-0.090419,-0.053583,-0.628678,0.119770,0.254216,1.091907,1.795423,1.199971,-9.676693
1790542156.7450,-0.076867,-0.054121,-0.611981,-0.080933,-0.053960,-0.611981,-0.002859,-1.312027,0.880646,1.680439,3.653851,-11.656063
1790542156.7590,-0.061635,-0.044551,-0.600218,-0.067424,-0.047374,-0.600218,-0.711918,-1.161473,0.659672,0.147319,1.943571,-12.975644
1790542156.7728,-0.054214,-0.035253,-0.594699,-0.058177,-0.038889,-0.594699,-0.870970,-0.809372,0.609892,4.018446,-1.923148,-11.112707
1790542156.7867,-0.046033,-0.020210,-0.589996,-0.049676,-0.025814,-0.589996,-1.243712,-0.956283,0.450839,4.440053,-0.882109,-7.774944
1790542156.8005,-0.042204,-0.002366,-0.586906,-0.044445,-0.009400,-0.586906,-1.407621,-0.674602,0.255363,4.018446,-0.287229,-5.562707
1790542156.8143,-0.035960,0.011836,-0.583622,-0.038506,0.005465,-0.583622,-1.145366,-0.794802,0.231080,3.941790,-0.250049,-6.998721
1790542156.8281,-0.026530,0.023300,-0.582023,-0.030123,0.017949,-0.582023,-0.863685,-0.991493,0.222581,3.175230,0.976891,-6.998721
1790542156.8419,-0.035281,0.021893,-0.587069,-0.033733,0.020710,-0.587069,0.083345,0.571108,-0.107666,3.021918,2.724351,-17.322497
1790542156.8557,-0.037572,0.010512,-0.593791,-0.036420,0.013571,-0.593791,0.821544,0.498259,-0.945424,-3.838791,2.612811,-16.895574
1790542156.8695,-0.022485,-0.002993,-0.598361,-0.026665,0.001976,-0.598361,0.987881,-0.579899,-1.463863,-5.525222,1.869211,-11.656063
1790542156.8833,-0.024988,-0.011058,-0.614019,-0.025491,-0.007148,-0.614019,0.770550,0.199580,-0.729307,0.798895,2.092291,-4.165504
1790542156.8972,-0.019961,-0.021035,-0.616327,-0.021620,-0.016869,-0.616327,0.701344,-0.094242,-0.657672,-2.765607,1.088431,-9.715504
1790542156.9112,0.004763,-0.039758,-0.620319,-0.003152,-0.032892,-0.620319,1.302344,-1.479578,-0.917499,-3.953775,1.237151,-12.898021
1790542156.9251,0.015938,-0.056819,-0.635271,0.010211,-0.049641,-0.635271,1.270776,-0.690386,-1.109333,-0.120976,1.943571,-8.395923
1790542156.9392,0.026791,-0.062629,-0.651067,0.021817,-0.058733,-0.651067,0.519222,-0.754736,-0.985491,0.875551,2.947431,-8.046623
1790542156.9534,0.036013,-0.067933,-0.663700,0.031754,-0.065173,-0.663700,0.367455,-0.599325,-0.873790,0.070663,1.423051,-8.745224
1790542156.9673,0.024821,-0.081461,-0.676122,0.026901,-0.076575,-0.676122,0.934459,0.915924,-0.837365,-1.692424,1.943571,-17.982287
1790542156.9812,0.016237,-0.075907,-0.682280,0.019436,-0.076107,-0.682280,-0.471518,0.857645,-0.691668,-5.256926,0.382011,-15.925294
1790542156.9952,0.009348,-0.067341,-0.688674,0.012375,-0.069971,-0.688674,-0.788409,0.688879,-0.685598,-3.148887,-2.109048,-13.053266
1790542157.0091,0.005814,-0.056618,-0.686907,0.007782,-0.060623,-0.686907,-0.969316,0.656097,-0.521688,-4.260399,-1.588528,-5.912007
1790542157.0230,0.002877,-0.036407,-0.687476,0.004349,-0.043672,-0.687476,-1.604312,0.504330,-0.337139,-3.340527,-0.919289,-7.115154
1790542157.0368,-0.000235,-0.014697,-0.687822,0.001140,-0.023389,-0.687822,-1.703872,0.399914,-0.112522,-1.884064,-0.435949,-6.765853
1790542157.0507,-0.003063,0.007826,-0.689012,-0.001802,-0.001538,-0.689012,-1.825286,0.364703,0.034389,-2.497311,-1.551348,-8.318301
1790542157.0646,-0.017638,0.028403,-0.696012,-0.012887,0.019421,-0.696012,-1.737868,1.175750,0.052601,-1.769080,-2.109048,-8.279490
1790542157.0786,-0.009582,0.028591,-0.687781,-0.010573,0.025840,-0.687781,-0.063566,-0.508265,0.181300,-2.075704,1.125611,-10.336483
1790542157.0926,-0.003580,0.014708,-0.692551,-0.005678,0.018047,-0.692551,0.854326,-0.721954,0.640246,2.561982,-0.659029,-11.267951
1790542157.1065,-0.014177,0.012540,-0.677607,-0.011627,0.014192,-0.677607,0.559289,0.494617,0.772587,1.833751,6.367990,-4.941727
1790542157.1206,-0.018677,0.012446,-0.660143,-0.016562,0.012970,-0.660143,0.259396,0.108519,0.944995,0.722239,5.587211,-8.007811
1790542157.1346,-0.023446,0.005609,-0.660218,-0.021381,0.007817,-0.660218,0.511938,-0.031107,0.693668,3.903462,1.943571,-8.589979
1790542157.1486,-0.038556,0.002065,-0.657228,-0.033403,0.003790,-0.657228,0.383238,0.749586,0.724021,2.983590,3.021791,-6.804665
1790542157.1620,-0.043192,-0.003181,-0.648509,-0.040255,-0.001089,-0.648509,0.430590,0.117018,0.826009,1.795423,2.761531,-10.375294
1790542157.1756,-0.046018,-0.004149,-0.638138,-0.044289,-0.003231,-0.638138,0.122198,0.012602,0.844222,1.258831,3.021791,-10.414105
1790542157.1899,-0.050781,0.001570,-0.626904,-0.048834,0.000130,-0.626904,-0.339176,0.115804,0.891573,1.220503,2.575631,-7.852567
1790542157.2040,-0.050841,0.002296,-0.615769,-0.050239,0.001646,-0.615769,-0.027142,-0.239939,0.880646,1.603783,2.278191,-8.512357
1790542157.2180,-0.054329,0.002508,-0.606832,-0.053102,0.002250,-0.606832,-0.015000,-0.022608,0.804155,2.638638,2.166651,-9.831937
1790542157.2320,-0.053714,0.009988,-0.597903,-0.053531,0.007667,-0.597903,-0.320964,-0.185303,0.608678,0.875551,5.624391,-8.551168
1790542157.2458,-0.046144,0.013475,-0.588469,-0.048360,0.011732,-0.588469,-0.171624,-0.644249,0.580753,-0.044320,4.732071,-12.936833
1790542157.2598,-0.042773,0.014192,-0.582183,-0.044449,0.013454,-0.582183,-0.067208,-0.390493,0.404702,2.025391,2.612811,-14.566903
1790542157.2737,-0.041060,0.012779,-0.580557,-0.042077,0.012981,-0.580557,0.080917,-0.179232,0.089025,0.990535,1.832031,-11.811308
1790542157.2876,-0.036793,0.019697,-0.585771,-0.038378,0.017683,-0.585771,-0.308823,-0.227798,-0.390561,-0.005993,4.100011,-7.619700
1790542157.3019,-0.033507,0.015038,-0.596453,-0.034968,0.015832,-0.596453,0.263038,-0.018966,-0.837365,-0.810880,0.567911,-10.258860
1790542157.3158,-0.022525,0.009075,-0.609210,-0.026258,0.011102,-0.609210,0.368669,-0.476697,-1.119046,-1.807408,0.605091,-9.443825
1790542157.3298,-0.018068,0.006059,-0.620307,-0.020525,0.007572,-0.620307,0.260610,-0.185303,-0.832509,0.147319,2.129471,-8.318301
1790542157.3437,-0.018398,0.001847,-0.631853,-0.019036,0.003564,-0.631853,0.235113,0.187439,-0.838579,-0.312616,0.753811,-12.354665
1790542157.3576,-0.013378,-0.005400,-0.645263,-0.015075,-0.002711,-0.645263,0.423305,-0.100313,-1.076551,-1.654096,0.084571,-11.850119
1790542157.3714,-0.011269,-0.010832,-0.663085,-0.012411,-0.008396,-0.663085,0.343172,0.050241,-1.292669,0.032335,0.790991,-8.434735
1790542157.3850,-0.008304,-0.017469,-0.681289,-0.009536,-0.014747,-0.681289,0.418449,-0.012895,-1.357018,-0.005993,0.419191,-6.843476
1790542157.3986,-0.003905,-0.019751,-0.697669,-0.005594,-0.018250,-0.697669,0.202331,-0.205943,-1.205250,0.530599,1.460231,-6.183686
1790542157.4125,0.006318,-0.027814,-0.710719,0.002745,-0.024945,-0.710719,0.497368,-0.617538,-1.032842,0.223975,0.419191,-10.375294
1790542157.4265,0.012532,-0.034950,-0.724825,0.009596,-0.031948,-0.724825,0.497368,-0.346784,-1.020701,0.415615,1.757671,-10.569350
1790542157.4413,0.003596,-0.035837,-0.737745,0.005396,-0.034670,-0.737745,0.204760,0.704663,-0.779086,-0.044320,4.917971,-10.608161
1790542157.4555,-0.014283,-0.026073,-0.752150,-0.008379,-0.028652,-0.752150,-0.679136,1.522995,-0.887145,-3.263871,2.798711,-14.838581
1790542157.4696,-0.022020,-0.010776,-0.762591,-0.017928,-0.016139,-0.762591,-1.175720,0.898926,-0.803369,-4.337055,0.010211,-11.345574
1790542157.4836,-0.028233,0.002541,-0.771191,-0.025142,-0.003063,-0.771191,-1.127154,0.930494,-0.819153,-3.723807,-1.142369,-5.523895
1790542157.4975,-0.037002,0.013351,-0.781405,-0.033444,0.008427,-0.781405,-0.955960,0.913496,-0.550828,-1.539112,-0.807749,-5.562707
1790542157.5114,-0.033311,0.021666,-0.781194,-0.033351,0.017694,-0.781194,-0.569863,0.175297,-0.586038,-3.417183,1.162791,-5.407462
1790542157.5256,-0.033194,0.006209,-0.780310,-0.033241,0.009654,-0.780310,0.889536,0.024744,0.450839,-2.152360,-1.811608,-11.267951
1790542157.5395,-0.038207,-0.001276,-0.768631,-0.036717,0.002003,-0.768631,0.511938,0.185010,0.944995,0.568927,2.017931,-13.169700
1790542157.5537,-0.037161,-0.011510,-0.749020,-0.037028,-0.007456,-0.749020,0.754766,-0.413562,1.373587,2.523654,3.133331,-11.850119
1790542157.5676,-0.035903,-0.023923,-0.735929,-0.036240,-0.018983,-0.735929,0.831257,-0.148879,0.909785,-1.002520,0.567911,-8.357112
1790542157.5815,-0.056690,-0.034914,-0.731387,-0.050555,-0.030135,-0.731387,0.752338,1.128399,0.961993,3.865134,0.865351,-8.085434
1790542157.5953,-0.076953,-0.049449,-0.721352,-0.069033,-0.043655,-0.721352,0.946600,1.280167,1.102834,1.565455,0.307651,-11.306763
1790542157.6092,-0.094922,-0.058543,-0.702739,-0.087155,-0.054077,-0.702739,0.679489,1.200033,1.221820,0.185647,2.278191,-8.473546
1790542157.6227,-0.106624,-0.064595,-0.683170,-0.100783,-0.061440,-0.683170,0.405093,0.826077,1.248531,-0.734224,2.092291,-10.841028
1790542157.6364,-0.100977,-0.067933,-0.664645,-0.100919,-0.065985,-0.664645,0.125840,-0.423275,1.178111,-1.309144,0.939711,-12.277042
1790542157.6502,-0.094248,-0.067751,-0.652631,-0.096249,-0.067221,-0.652631,-0.197121,-0.527691,0.989919,-0.350944,-0.696209,-11.073895
1790542157.6641,-0.088752,-0.070752,-0.646424,-0.091001,-0.069693,-0.646424,-0.047782,-0.548331,0.977777,1.603783,-2.406488,-11.112707
1790542157.6780,-0.084284,-0.076212,-0.640910,-0.086299,-0.074256,-0.640910,0.102772,-0.556830,1.061553,3.213558,-3.261628,-11.539630
1790542157.6922,-0.074347,-0.075042,-0.631303,-0.077932,-0.074806,-0.631303,-0.291825,-0.895576,1.060339,1.987063,-1.402628,-9.443825
1790542157.7064,-0.066779,-0.068617,-0.625038,-0.070125,-0.070474,-0.625038,-0.651211,-0.883435,0.983848,3.481854,-1.179549,-6.882287
1790542157.7205,-0.060353,-0.053295,-0.621059,-0.063285,-0.058448,-0.621059,-1.236427,-0.725596,0.687597,2.830278,-0.659029,-7.697322
1790542157.7344,-0.052015,-0.027925,-0.619338,-0.055396,-0.037082,-0.619338,-1.887207,-0.919859,0.458124,3.903462,0.493551,-7.969000
1790542157.7486,-0.043789,0.003218,-0.616985,-0.047271,-0.008872,-0.616985,-2.323084,-0.888291,0.300286,3.175230,-0.324409,-6.532986
1790542157.7626,-0.032093,0.033027,-0.613250,-0.036646,0.020458,-0.613250,-2.278161,-1.084982,0.221367,2.753622,-0.473129,-8.007811
1790542157.7765,-0.055064,0.014086,-0.604685,-0.049539,0.015997,-0.604685,1.143291,1.791320,-0.091882,-1.730752,-4.488568,-21.281238
1790542157.7904,-0.020257,-0.000359,-0.575798,-0.029042,0.004548,-0.575798,1.208855,-2.096363,-0.571468,-12.040979,9.900090,-18.331588
1790542157.8043,-0.037649,-0.002437,-0.591902,-0.035067,-0.000342,-0.591902,0.539863,1.033696,-0.354137,6.049829,8.859050,-6.067252
1790542157.8182,-0.040880,-0.015649,-0.570650,-0.039136,-0.011057,-0.570650,0.838542,0.793296,-0.621248,-6.023486,-0.919289,-6.144874
1790542157.8322,-0.023646,-0.029255,-0.569017,-0.028293,-0.023796,-0.569017,0.985453,-0.944142,-0.669814,-3.685479,1.497411,-10.685784
1790542157.8457,-0.015669,-0.046448,-0.580738,-0.019456,-0.039652,-0.580738,1.188215,-0.483982,-0.821581,-0.044320,-0.026969,-10.297672
1790542157.8593,-0.005743,-0.048817,-0.588190,-0.009857,-0.046068,-0.588190,0.412378,-0.600540,-0.838579,-0.465928,3.914111,-6.727042
1790542157.8739,0.002807,-0.050605,-0.596223,-0.000992,-0.049244,-0.596223,0.192618,-0.496123,-0.720808,-0.389272,2.649991,-9.987182
1790542157.8888,0.014498,-0.053279,-0.601745,0.009851,-0.052068,-0.601745,0.243612,-0.639392,-0.688026,-1.577440,2.761531,-10.297672
1790542157.9032,0.009067,-0.059920,-0.601251,0.009302,-0.057565,-0.601251,0.630923,0.484903,-0.198727,-1.730752,4.211551,-9.405014
