t,imu_roll,imu_pitch,imu_yaw,lpf_roll,lpf_pitch,lpf_yaw,gyro_x,gyro_y,gyro_z,acc_x,acc_y,acc_z
1790543313.5714,-0.043896,-0.022739,0.021524,-0.013169,-0.006822,0.021524,-0.000669,-0.000707,0.008551,0.262303,1.348691,-9.793126
1790543313.5868,-0.029909,-0.030719,0.027762,-0.018191,-0.013991,0.027762,-0.001883,-0.001921,-0.006019,-0.044320,1.237151,-10.103616
1790543313.6006,-0.036568,-0.027446,0.024748,-0.023704,-0.018027,0.024748,0.013901,0.005363,-0.004805,0.300631,1.385871,-9.793126
1790543313.6145,-0.034178,-0.033343,0.027128,-0.026846,-0.022622,0.027128,0.021186,0.009006,-0.007233,0.070663,1.125611,-10.142427
1790543313.6286,-0.039514,-0.034363,0.024745,-0.030646,-0.026144,0.024745,0.006616,0.005363,-0.004805,0.415615,1.237151,-10.025993
1790543313.6431,-0.037187,-0.034745,0.026217,-0.032609,-0.028724,0.026217,-0.028594,-0.012849,-0.002377,0.070663,1.274331,-10.375294
1790543313.6588,-0.037420,-0.032349,0.025512,-0.034052,-0.029812,0.025512,-0.016453,0.006578,0.008551,0.185647,1.423051,-9.987182
1790543313.6734,-0.036336,-0.027752,0.025987,-0.034737,-0.029194,0.025987,-0.086873,0.012648,0.076543,0.070663,1.646131,-10.414105
1790543313.6877,-0.036917,-0.020303,0.026969,-0.035391,-0.026527,0.026969,-0.157293,0.007792,0.168817,0.185647,1.832031,-9.909560
1790543313.7028,-0.036186,-0.011128,0.030182,-0.035630,-0.021907,0.030182,-0.198574,-0.055344,0.329084,0.108991,2.017931,-9.637881
1790543313.7168,-0.038197,-0.011988,0.039526,-0.036400,-0.018931,0.039526,-0.100229,-0.118479,0.466282,0.453943,1.274331,-9.948371
1790543313.7305,-0.048152,-0.014137,0.053574,-0.039926,-0.017493,0.053574,-0.043164,0.035717,0.594981,1.067191,1.051251,-8.822846
1790543313.7445,-0.037985,-0.020980,0.069393,-0.039344,-0.018539,0.069393,-0.005526,-0.199827,0.659331,-0.772552,0.530731,-8.861658
1790543313.7584,-0.033028,-0.022005,0.080074,-0.037449,-0.019579,0.080074,-0.056520,-0.026204,0.552486,-0.580912,1.125611,-9.560259
1790543313.7724,-0.028625,-0.030558,0.083318,-0.034802,-0.022873,0.083318,-0.024952,-0.137905,0.371579,-0.465928,0.084571,-12.820399
1790543313.7864,-0.027681,-0.037969,0.080925,-0.032666,-0.027401,0.080925,0.007830,-0.100267,0.268377,0.070663,0.158931,-11.112707
1790543313.8004,-0.024027,-0.040308,0.089127,-0.030074,-0.031273,0.089127,0.069751,-0.126978,0.201599,-0.312616,1.014071,-10.220049
1790543313.8143,-0.025193,-0.042130,0.085059,-0.028610,-0.034530,0.085059,0.013901,-0.018919,0.108110,0.262303,0.939711,-10.220049
1790543313.8280,-0.025359,-0.041744,0.083727,-0.027634,-0.036695,0.083727,-0.020095,-0.015277,-0.013304,0.108991,1.051251,-8.628791
1790543313.8416,-0.025242,-0.036515,0.078538,-0.026917,-0.036641,0.078538,-0.123297,-0.168259,-0.081296,0.453943,1.794851,-9.249770
1790543313.8556,-0.026663,-0.032751,0.072113,-0.026841,-0.035474,0.072113,-0.135439,-0.080841,-0.043658,0.607255,1.720491,-10.297672
1790543313.8695,-0.028966,-0.028867,0.063094,-0.027478,-0.033492,0.063094,-0.147580,-0.159760,0.038904,1.028863,1.720491,-10.025993
1790543313.8834,-0.026114,-0.020561,0.058581,-0.027069,-0.029612,0.058581,-0.289635,-0.354023,0.093541,0.453943,2.278191,-9.560259
1790543313.8973,-0.023094,-0.007635,0.053371,-0.025877,-0.023019,0.053371,-0.549461,-0.556784,0.155462,1.028863,2.687171,-9.599070
1790543313.9113,-0.029312,-0.005110,0.055856,-0.026907,-0.017646,0.055856,-0.238641,0.256691,0.048617,1.067191,2.055111,-14.877392
1790543313.9256,-0.023653,-0.008093,0.048898,-0.025931,-0.014781,0.048898,0.611259,0.312541,-0.152930,-2.957247,3.579491,-11.578441
1790543313.9397,-0.021249,0.006442,0.067354,-0.024526,-0.008414,0.067354,0.349004,0.465523,-0.488034,-1.807408,5.438491,-6.455364
1790543313.9537,-0.007204,0.006993,0.024319,-0.019330,-0.003792,0.024319,0.100105,-0.380734,-0.774571,-2.267343,2.687171,-11.617252
1790543313.9677,0.002852,0.006523,-0.000727,-0.012675,-0.000697,-0.000727,0.070965,-0.354023,-0.954264,-1.309144,2.501271,-12.975644
1790543313.9816,-0.001264,0.006752,0.019064,-0.009252,0.001538,0.019064,0.070965,0.136491,-1.211662,1.220503,2.241011,-10.646972
1790543313.9956,-0.008842,0.006958,0.026595,-0.009129,0.003164,0.026595,-0.092944,0.423028,-1.165525,1.105519,1.385871,-9.715504
1790543314.0096,-0.010057,0.001685,-0.010636,-0.009407,0.002720,-0.010636,0.034541,0.431527,-1.184951,-0.619240,0.233291,-9.676693
1790543314.0234,-0.013001,0.000513,-0.031430,-0.010485,0.002058,-0.031430,0.055182,0.453382,-1.259014,-0.197632,1.534591,-9.909560
1790543314.0374,-0.013058,0.001353,-0.056265,-0.011257,0.001846,-0.056265,-0.051663,0.318612,-1.460561,-0.389272,1.683311,-9.754315
1790543314.0511,-0.022695,0.007478,-0.045916,-0.014689,0.003536,-0.045916,-0.276279,0.567511,-1.410782,1.412143,2.092291,-8.279490
1790543314.0647,-0.030644,0.009860,-0.055538,-0.019475,0.005433,-0.055538,-0.230142,0.656144,-1.268727,0.760567,1.348691,-9.482637
1790543314.0786,-0.029489,0.009931,-0.077150,-0.022479,0.006782,-0.077150,-0.107513,0.172915,-1.092676,-0.197632,1.088431,-9.366203
1790543314.0926,-0.027068,0.008630,-0.101115,-0.023856,0.007337,-0.101115,0.055182,0.142562,-0.977333,-0.542584,1.237151,-8.357112
1790543314.1066,-0.030910,0.012606,-0.114301,-0.025972,0.008917,-0.114301,-0.218000,0.455810,-0.888700,-0.005993,1.943571,-9.443825
1790543314.1205,-0.029477,0.019191,-0.132862,-0.027024,0.012000,-0.132862,-0.234998,0.242121,-0.917840,-0.964192,3.393591,-10.957462
1790543314.1344,-0.017811,0.002078,-0.143580,-0.024260,0.009023,-0.143580,1.076275,-0.778972,-0.672583,0.338959,1.237151,-15.808861
1790543314.1484,-0.026936,-0.002705,-0.067960,-0.025063,0.005505,-0.067960,1.048350,-0.181614,-0.052157,4.171758,4.992331,-7.076343
1790543314.1627,-0.037879,-0.009307,-0.065742,-0.028907,0.001061,-0.065742,0.385428,0.742348,0.272019,0.185647,1.534591,-14.101168
1790543314.1773,-0.035297,-0.012999,-0.064557,-0.030824,-0.003157,-0.064557,0.078250,-0.187685,0.591339,-0.427600,0.716631,-14.605714
1790543314.1920,-0.042491,-0.019893,-0.036978,-0.034324,-0.008178,-0.036978,0.261586,0.147418,1.032072,0.952207,0.158931,-6.804665
1790543314.2063,-0.032951,-0.021066,-0.067611,-0.033912,-0.012044,-0.067611,0.079464,-0.405017,1.152272,-1.692424,1.088431,-6.998721
1790543314.2208,-0.025525,-0.021635,-0.089890,-0.031396,-0.014922,-0.089890,-0.148794,-0.248392,0.992006,-1.960720,0.233291,-7.891378
1790543314.2356,-0.033846,-0.024614,-0.071772,-0.032131,-0.017829,-0.071772,-0.072303,0.256691,0.917943,1.488799,-0.473129,-11.229140
1790543314.2499,-0.040271,-0.031668,-0.058136,-0.034573,-0.021981,-0.058136,0.291939,0.251834,0.951939,0.837223,0.084571,-12.199420
1790543314.2640,-0.046486,-0.042553,-0.044220,-0.038147,-0.028152,-0.044220,0.586976,0.276117,1.039357,0.568927,0.158931,-11.345574
1790543314.2776,-0.049901,-0.049278,-0.036827,-0.041673,-0.034490,-0.036827,0.420638,0.430313,0.926442,-1.347472,0.716631,-8.784035
1790543314.2913,-0.047137,-0.049158,-0.028425,-0.043313,-0.038890,-0.028425,0.024828,0.131634,0.762533,-2.037376,1.199971,-7.891378
1790543314.3053,-0.046090,-0.050091,-0.024354,-0.044146,-0.042251,-0.024354,0.006616,0.039359,0.647189,-1.002520,0.828171,-9.870749
1790543314.3193,-0.042608,-0.051632,-0.020841,-0.043684,-0.045065,-0.020841,0.062466,-0.167045,0.506349,-0.734224,0.865351,-9.948371
1790543314.3332,-0.042882,-0.052103,-0.015193,-0.043444,-0.047176,-0.015193,0.033327,-0.012849,0.370365,0.185647,1.199971,-10.452916
1790543314.3472,-0.034417,-0.047067,0.005037,-0.040736,-0.047144,0.005037,-0.175505,-0.559213,0.349725,-0.542584,2.612811,-10.375294
1790543314.3612,-0.025298,-0.039280,0.007753,-0.036104,-0.044784,0.007753,-0.636879,-0.793542,0.340011,1.028863,0.902531,-13.441378
1790543314.3751,-0.018343,-0.028750,0.011754,-0.030776,-0.039974,0.011754,-0.894278,-0.895530,0.159104,3.136902,0.307651,-11.229140
1790543314.3891,-0.015539,-0.014785,0.028411,-0.026205,-0.032417,0.028411,-1.063043,-0.997518,-0.094651,4.286742,0.493551,-5.717951
1790543314.4031,-0.012729,-0.008819,0.025758,-0.022162,-0.025338,0.025758,-0.449902,-0.533716,-0.274345,2.485326,1.162791,-8.628791
1790543314.4173,-0.021482,-0.019244,0.024413,-0.021958,-0.023510,0.024413,0.596689,0.527445,-0.462537,1.527127,0.419191,-11.656063
1790543314.4319,-0.007438,-0.019800,-0.003140,-0.017602,-0.022397,-0.003140,0.187523,-0.519146,-1.104818,-3.340527,3.430771,-12.471098
1790543314.4461,-0.002427,-0.019195,-0.019519,-0.013049,-0.021436,-0.019519,-0.069875,-0.375877,-1.353717,2.063719,1.832031,-13.286133
1790543314.4604,-0.015920,-0.019735,-0.039493,-0.013911,-0.020926,-0.039493,0.119531,0.470380,-1.016185,3.750150,1.460231,-6.183686
1790543314.4745,0.006639,-0.025232,-0.056399,-0.007746,-0.022218,-0.056399,0.310151,-0.896744,-1.014971,-4.068759,0.493551,-7.192776
1790543314.4885,0.010775,-0.036297,-0.062750,-0.002189,-0.026441,-0.062750,0.627042,-0.272675,-1.144884,0.875551,0.233291,-11.966553
1790543314.5024,0.015294,-0.043471,-0.090548,0.003056,-0.031550,-0.090548,0.633113,-0.236251,-1.303937,0.223975,2.612811,-10.375294
1790543314.5162,0.023130,-0.048696,-0.104878,0.009078,-0.036694,-0.104878,0.342933,-0.579853,-1.289367,0.837223,1.199971,-9.715504
1790543314.5299,0.024241,-0.052489,-0.125664,0.013627,-0.041432,-0.125664,0.329578,-0.094196,-1.160668,0.683911,1.757671,-8.939280
1790543314.5440,0.029994,-0.061666,-0.136189,0.018537,-0.047502,-0.136189,0.593046,-0.318812,-0.898414,-0.465928,0.828171,-9.715504
1790543314.5582,0.017162,-0.060560,-0.154725,0.018124,-0.051420,-0.154725,-0.048021,1.022815,-0.711436,-1.155832,2.426911,-15.537182
1790543314.5722,0.011321,-0.050812,-0.166046,0.016083,-0.051238,-0.166046,-0.769221,0.736277,-0.551169,-4.298727,1.014071,-16.196973
1790543314.5862,0.015205,-0.043304,-0.150403,0.015820,-0.048857,-0.150403,-0.854211,0.348966,-0.400615,-4.528694,-1.476988,-6.765853
1790543314.6002,0.001878,-0.026374,-0.157639,0.011637,-0.042112,-0.157639,-1.192957,1.016744,-0.364191,-0.120976,0.679451,-4.087881
1790543314.6143,-0.014189,-0.008715,-0.164131,0.003890,-0.032093,-0.164131,-1.167460,1.058025,-0.287700,0.760567,1.534591,-6.494175
1790543314.6283,-0.014505,0.000210,-0.171975,-0.001629,-0.022402,-0.171975,-0.604098,0.142562,-0.422470,-0.810880,2.910251,-14.838581
1790543314.6423,-0.011733,-0.012024,-0.167890,-0.004660,-0.019289,-0.167890,0.702319,-0.231394,0.048617,0.262303,-0.287229,-20.078091
1790543314.6564,-0.020357,-0.011012,-0.163040,-0.009369,-0.016806,-0.163040,-0.023738,0.644002,0.548844,-1.117504,2.129471,-10.802217
1790543314.6706,-0.022250,-0.012703,-0.149915,-0.013233,-0.015575,-0.149915,0.021186,0.070927,0.944654,-0.657568,0.493551,-8.939280
1790543314.6851,-0.013101,-0.026802,-0.148489,-0.013194,-0.018943,-0.148489,0.602760,-0.277532,0.455355,-3.225543,-1.923148,-6.532986
1790543314.6991,-0.021247,-0.034388,-0.142024,-0.015610,-0.023576,-0.142024,0.455848,0.690140,0.370365,-0.427600,0.121751,-2.884734
1790543314.7133,-0.037907,-0.043082,-0.137705,-0.022299,-0.029428,-0.137705,0.600331,1.140586,0.468710,0.108991,1.237151,-11.656063
1790543314.7272,-0.042288,-0.050782,-0.118422,-0.028296,-0.035834,-0.118422,0.684107,0.229980,0.789244,0.223975,2.798711,-10.763406
1790543314.7408,-0.052516,-0.055219,-0.103540,-0.035562,-0.041650,-0.103540,0.420638,0.657358,0.769818,0.453943,1.906391,-8.784035
1790543314.7548,-0.054705,-0.056880,-0.084987,-0.041305,-0.046219,-0.084987,0.222733,0.214196,0.763747,-0.887536,1.980751,-8.318301
1790543314.7704,-0.056905,-0.060893,-0.070099,-0.045985,-0.050621,-0.070099,0.306509,0.148632,0.653260,-0.427600,1.683311,-9.249770
1790543314.7845,-0.051131,-0.063479,-0.068916,-0.047529,-0.054478,-0.068916,0.092820,-0.473009,0.483280,0.607255,0.344831,-13.984735
1790543314.7986,-0.045431,-0.058563,-0.074488,-0.046899,-0.055704,-0.074488,-0.464471,-0.611421,0.405575,2.255358,-0.064149,-11.229140
1790543314.8130,-0.041110,-0.050463,-0.081385,-0.045163,-0.054132,-0.081385,-0.674518,-0.608992,0.397076,2.446998,0.010211,-7.852567
1790543314.8270,-0.032253,-0.043525,-0.082909,-0.041290,-0.050949,-0.082909,-0.678160,-0.761974,0.326656,0.645583,-0.435949,-6.144874
1790543314.8410,-0.023425,-0.037335,-0.086447,-0.035930,-0.046865,-0.086447,-0.513037,-0.862748,0.244094,1.948735,0.456371,-9.133336
1790543314.8550,-0.013971,-0.027124,-0.091169,-0.029343,-0.040943,-0.091169,-0.820215,-0.936811,0.059545,2.983590,0.344831,-11.267951
1790543314.8693,-0.006312,-0.010052,-0.098132,-0.022434,-0.031675,-0.098132,-1.237880,-0.872461,-0.190569,3.826806,1.014071,-9.560259
1790543314.8833,-0.014438,-0.007386,-0.101673,-0.020035,-0.024388,-0.101673,-0.339415,0.418172,-0.552383,3.903462,-0.064149,-13.984735
1790543314.8973,-0.022651,-0.011363,-0.114398,-0.020820,-0.020481,-0.114398,0.318650,0.827338,-1.025898,-1.079176,2.538451,-13.208511
1790543314.9115,-0.001060,-0.013222,-0.129069,-0.014892,-0.018303,-0.129069,0.373287,-1.252488,-1.006472,-1.845736,4.508991,-9.831937
1790543314.9258,-0.008234,-0.014890,-0.149765,-0.012894,-0.017279,-0.149765,0.327149,0.278545,-0.678654,2.638638,2.798711,-6.377742
1790543314.9400,0.005121,-0.021738,-0.141338,-0.007490,-0.018617,-0.141338,0.402426,-0.640560,-0.736933,-2.535639,0.642271,-9.793126
1790543314.9540,0.020221,-0.026520,-0.156123,0.000824,-0.020988,-0.156123,0.424281,-0.866391,-0.858347,-1.615768,2.612811,-10.064805
1790543314.9677,0.023502,-0.032277,-0.176465,0.007627,-0.024375,-0.176465,0.504414,-0.153689,-0.999187,0.032335,2.166651,-8.085434
1790543314.9812,0.031575,-0.034344,-0.198230,0.014812,-0.027365,-0.198230,0.352646,-0.352808,-1.035612,-1.232488,2.724351,-6.416553
1790543314.9952,0.034817,-0.038329,-0.211494,0.020813,-0.030655,-0.211494,0.350218,-0.201041,-0.948193,0.300631,1.757671,-6.804665
1790543315.0093,0.040109,-0.048199,-0.223032,0.026602,-0.035918,-0.223032,0.662253,-0.275103,-0.809781,-0.657568,1.125611,-9.482637
1790543315.0232,0.026576,-0.047736,-0.235525,0.026594,-0.039463,-0.235525,-0.088087,1.138158,-0.659228,-2.803935,1.943571,-19.961658
1790543315.0372,0.025368,-0.034325,-0.232093,0.026226,-0.037922,-0.232093,-1.020548,0.472808,-0.412757,-7.173325,1.088431,-14.955014
1790543315.0513,0.028104,-0.021797,-0.200332,0.026790,-0.033084,-0.200332,-0.946486,0.437598,-0.321696,-5.678534,0.270471,-5.291028
1790543315.0656,0.019298,-0.006398,-0.210191,0.024542,-0.025079,-0.210191,-1.012049,0.854049,-0.303484,-1.462456,1.385871,-5.252217
1790543315.0796,0.005984,0.004278,-0.227347,0.018975,-0.016272,-0.227347,-0.880922,1.079879,-0.439468,-0.120976,0.084571,-1.603965
1790543315.0936,0.000523,0.008896,-0.241078,0.013439,-0.008721,-0.241078,-0.339415,0.674356,-0.599735,-3.340527,2.538451,-14.062357
1790543315.1077,0.003090,0.003090,-0.234440,0.010334,-0.005178,-0.234440,0.458277,-0.258105,-0.148074,1.718767,3.988471,-17.594175
1790543315.1219,-0.001770,0.010338,-0.214453,0.006703,-0.000523,-0.214453,-0.299348,0.307685,0.312086,-0.465928,4.955151,-11.151518
1790543315.1358,-0.008622,0.010045,-0.202371,0.002105,0.002647,-0.202371,-0.046806,0.158345,0.755248,2.446998,0.716631,-9.909560
1790543315.1498,-0.010411,0.002801,-0.196538,-0.001650,0.002693,-0.196538,0.449778,0.000507,0.802600,-0.159304,0.716631,-10.103616
1790543315.1638,-0.022702,-0.000335,-0.176221,-0.007965,0.001785,-0.176221,0.361145,0.453382,0.580412,3.673494,2.761531,-7.736133
1790543315.1783,-0.035488,-0.008176,-0.173700,-0.016222,-0.001203,-0.173700,0.537196,0.863762,0.625335,-0.657568,1.534591,-10.064805
1790543315.1930,-0.040101,-0.019406,-0.167712,-0.023386,-0.006664,-0.167712,0.714461,0.259119,0.784387,-0.580912,1.051251,-10.414105
1790543315.2067,-0.050205,-0.027820,-0.154741,-0.031432,-0.013011,-0.154741,0.569978,0.582081,0.989577,0.683911,1.125611,-10.685784
1790543315.2203,-0.051737,-0.030905,-0.151197,-0.037523,-0.018379,-0.151197,0.261586,0.152275,0.934941,-1.539112,1.980751,-9.210958
1790543315.2343,-0.050353,-0.033192,-0.140820,-0.041372,-0.022823,-0.140820,0.181452,-0.145190,0.886375,-0.427600,1.460231,-7.697322
1790543315.2483,-0.049984,-0.034449,-0.131420,-0.043956,-0.026311,-0.131420,0.080679,-0.096624,0.720038,0.032335,1.460231,-10.142427
1790543315.2622,-0.045491,-0.035793,-0.122127,-0.044416,-0.029155,-0.122127,0.058824,-0.414730,0.659331,0.415615,1.274331,-12.354665
1790543315.2763,-0.034716,-0.026741,-0.105887,-0.041506,-0.028431,-0.105887,-0.596813,-0.899172,0.642333,0.913879,2.947431,-13.596623
1790543315.2911,-0.030764,-0.017763,-0.092276,-0.038284,-0.025231,-0.092276,-0.775292,-0.572568,0.524561,3.558510,-0.956469,-10.685784
1790543315.3056,-0.019199,-0.004516,-0.079523,-0.032558,-0.019016,-0.079523,-0.995051,-1.075223,0.347296,2.102047,0.344831,-7.192776
1790543315.3198,-0.006862,0.009864,-0.072169,-0.024849,-0.010352,-0.072169,-1.050902,-1.195423,0.160318,2.025391,0.605091,-5.252217
1790543315.3340,-0.008818,0.014058,-0.065808,-0.020040,-0.003029,-0.065808,-0.339415,0.023576,0.178530,1.412143,1.646131,-14.217602
1790543315.3482,-0.015984,0.007208,-0.073172,-0.018823,0.000042,-0.073172,0.463133,0.608792,-0.423684,-0.657568,2.798711,-18.680889
1790543315.3622,0.000554,0.006791,-0.108732,-0.013010,0.002067,-0.108732,0.152313,-0.789900,-1.155812,-3.685479,4.211551,-11.656063
1790543315.3762,-0.009189,0.006310,-0.108707,-0.011864,0.003340,-0.108707,0.046683,0.382962,-1.011329,4.861661,1.385871,-5.912007
1790543315.3904,-0.005956,0.006779,-0.134605,-0.010091,0.004371,-0.134605,0.170525,-0.237465,-0.559668,0.453943,1.534591,-3.234035
1790543315.4044,0.007251,-0.002963,-0.151095,-0.004889,0.002171,-0.151095,0.595475,-0.612635,-0.760001,-3.685479,0.382011,-11.462007
1790543315.4183,0.016127,-0.018838,-0.169764,0.001416,-0.004132,-0.169764,1.177049,-0.465724,-1.004044,-0.734224,2.389731,-10.336483
1790543315.4322,0.025075,-0.022387,-0.191994,0.008514,-0.009608,-0.191994,0.432780,-0.524002,-1.296652,0.262303,3.542311,-7.542077
1790543315.4461,0.029278,-0.027101,-0.194283,0.014743,-0.014856,-0.194283,0.312580,-0.282388,-1.080535,0.990535,1.534591,-9.016902
1790543315.4608,0.037653,-0.036739,-0.223147,0.021616,-0.021421,-0.223147,0.612473,-0.306671,-1.124244,-2.075704,1.237151,-9.094525
1790543315.4751,0.048146,-0.047786,-0.242005,0.029575,-0.029331,-0.242005,0.729030,-0.570140,-0.989474,-1.385800,1.348691,-10.258860
1790543315.4893,0.034836,-0.047167,-0.256073,0.031153,-0.034681,-0.256073,-0.073518,1.032528,-0.713864,-1.194160,2.389731,-16.817952
1790543315.5033,0.030475,-0.035361,-0.279890,0.030950,-0.034885,-0.279890,-0.939201,0.669499,-0.638587,-6.368438,0.567911,-14.178791
1790543315.5173,0.027742,-0.024418,-0.280917,0.029988,-0.031745,-0.280917,-1.037546,0.467952,-0.497747,-3.800463,-2.183408,-11.073895
1790543315.5314,0.014754,-0.007447,-0.291360,0.025417,-0.024455,-0.291360,-1.271876,1.017958,-0.534171,-0.235960,0.456371,-4.825294
1790543315.5456,-0.005257,0.011461,-0.286754,0.016215,-0.013681,-0.286754,-1.189314,1.419839,-0.497747,0.377287,1.460231,-3.505713
1790543315.5596,-0.005370,0.017433,-0.296138,0.009739,-0.004347,-0.296138,-0.458401,0.126778,-0.349621,-1.692424,2.761531,-18.952567
1790543315.5735,-0.004469,0.010749,-0.287680,0.005477,0.000182,-0.287680,0.464347,-0.159760,0.077757,1.565455,2.575631,-17.167252
1790543315.5878,-0.009282,0.014964,-0.283468,0.001049,0.004617,-0.283468,-0.259281,0.284616,0.517276,-0.580912,2.315371,-10.414105
1790543315.6020,-0.008562,0.012682,-0.269552,-0.001834,0.007036,-0.269552,-0.010382,-0.179186,0.733393,-0.120976,-0.621849,-7.774944
1790543315.6160,-0.011398,0.007600,-0.269982,-0.004703,0.007205,-0.269982,0.308937,0.219052,0.144535,-0.542584,0.828171,-8.978091
1790543315.6301,-0.025914,0.002017,-0.254120,-0.011066,0.005649,-0.254120,0.381786,0.798198,0.366723,2.332014,1.274331,-8.784035
1790543315.6444,-0.034516,-0.006948,-0.250673,-0.018101,0.001870,-0.250673,0.610044,0.596651,0.591339,-1.002520,1.385871,-10.142427
1790543315.6581,-0.044399,-0.018799,-0.239005,-0.025991,-0.004331,-0.239005,0.823733,0.584509,0.896088,0.453943,1.237151,-11.462007
1790543315.6718,-0.054507,-0.023879,-0.227566,-0.034546,-0.010195,-0.227566,0.412139,0.611220,0.970151,0.262303,2.166651,-9.172147
1790543315.6861,-0.053119,-0.025461,-0.220498,-0.040118,-0.014775,-0.220498,0.121959,-0.113622,0.823240,-0.887536,1.646131,-8.395923
1790543315.7007,-0.051810,-0.026492,-0.209267,-0.043625,-0.018290,-0.209267,0.091606,-0.193756,0.686042,0.415615,1.757671,-8.706413
1790543315.7150,-0.045885,-0.028652,-0.201381,-0.044303,-0.021399,-0.201381,0.123174,-0.482722,0.528203,0.185647,1.423051,-12.199420
1790543315.7303,-0.035869,-0.020936,-0.182509,-0.041773,-0.021260,-0.182509,-0.511823,-0.848178,0.616836,2.178703,1.832031,-12.160609
1790543315.7457,-0.030226,-0.010702,-0.155109,-0.038309,-0.018093,-0.155109,-0.741296,-0.679413,0.603480,3.175230,0.382011,-8.706413
1790543315.7607,-0.019134,0.002175,-0.139096,-0.032556,-0.012012,-0.139096,-0.889421,-0.992661,0.397076,1.910407,0.753811,-6.610609
1790543315.7752,-0.005659,0.014107,-0.126452,-0.024487,-0.004177,-0.126452,-0.871209,-1.146857,0.231953,1.565455,0.716631,-6.921098
1790543315.7908,0.000977,0.025060,-0.122513,-0.016848,0.004594,-0.122513,-0.710942,-0.638132,0.094755,3.673494,2.166651,-12.820399
1790543315.8052,-0.009566,0.017701,-0.117014,-0.014663,0.008526,-0.117014,0.376929,0.762988,-0.366619,1.143847,0.047391,-19.573546
1790543315.8190,-0.003269,0.014364,-0.139582,-0.011245,0.010278,-0.139582,0.227590,-0.114837,-1.051395,-2.382327,1.608951,-9.560259
1790543315.8329,-0.000836,0.013189,-0.169955,-0.008122,0.011151,-0.169955,0.164454,-0.188899,-1.095105,1.795423,1.943571,-6.028441
1790543315.8470,0.000354,0.012824,-0.213407,-0.005579,0.011653,-0.213407,0.291939,-0.112408,-0.541456,0.798895,2.501271,-4.010259
1790543315.8610,0.005201,0.001940,-0.209929,-0.002345,0.008739,-0.209929,0.678036,-0.245964,-0.673797,-0.197632,0.605091,-12.548721
1790543315.8749,0.021758,-0.008867,-0.233598,0.004885,0.003457,-0.233598,0.804307,-0.929526,-0.932410,-2.497311,2.538451,-11.190329
1790543315.8886,0.025475,-0.014228,-0.254286,0.011062,-0.001848,-0.254286,0.478917,-0.185257,-1.055038,0.568927,3.393591,-9.987182
1790543315.9022,0.027629,-0.015433,-0.269398,0.016032,-0.005924,-0.269398,0.108604,-0.068699,-1.039254,0.338959,2.055111,-8.395923
1790543315.9163,0.033396,-0.020481,-0.294314,0.021241,-0.010291,-0.294314,0.342933,-0.164616,-1.016185,-1.845736,1.683311,-9.133336
1790543315.9309,0.038917,-0.027244,-0.318985,0.026544,-0.015377,-0.318985,0.471632,-0.185257,-1.005258,-1.194160,1.869211,-8.279490
1790543315.9453,0.028163,-0.034241,-0.323611,0.027030,-0.021036,-0.323611,0.476489,0.766631,-0.583951,0.607255,2.575631,-14.838581
1790543315.9596,0.009816,-0.027151,-0.341481,0.021866,-0.022871,-0.341481,-0.511823,1.451407,-0.469821,-2.803935,2.389731,-16.623896
1790543315.9737,0.011015,-0.013423,-0.330776,0.018611,-0.020036,-0.330776,-0.973197,0.364750,-0.383617,-7.134997,1.646131,-9.055714
1790543315.9882,0.001129,-0.003755,-0.336659,0.013366,-0.015152,-0.336659,-0.846926,0.957251,-0.413971,-1.960720,-0.659029,-5.601518
1790543316.0022,-0.013705,0.009857,-0.341666,0.005245,-0.007649,-0.341666,-0.819001,1.152728,-0.375118,-0.120976,1.720491,-3.932637
1790543316.0162,-0.017359,0.017313,-0.357333,-0.001536,-0.000161,-0.357333,-0.506966,0.440026,-0.463751,-1.807408,2.835891,-12.975644
1790543316.0305,-0.015617,0.007992,-0.356604,-0.005760,0.002285,-0.356604,0.593046,-0.117265,-0.080082,0.108991,1.460231,-18.642077
1790543316.0445,-0.016495,0.008881,-0.350099,-0.008981,0.004264,-0.350099,-0.020095,-0.011635,0.463854,-0.120976,2.984611,-12.665154
1790543316.0584,-0.023502,0.002823,-0.326799,-0.013337,0.003832,-0.326799,0.334434,0.289473,0.741892,1.258831,0.121751,-9.172147
1790543316.0724,-0.022815,-0.008180,-0.319089,-0.016180,0.000228,-0.319089,0.565121,0.005363,0.448070,-1.270816,-1.253909,-6.688231
1790543316.0865,-0.041910,-0.018030,-0.267814,-0.023899,-0.005249,-0.267814,0.686535,0.898972,0.507563,2.906934,0.605091,-4.049070
1790543316.1007,-0.057404,-0.029459,-0.263142,-0.033951,-0.012512,-0.263142,0.789738,1.055596,0.630191,-0.159304,1.348691,-10.802217
1790543316.1146,-0.069749,-0.042697,-0.252942,-0.044690,-0.021568,-0.252942,0.937863,0.781200,0.903373,0.607255,1.757671,-11.733686
1790543316.1284,-0.081255,-0.050817,-0.249103,-0.055660,-0.030342,-0.249103,0.634327,0.775130,0.914301,0.070663,2.501271,-10.103616
1790543316.1421,-0.083919,-0.057088,-0.244411,-0.064137,-0.038366,-0.244411,0.438850,0.175343,0.869377,-0.350944,1.348691,-8.551168
1790543316.1561,-0.073612,-0.060253,-0.235804,-0.066980,-0.044932,-0.235804,0.151099,-0.761974,0.847523,-0.465928,0.790991,-11.267951
1790543316.1703,-0.066532,-0.057421,-0.225621,-0.066845,-0.048679,-0.225621,-0.261710,-0.562855,0.659331,0.415615,0.753811,-11.656063
1790543316.1845,-0.061827,-0.058727,-0.198917,-0.065340,-0.051693,-0.198917,-0.147580,-0.594423,0.699397,3.788478,-2.592388,-11.035084
1790543316.1988,-0.055038,-0.056538,-0.182150,-0.062249,-0.053147,-0.182150,-0.321203,-0.727978,0.603480,3.443526,-1.291089,-10.025993
1790543316.2133,-0.043006,-0.042625,-0.171900,-0.056476,-0.049990,-0.171900,-1.029047,-1.092221,0.569484,2.945262,0.307651,-8.667602
1790543316.2275,-0.031659,-0.028620,-0.159846,-0.049031,-0.043579,-0.159846,-1.122536,-1.131074,0.637476,3.290214,-0.584669,-7.930189
1790543316.2415,-0.017237,-0.013781,-0.147545,-0.039493,-0.034640,-0.147545,-1.160175,-1.287698,0.465068,2.523654,-0.026969,-9.055714
1790543316.2555,-0.000641,0.004473,-0.142353,-0.027837,-0.022906,-0.142353,-1.348367,-1.415183,0.290232,1.910407,0.679451,-7.930189
1790543316.2695,0.002442,0.015365,-0.131739,-0.018753,-0.011425,-0.131739,-0.849354,-0.329740,0.155462,1.335487,0.865351,-13.324944
1790543316.2835,-0.007073,0.008823,-0.134407,-0.015249,-0.005350,-0.134407,0.375715,0.685283,-0.520815,2.523654,0.902531,-18.021098
1790543316.2974,0.014076,0.003128,-0.187939,-0.006452,-0.002807,-0.187939,0.597903,-1.222134,-1.101175,-2.037376,3.691031,-7.658511
1790543316.3113,0.012679,0.006185,-0.248525,-0.000712,-0.000109,-0.248525,0.119531,-0.216825,-0.523244,3.711822,3.542311,-3.505713
1790543316.3257,0.020587,-0.001545,-0.237838,0.005678,-0.000540,-0.237838,0.449778,-0.320027,-0.526886,-1.807408,0.382011,-6.261308
1790543316.3397,0.040065,-0.013733,-0.249458,0.015994,-0.004498,-0.249458,0.843160,-1.142001,-0.905698,-2.803935,1.794851,-11.035084
1790543316.3534,0.053241,-0.027150,-0.271927,0.027168,-0.011294,-0.271927,0.981572,-0.822681,-1.108460,-0.580912,2.278191,-9.870749
1790543316.3671,0.059711,-0.032139,-0.302727,0.036931,-0.017547,-0.302727,0.534768,-0.398946,-1.091462,0.223975,3.393591,-6.338930
1790543316.3810,0.064340,-0.041779,-0.321293,0.045154,-0.024817,-0.321293,0.645255,-0.211968,-1.052610,-0.465928,1.125611,-6.571797
1790543316.3951,0.048946,-0.048810,-0.337491,0.046291,-0.032015,-0.337491,0.460705,1.166083,-0.943337,0.070663,2.426911,-13.713056
1790543316.4093,0.032197,-0.036441,-0.360260,0.042063,-0.033343,-0.360260,-0.896706,1.385843,-0.847420,-2.573967,2.129471,-12.509909
1790543316.4233,0.032820,-0.022310,-0.341977,0.039290,-0.030033,-0.341977,-1.180815,0.262762,-0.749074,-5.831846,-0.882109,-14.178791
1790543316.4374,0.028015,-0.008076,-0.319072,0.035908,-0.023446,-0.319072,-1.241522,0.659786,-0.593664,-4.605350,-1.625708,-10.530539
1790543316.4515,0.018747,0.009720,-0.332274,0.030759,-0.013496,-0.332274,-1.297373,0.929326,-0.468607,-1.347472,0.605091,-3.932637
1790543316.4657,-0.000681,0.023937,-0.348045,0.021327,-0.002266,-0.348045,-1.050902,1.722160,-0.638587,-2.267343,0.865351,-5.989630
1790543316.4797,-0.013651,0.034636,-0.363634,0.010834,0.008804,-0.363634,-0.766793,1.198865,-0.631302,-1.692424,1.534591,-7.542077
1790543316.4937,-0.011980,0.029518,-0.362961,0.003990,0.015019,-0.362961,0.282226,-0.086911,-0.371476,0.798895,1.088431,-16.468651
1790543316.5079,-0.009538,0.026095,-0.361732,-0.000069,0.018341,-0.361732,0.273727,-0.174330,0.218597,-1.079176,3.356411,-14.023546
1790543316.5219,-0.016650,0.025210,-0.348929,-0.005043,0.020402,-0.348929,0.018757,0.323469,0.528203,1.795423,1.460231,-12.820399
1790543316.5359,-0.007954,0.023494,-0.342770,-0.005916,0.021330,-0.342770,0.075822,-0.497291,0.360652,-3.455511,1.051251,-10.142427
1790543316.5499,-0.016939,0.017127,-0.330302,-0.009223,0.020069,-0.330302,0.545695,0.372034,0.336369,1.527127,1.423051,-4.165504
1790543316.5641,-0.035205,0.008495,-0.320924,-0.017018,0.016597,-0.320924,0.648897,1.053168,0.503921,2.638638,2.241011,-9.133336
1790543316.5779,-0.048385,0.000549,-0.313217,-0.026428,0.011782,-0.313217,0.600331,0.796984,0.703040,1.182175,2.203831,-10.064805
1790543316.5916,-0.058212,-0.004145,-0.306943,-0.035963,0.007004,-0.306943,0.367216,0.595437,0.797743,0.415615,2.352551,-10.025993
1790543316.6059,-0.059290,-0.004087,-0.304708,-0.042961,0.003677,-0.304708,0.090392,-0.023776,0.877876,-0.159304,3.542311,-9.482637
1790543316.6198,-0.057896,-0.003537,-0.295178,-0.047442,0.001513,-0.295178,-0.039522,-0.225324,0.843880,0.223975,1.869211,-8.822846
1790543316.6339,-0.053660,-0.001473,-0.283020,-0.049307,0.000617,-0.283020,-0.135439,-0.469366,0.883947,0.683911,2.203831,-9.405014
1790543316.6478,-0.048401,0.001952,-0.272797,-0.049035,0.001017,-0.272797,-0.266566,-0.491221,0.758890,0.070663,1.980751,-11.462007
1790543316.6618,-0.038037,0.006455,-0.256470,-0.045736,0.002649,-0.256470,-0.361269,-0.912528,0.778317,0.645583,1.311511,-9.327392
1790543316.6759,-0.029486,0.013705,-0.241812,-0.040861,0.005966,-0.241812,-0.532463,-0.776544,0.698183,0.837223,1.906391,-11.462007
1790543316.6897,-0.020953,0.022517,-0.219082,-0.034888,0.010931,-0.219082,-0.727940,-0.831180,0.512420,1.718767,0.567911,-10.297672
1790543316.7038,-0.012897,0.036792,-0.199743,-0.028291,0.018689,-0.199743,-1.049688,-0.857892,0.257450,3.520182,1.348691,-9.560259
1790543316.7185,-0.022775,0.043273,-0.188728,-0.026636,0.026064,-0.188728,-0.531249,0.489806,-0.065512,3.826806,0.679451,-10.491728
1790543316.7326,-0.019913,0.044803,-0.222981,-0.024619,0.031686,-0.222981,-0.123297,0.251834,-0.741789,-6.521750,1.906391,-12.199420
1790543316.7467,-0.003521,0.044947,-0.259559,-0.018290,0.035664,-0.259559,0.171739,-0.794756,-0.870488,-4.222071,5.735931,-10.297672
1790543316.7607,-0.011130,0.036064,-0.261816,-0.016142,0.035784,-0.261816,0.687750,0.532301,-0.813424,2.446998,2.649991,-8.124245
1790543316.7747,-0.003072,0.030218,-0.274616,-0.012221,0.034114,-0.274616,0.357503,-0.307885,-0.976119,-1.347472,1.014071,-8.900469
1790543316.7887,0.008376,0.027197,-0.287244,-0.006042,0.032039,-0.287244,0.188737,-0.624776,-1.050181,-0.427600,1.943571,-10.841028
1790543316.8028,0.009742,0.016218,-0.299743,-0.001307,0.027293,-0.299743,0.640398,0.180200,-1.392569,-0.504256,0.158931,-7.891378
1790543316.8164,0.018252,0.011924,-0.333234,0.004561,0.022682,-0.333234,0.478917,-0.352808,-1.467846,-0.427600,3.170511,-5.873196
1790543316.8301,0.024474,0.008554,-0.344966,0.010535,0.018444,-0.344966,0.254301,-0.344309,-1.289367,0.837223,1.906391,-7.076343
1790543316.8440,0.027859,0.000599,-0.359887,0.015732,0.013091,-0.359887,0.505628,-0.057772,-1.267513,-0.120976,1.423051,-9.405014
1790543316.8580,0.035224,-0.005491,-0.393007,0.021580,0.007516,-0.393007,0.457063,-0.181614,-1.336719,-2.688951,2.798711,-9.482637
1790543316.8719,0.029827,-0.006103,-0.419615,0.024054,0.003430,-0.419615,0.194808,0.630647,-1.180095,-1.539112,5.735931,-10.414105
1790543316.8858,0.012150,0.001302,-0.441289,0.020483,0.002792,-0.441289,-0.556746,1.487831,-1.068393,-1.002520,3.021791,-14.334035
1790543316.8998,0.013112,0.014248,-0.459702,0.018272,0.006229,-0.459702,-1.002336,0.427885,-0.882630,-6.560078,0.828171,-9.560259
1790543316.9137,0.007679,0.023524,-0.471083,0.015094,0.011417,-0.471083,-0.838427,0.702281,-0.546312,-3.302199,-0.696209,-8.978091
1790543316.9279,0.000452,0.045166,-0.373370,0.010701,0.021542,-0.373370,-1.145605,1.002174,-0.543884,-1.884064,1.720491,-0.672497
1790543316.9422,0.008071,0.043642,-0.412232,0.009912,0.028172,-0.412232,-0.066233,-0.305457,-0.710222,-1.615768,-0.473129,-11.035084
1790543316.9563,0.009077,0.035424,-0.393602,0.009662,0.030347,-0.393602,0.605188,-0.311528,0.228310,3.826806,2.984611,-13.868301
1790543316.9707,0.001129,0.025064,-0.393310,0.007102,0.028762,-0.393310,0.661038,0.464309,0.655688,-0.695896,0.790991,-11.656063
1790543316.9846,-0.003381,0.020829,-0.390419,0.003957,0.026382,-0.390419,0.307723,0.249406,0.738250,-1.002520,1.683311,-9.793126
1790543316.9986,-0.006124,0.014743,-0.416484,0.000933,0.022891,-0.416484,0.374501,0.350180,0.247737,-3.340527,0.939711,-10.491728
1790543317.0126,-0.022098,0.005584,-0.400844,-0.005976,0.017699,-0.400844,0.593046,0.897758,0.395862,2.600310,0.419191,-8.163056
1790543317.0266,-0.039774,-0.006394,-0.386642,-0.016116,0.010471,-0.386642,0.834661,1.065310,0.747963,1.565455,1.237151,-9.521448
1790543317.0402,-0.049990,-0.024692,-0.383844,-0.026278,-0.000078,-0.383844,1.238970,0.675570,0.865735,-0.427600,0.121751,-11.500819
1790543317.0539,-0.062893,-0.033225,-0.382707,-0.037263,-0.010022,-0.382707,0.708390,0.985176,0.863307,-1.577440,2.649991,-8.357112
1790543317.0680,-0.063830,-0.038097,-0.388407,-0.045233,-0.018445,-0.388407,0.419424,0.203269,0.665401,-3.033903,2.910251,-9.249770
1790543317.0819,-0.056499,-0.042502,-0.383490,-0.048613,-0.025662,-0.383490,0.249444,-0.574996,0.705468,-0.235960,0.790991,-11.656063
1790543317.0959,-0.048929,-0.042324,-0.375941,-0.048708,-0.030661,-0.375941,-0.105085,-0.658772,0.451712,1.527127,-0.026969,-12.626343
1790543317.1097,-0.043259,-0.040479,-0.360286,-0.047073,-0.033606,-0.360286,-0.313918,-0.645417,0.491779,3.481854,-1.848788,-11.345574
1790543317.1237,-0.033264,-0.032844,-0.340895,-0.042930,-0.033377,-0.340895,-0.695158,-1.006017,0.491779,2.753622,-0.807749,-7.037532
1790543317.1377,-0.030190,-0.019890,-0.322676,-0.039108,-0.029331,-0.322676,-1.025405,-0.588352,0.427430,4.708349,-0.324409,-8.201867
1790543317.1516,-0.014088,-0.005161,-0.312516,-0.031602,-0.022080,-0.312516,-1.162603,-1.327765,0.318157,1.105519,-0.064149,-6.610609
1790543317.1656,0.000105,0.008232,-0.303396,-0.022090,-0.012986,-0.303396,-1.061829,-1.305910,0.327870,2.523654,-0.138509,-7.153965
1790543317.1794,0.011838,0.022232,-0.298193,-0.011912,-0.002421,-0.298193,-1.020548,-1.035156,0.150605,1.795423,1.423051,-8.900469
1790543317.1934,0.004793,0.019203,-0.296900,-0.006900,0.004066,-0.296900,0.077036,0.460667,-0.219708,2.217030,-0.547489,-18.098721
1790543317.2077,0.014665,0.016670,-0.311300,-0.000430,0.007847,-0.311300,0.208163,-0.507004,-0.817066,-1.462456,3.356411,-12.587532
1790543317.2224,0.017254,0.015591,-0.323872,0.004875,0.010170,-0.323872,0.033327,-0.112408,-0.897199,1.143847,1.534591,-9.405014
1790543317.2364,0.026795,0.013121,-0.341766,0.011451,0.011056,-0.341766,0.282226,-0.536144,-0.581522,-0.580912,1.683311,-4.281937
1790543317.2505,0.037704,0.000682,-0.347700,0.019327,0.007944,-0.347700,0.823733,-0.662415,-0.661656,-0.810880,1.125611,-10.336483
1790543317.2644,0.054293,-0.014980,-0.363676,0.029817,0.001066,-0.363676,1.105414,-0.944096,-0.933624,-2.803935,2.166651,-10.608161
1790543317.2781,0.067443,-0.024299,-0.381330,0.041105,-0.006543,-0.381330,0.736315,-0.865176,-1.030755,-0.274288,3.207691,-9.327392
1790543317.2916,0.070896,-0.030311,-0.397040,0.050042,-0.013673,-0.397040,0.469204,-0.199827,-1.004044,0.262303,2.612811,-8.357112
1790543317.3055,0.058857,-0.042526,-0.414972,0.052687,-0.022329,-0.414972,0.922079,0.948752,-0.780642,-0.504256,3.505131,-10.918651
1790543317.3195,0.042201,-0.043832,-0.430939,0.049541,-0.028780,-0.430939,-0.009168,1.339706,-0.963977,-1.654096,1.199971,-15.381938
1790543317.3335,0.037982,-0.037120,-0.443881,0.046073,-0.031282,-0.443881,-0.683017,0.583295,-0.868060,-4.490366,-1.700068,-12.665154
1790543317.3474,0.036413,-0.025327,-0.458955,0.043175,-0.029496,-0.458955,-0.997480,0.469166,-0.749074,-5.410238,-0.547489,-10.530539
1790543317.3614,0.030524,-0.010997,-0.462970,0.039380,-0.023946,-0.462970,-1.287660,0.675570,-0.355692,-3.072231,-2.146228,-7.736133
1790543317.3752,0.024292,0.006827,-0.469639,0.034853,-0.014714,-0.469639,-1.429714,0.784843,-0.449181,-3.762135,-0.324409,-7.580888
1790543317.3891,0.009458,0.022318,-0.480762,0.027235,-0.003605,-0.480762,-1.205098,1.372487,-0.598520,-2.612295,0.642271,-7.891378
1790543317.4031,-0.011202,0.035544,-0.489975,0.015704,0.008140,-0.489975,-0.940415,1.767084,-0.630088,-1.845736,1.720491,-7.386832
1790543317.4171,-0.010713,0.038906,-0.500485,0.007779,0.017370,-0.500485,-0.326059,0.052715,-0.333837,-0.695896,1.088431,-16.041728
1790543317.4310,-0.009333,0.037559,-0.497099,0.002645,0.023427,-0.497099,0.104961,-0.177972,0.224668,0.568927,3.021791,-14.372847
1790543317.4450,-0.011248,0.036809,-0.499816,-0.001523,0.027441,-0.499816,-0.068661,0.106137,0.354581,-0.772552,-0.026969,-10.918651
1790543317.4591,-0.006252,0.034536,-0.496749,-0.002942,0.029570,-0.496749,0.083107,-0.338239,0.306015,-1.462456,0.605091,-9.793126
1790543317.4735,-0.013993,0.027185,-0.498403,-0.006257,0.028854,-0.498403,0.498343,0.392675,0.255021,0.913879,0.902531,-5.368651
1790543317.4874,-0.022591,0.021576,-0.492756,-0.011157,0.026671,-0.492756,0.469204,0.469166,0.319371,1.718767,2.984611,-10.064805
1790543317.5011,-0.026922,0.016078,-0.484686,-0.015886,0.023493,-0.484686,0.460705,0.208125,0.420145,0.683911,2.761531,-9.909560
1790543317.5149,-0.032901,0.012450,-0.473188,-0.020991,0.020180,-0.473188,0.359931,0.272475,0.511205,1.297159,3.096151,-8.900469
1790543317.5290,-0.035722,0.010864,-0.464359,-0.025410,0.017385,-0.464359,0.155955,0.107351,0.478424,0.377287,2.612811,-10.103616
1790543317.5430,-0.036397,0.008638,-0.457466,-0.028706,0.014761,-0.457466,0.182666,-0.044416,0.399504,0.530599,2.055111,-9.249770
1790543317.5570,-0.037319,0.007793,-0.452512,-0.031290,0.012671,-0.452512,0.075822,-0.033489,0.302373,0.913879,1.906391,-9.327392
1790543317.5709,-0.035528,0.008298,-0.445129,-0.032561,0.011359,-0.445129,0.001759,-0.231394,0.371579,0.760567,2.352551,-9.560259
1790543317.5849,-0.029136,0.008645,-0.437883,-0.031534,0.010545,-0.437883,0.038184,-0.522788,0.258664,0.377287,3.319231,-11.617252
1790543317.5989,-0.021121,0.009690,-0.433370,-0.028410,0.010288,-0.433370,-0.133010,-0.664843,0.323013,0.530599,0.939711,-11.733686
1790543317.6129,-0.007153,0.013786,-0.428873,-0.022033,0.011338,-0.428873,-0.341843,-1.116504,0.214955,1.028863,1.014071,-11.112707
1790543317.6268,0.001781,0.023205,-0.425063,-0.014889,0.014898,-0.425063,-0.709728,-0.902815,0.076543,3.481854,1.051251,-8.978091
1790543317.6408,-0.000825,0.030087,-0.429289,-0.010670,0.019455,-0.429289,-0.540962,0.021147,-0.325338,4.056774,1.274331,-10.763406
1790543317.6546,-0.003111,0.027731,-0.443394,-0.008402,0.021937,-0.443394,0.179024,0.338038,-0.916626,-0.082648,2.687171,-11.462007
1790543317.6687,0.015502,0.025899,-0.457664,-0.001231,0.023126,-0.457664,0.213020,-0.948952,-1.188594,-2.267343,2.538451,-6.494175
1790543317.6826,0.020679,0.023542,-0.472321,0.005342,0.023251,-0.472321,0.253087,-0.080841,-1.039254,-1.539112,2.798711,-6.882287
1790543317.6966,0.022038,0.013796,-0.485232,0.010351,0.020414,-0.485232,0.620972,0.085497,-0.898414,-0.887536,1.274331,-11.694875
1790543317.7109,0.031445,0.005930,-0.501322,0.016679,0.016069,-0.501322,0.482560,-0.460867,-1.220161,-0.427600,1.274331,-9.055714
1790543317.7256,0.040990,-0.004674,-0.521231,0.023972,0.009846,-0.521231,0.595475,-0.431728,-1.437493,-0.389272,0.642271,-8.861658
1790543317.7393,0.045953,-0.011936,-0.538290,0.030567,0.003311,-0.538290,0.559051,-0.247178,-1.430208,0.722239,2.538451,-7.192776
1790543317.7531,0.050784,-0.016766,-0.555638,0.036632,-0.002712,-0.555638,0.334434,-0.207111,-1.347646,0.070663,1.794851,-6.727042
1790543317.7673,0.054942,-0.025772,-0.573094,0.042125,-0.009630,-0.573094,0.690178,-0.164616,-1.274798,0.032335,3.282051,-8.279490
1790543317.7812,0.046555,-0.034210,-0.587458,0.043454,-0.017004,-0.587458,0.449778,0.696210,-1.259014,0.837223,0.419191,-14.450469
1790543317.7953,0.039177,-0.024702,-0.608064,0.042171,-0.019313,-0.608064,-0.787433,0.834623,-1.008900,-5.985158,1.051251,-16.934385
1790543317.8093,0.039744,-0.007962,-0.626250,0.041443,-0.015908,-0.626250,-1.281589,0.358679,-0.849848,-5.371910,0.716631,-9.327392
1790543317.8251,0.034627,0.007495,-0.643133,0.039398,-0.008887,-0.643133,-1.237880,0.629433,-0.707793,-2.957247,-1.848788,-6.998721
1790543317.8395,0.018386,0.024911,-0.661391,0.033095,0.001252,-0.661391,-1.371435,1.240146,-0.762430,0.185647,-0.064149,-5.834385
1790543317.8538,0.010537,0.029233,-0.673371,0.026327,0.009646,-0.673371,-0.381910,0.787271,-0.735719,-2.382327,1.348691,-13.130889
1790543317.8689,0.012575,0.013839,-0.675793,0.022201,0.010904,-0.675793,0.984000,-0.181614,-0.014518,0.913879,2.055111,-19.146623
1790543317.8833,0.008445,0.014247,-0.667802,0.018074,0.011907,-0.667802,-0.040736,0.308899,0.432286,-2.152360,1.534591,-11.384385
1790543317.8973,0.007042,0.015677,-0.661396,0.014765,0.013038,-0.661396,-0.119655,-0.102695,0.688470,1.258831,1.423051,-11.966553
1790543317.9113,0.013096,0.009046,-0.648827,0.014264,0.011840,-0.648827,0.350218,-0.248392,0.174888,-3.877119,-0.621849,-9.366203
1790543317.9254,-0.005921,0.004551,-0.656092,0.008209,0.009653,-0.656092,0.271299,0.959679,0.279304,3.175230,0.307651,-4.592427
1790543317.9395,-0.018883,-0.004596,-0.653675,0.000081,0.005379,-0.653675,0.622186,0.775130,0.540345,0.990535,1.051251,-9.405014
1790543317.9534,-0.028012,-0.019040,-0.643688,-0.008347,-0.001947,-0.643688,0.999784,0.542014,0.846309,0.032335,0.939711,-11.927742
1790543317.9674,-0.038662,-0.026335,-0.620722,-0.017442,-0.009263,-0.620722,0.614901,0.720493,0.993220,-1.040848,2.464091,-7.658511
1790543317.9818,-0.042015,-0.025737,-0.597386,-0.024814,-0.014205,-0.597386,0.049111,0.222695,0.917943,-1.424128,2.724351,-8.279490
1790543317.9960,-0.038192,-0.029090,-0.582150,-0.028827,-0.018671,-0.582150,0.220305,-0.304243,0.860878,-1.270816,1.423051,-10.569350
1790543318.0100,-0.035338,-0.028536,-0.575119,-0.030780,-0.021630,-0.575119,-0.062590,-0.326097,0.593767,0.875551,1.162791,-10.297672
1790543318.0243,-0.025570,-0.027130,-0.569921,-0.029217,-0.023280,-0.569921,-0.173077,-0.793542,0.560985,0.645583,0.270471,-12.160609
1790543318.0384,-0.018579,-0.017480,-0.566765,-0.026026,-0.021540,-0.566765,-0.714585,-0.778972,0.591339,3.175230,0.939711,-9.637881
1790543318.0524,-0.011542,-0.005571,-0.563653,-0.021681,-0.016749,-0.563653,-0.933130,-0.761974,0.525775,2.830278,0.121751,-10.142427
1790543318.0665,0.000292,0.009616,-0.560339,-0.015089,-0.008840,-0.560339,-1.133464,-1.076437,0.380078,1.987063,0.456371,-7.852567
1790543318.0807,0.014104,0.022634,-0.557738,-0.006331,0.000602,-0.557738,-0.986552,-1.191781,0.195528,2.025391,0.419191,-8.395923
1790543318.0946,0.009025,0.025974,-0.560590,-0.001724,0.008214,-0.560590,-0.290849,0.165630,0.083827,3.481854,1.162791,-12.277042
1790543318.1087,0.004087,0.024153,-0.570424,0.000019,0.012996,-0.570424,0.045468,0.419386,-0.665298,1.105519,1.088431,-13.751868
1790543318.1225,0.014893,0.023203,-0.576478,0.004481,0.016058,-0.576478,0.017543,-0.457225,-1.235945,-2.420655,1.906391,-12.082986
1790543318.1366,0.019767,0.020908,-0.596651,0.009067,0.017513,-0.596651,0.222733,-0.235037,-0.997973,0.377287,1.943571,-5.601518
1790543318.1505,0.019523,0.014470,-0.605796,0.012204,0.016600,-0.605796,0.379357,0.050287,-0.630088,0.798895,0.716631,-8.667602
1790543318.1646,0.029806,0.004692,-0.607128,0.017484,0.013028,-0.607128,0.611259,-0.475437,-0.966406,-2.573967,1.088431,-12.121798
1790543318.1784,0.042036,-0.004182,-0.620651,0.024850,0.007865,-0.620651,0.618543,-0.659986,-1.189808,-1.424128,2.389731,-10.841028
1790543318.1920,0.043712,-0.006499,-0.646932,0.030508,0.003556,-0.646932,0.291939,0.000507,-1.271155,0.377287,3.393591,-6.610609
1790543318.2058,0.045177,-0.008001,-0.666621,0.034909,0.000089,-0.666621,0.109818,0.083069,-1.208020,-0.542584,2.092291,-7.309210
1790543318.2205,0.048838,-0.013202,-0.682237,0.039088,-0.003898,-0.682237,0.293153,-0.015277,-1.184951,-1.385800,1.460231,-8.163056
1790543318.2347,0.052749,-0.019489,-0.701362,0.043186,-0.008576,-0.701362,0.521412,-0.125764,-1.125458,-0.580912,4.174371,-9.870749
1790543318.2488,0.038490,-0.024548,-0.714396,0.041777,-0.013367,-0.714396,0.222733,1.099305,-1.023470,0.798895,0.605091,-15.304315
1790543318.2627,0.032442,-0.013361,-0.718535,0.038977,-0.013365,-0.718535,-0.859067,0.725350,-0.783070,-5.985158,2.203831,-16.817952
1790543318.2767,0.027249,0.002248,-0.719010,0.035458,-0.008681,-0.719010,-1.197813,0.682855,-0.630088,-3.800463,0.790991,-9.327392
1790543318.2907,0.024167,0.012413,-0.714721,0.032071,-0.002353,-0.714721,-0.964698,0.550513,-0.492890,-2.957247,-1.365448,-6.222497
1790543318.3048,0.011237,0.025916,-0.727169,0.025821,0.006128,-0.727169,-0.907633,0.880760,-0.378761,0.568927,1.051251,-3.428091
1790543318.3190,0.007802,0.032281,-0.730811,0.020415,0.013974,-0.730811,-0.389194,0.460667,-0.481963,-2.650623,3.616671,-10.918651
1790543318.3333,0.015575,0.022938,-0.726452,0.018963,0.016663,-0.726452,0.619758,-0.639346,0.296302,0.108991,1.608951,-16.002917
1790543318.3472,0.007442,0.017188,-0.719670,0.015507,0.016820,-0.719670,0.511699,0.341681,0.788030,1.603783,3.282051,-10.452916
1790543318.3612,0.001145,0.013617,-0.709700,0.011198,0.015859,-0.709700,0.260372,0.178986,0.955581,1.450471,1.348691,-9.249770
1790543318.3753,-0.005131,0.000404,-0.696937,0.006299,0.011223,-0.696937,0.822519,0.444883,0.653260,-1.232488,-0.287229,-6.532986
1790543318.3891,-0.017293,-0.010447,-0.686662,-0.000778,0.004722,-0.686662,0.773954,0.833408,0.730965,-0.810880,1.088431,-8.900469
1790543318.4029,-0.032649,-0.019684,-0.678495,-0.010340,-0.002600,-0.678495,0.664681,0.999746,0.772246,0.262303,1.311511,-9.249770
1790543318.4166,-0.046400,-0.028143,-0.670243,-0.021158,-0.010263,-0.670243,0.675608,0.801841,0.956796,1.297159,2.055111,-8.007811
1790543318.4302,-0.055378,-0.035989,-0.658952,-0.031424,-0.017981,-0.658952,0.578477,0.543228,0.917943,0.415615,1.832031,-10.569350
1790543318.4439,-0.059980,-0.040039,-0.647755,-0.039990,-0.024598,-0.647755,0.403640,0.272475,0.830525,-0.159304,3.505131,-9.870749
1790543318.4578,-0.052147,-0.044989,-0.634785,-0.043638,-0.030716,-0.634785,0.237303,-0.584710,0.790458,-1.155832,-0.324409,-12.898021
1790543318.4718,-0.042409,-0.043070,-0.625725,-0.043269,-0.034422,-0.625725,-0.226499,-0.829966,0.683614,1.182175,0.084571,-12.238231
1790543318.4861,-0.038652,-0.040238,-0.621393,-0.041884,-0.036167,-0.621393,-0.347914,-0.545857,0.723680,3.750150,-1.291089,-10.297672
1790543318.5000,-0.033674,-0.034539,-0.615535,-0.039421,-0.035679,-0.615535,-0.531249,-0.602922,0.632620,2.140375,-0.473129,-7.464455
1790543318.5141,-0.024135,-0.025958,-0.612712,-0.034835,-0.032762,-0.612712,-0.667233,-0.878532,0.418931,2.063719,0.419191,-8.900469
1790543318.5280,-0.013623,-0.014595,-0.612471,-0.028472,-0.027312,-0.612471,-0.886993,-0.979306,0.184601,3.481854,0.196111,-10.957462
1790543318.5420,-0.000426,0.002922,-0.615198,-0.020058,-0.018242,-0.615198,-1.294944,-1.178425,0.015835,4.133430,0.865351,-11.384385
1790543318.5558,0.016376,0.022431,-0.621261,-0.009128,-0.006040,-0.621261,-1.394504,-1.396971,-0.067940,1.910407,1.497411,-7.580888
1790543318.5698,0.002281,0.021645,-0.613980,-0.005705,0.002266,-0.613980,-0.118441,0.948752,-0.384831,3.328542,-0.993649,-13.907112
1790543318.5837,0.002563,0.010886,-0.620131,-0.003225,0.004852,-0.620131,0.782453,0.297972,-1.016185,-3.340527,3.207691,-13.363756
1790543318.5977,0.020192,0.001959,-0.654728,0.003800,0.003984,-0.654728,0.704748,-1.233061,-1.296652,2.293686,3.096151,-9.793126
1790543318.6116,0.020707,-0.002094,-0.674063,0.008872,0.002160,-0.674063,0.323507,-0.176758,-0.645872,3.213558,2.092291,-8.279490
1790543318.6256,0.031419,-0.010045,-0.677949,0.015636,-0.001501,-0.677949,0.508057,-0.619920,-0.779428,-1.040848,1.162791,-10.414105
1790543318.6396,0.048996,-0.022679,-0.687487,0.025644,-0.007855,-0.687487,0.860158,-1.082508,-0.983403,-1.730752,1.832031,-12.160609
1790543318.6533,0.061617,-0.032442,-0.712789,0.036436,-0.015231,-0.712789,0.770311,-0.676984,-1.284511,-1.692424,2.687171,-7.231588
1790543318.6670,0.066690,-0.039789,-0.744833,0.045512,-0.022598,-0.744833,0.616115,-0.294530,-1.243230,0.262303,2.724351,-6.455364
1790543318.6811,0.071576,-0.045285,-0.772844,0.053332,-0.029404,-0.772844,0.483774,-0.198612,-1.140028,-0.849208,3.058971,-6.765853
1790543318.6951,0.058453,-0.054998,-0.768821,0.054868,-0.037082,-0.768821,0.466776,0.988819,-1.141242,0.837223,-0.993649,-14.955014
1790543318.7091,0.051268,-0.048522,-0.768372,0.053788,-0.040514,-0.768372,-0.585885,0.704709,-0.743003,-4.528694,0.344831,-18.176343
1790543318.7236,0.044494,-0.031688,-0.762881,0.051000,-0.037866,-0.762881,-1.276732,0.693782,-0.588807,-3.915447,0.233291,-11.888930
1790543318.7379,0.042576,-0.015400,-0.731424,0.048473,-0.031126,-0.731424,-1.409074,0.353822,-0.377547,-2.765607,-2.183408,-8.007811
1790543318.7519,0.034550,0.003319,-0.732064,0.044296,-0.020793,-0.732064,-1.440642,0.674356,-0.440682,-0.580912,0.270471,-6.144874
1790543318.7660,0.016712,0.016904,-0.740325,0.036021,-0.009484,-0.740325,-1.008407,1.535183,-0.624017,-1.462456,0.939711,-5.329839
1790543318.7798,0.000141,0.029351,-0.750278,0.025257,0.002167,-0.750278,-0.882136,1.410126,-0.491676,-1.462456,1.906391,-7.503266
1790543318.7938,0.004661,0.027078,-0.743042,0.019078,0.009640,-0.743042,0.024828,-0.216825,-0.077653,-3.570495,-0.770569,-19.728791
1790543318.8078,0.012537,0.032514,-0.739120,0.017116,0.016502,-0.739120,-0.313918,-0.604136,0.332727,-1.079176,3.728211,-12.354665
1790543318.8217,0.005042,0.031964,-0.739856,0.013494,0.021141,-0.739856,0.004188,0.257905,0.713967,2.063719,0.902531,-9.327392
1790543318.8356,-0.001322,0.027030,-0.767140,0.009049,0.022908,-0.767140,0.478917,0.097638,0.458997,1.067191,0.828171,-2.147322
1790543318.8496,-0.015260,0.022277,-0.780157,0.001756,0.022718,-0.780157,0.455848,0.665857,0.353367,3.596838,2.575631,-6.610609
1790543318.8635,-0.026726,0.011146,-0.775048,-0.006788,0.019247,-0.775048,0.805521,0.603936,0.639904,1.987063,1.757671,-9.715504
1790543318.8770,-0.041528,0.005577,-0.778294,-0.017210,0.015146,-0.778294,0.518984,0.943895,0.819598,0.607255,3.058971,-8.706413
1790543318.8906,-0.050071,0.001987,-0.774769,-0.027069,0.011198,-0.774769,0.328364,0.518946,0.915515,-0.274288,3.282051,-10.879840
1790543318.9042,-0.049636,-0.000840,-0.766807,-0.033839,0.007586,-0.766807,0.233660,-0.157332,0.928870,-0.120976,2.464091,-9.987182
1790543318.9181,-0.052260,-0.000177,-0.760450,-0.039365,0.005257,-0.760450,-0.021309,0.019933,0.819598,0.952207,2.389731,-9.754315
1790543318.9320,-0.051876,-0.000160,-0.754341,-0.043118,0.003632,-0.754341,0.019971,-0.169473,0.739464,0.683911,2.315371,-9.831937
1790543318.9460,-0.041889,0.003726,-0.751430,-0.042750,0.003660,-0.751430,-0.216786,-0.799613,0.581626,-0.159304,3.579491,-11.927742
1790543318.9599,-0.031153,0.011517,-0.741495,-0.039271,0.006017,-0.741495,-0.560388,-0.912528,0.614407,0.645583,2.129471,-11.151518
1790543318.9737,-0.023284,0.018282,-0.704500,-0.034475,0.009697,-0.704500,-0.615025,-0.860320,0.596195,3.443526,0.121751,-11.772497
1790543318.9878,-0.014626,0.027803,-0.686225,-0.028520,0.015129,-0.686225,-0.721869,-0.857892,0.406789,2.063719,0.902531,-7.697322
1790543319.0019,-0.007001,0.036236,-0.669098,-0.022064,0.021461,-0.669098,-0.659948,-0.793542,0.201599,2.906934,0.902531,-8.628791
1790543319.0158,-0.008259,0.031396,-0.656004,-0.017923,0.024442,-0.656004,0.211806,0.121921,-0.388474,1.028863,0.047391,-14.605714
1790543319.0298,0.002028,0.028010,-0.675540,-0.011938,0.025512,-0.675540,0.304081,-0.491221,-0.909341,-2.305671,4.248731,-13.674245
1790543319.0437,0.007520,0.024824,-0.695409,-0.006100,0.025306,-0.695409,0.193594,-0.174330,-1.441135,0.453943,1.757671,-9.482637
1790543319.0576,0.011259,0.023315,-0.731157,-0.000893,0.024709,-0.731157,0.267656,-0.241107,-0.817066,1.220503,3.207691,-6.610609
1790543319.0715,0.020580,0.015046,-0.731748,0.005549,0.021810,-0.731748,0.523840,-0.505790,-0.689581,-0.887536,0.790991,-7.425644
1790543319.0854,0.034775,0.003045,-0.751832,0.014317,0.016181,-0.751832,0.894154,-0.838465,-0.989474,-1.232488,2.947431,-11.073895
1790543319.0993,0.043644,-0.002035,-0.781126,0.023115,0.010716,-0.781126,0.435208,-0.530073,-1.180095,0.568927,3.058971,-8.085434
1790543319.1129,0.046312,-0.005843,-0.810493,0.030074,0.005748,-0.810493,0.319865,-0.024990,-1.228660,-0.235960,2.612811,-7.697322
1790543319.1265,0.050499,-0.010317,-0.834723,0.036201,0.000929,-0.834723,0.311366,-0.068699,-1.206806,-1.232488,1.794851,-7.425644
1790543319.1404,0.052964,-0.016835,-0.855529,0.041230,-0.004400,-0.855529,0.418210,0.022361,-1.143670,-1.002520,1.571771,-8.085434
1790543319.1543,0.050728,-0.025567,-0.872051,0.044079,-0.010750,-0.872051,0.657396,0.227551,-0.735719,-0.044320,2.501271,-9.288581
1790543319.1683,0.035906,-0.023234,-0.887210,0.041627,-0.014495,-0.887210,-0.203431,1.249859,-0.667727,-3.762135,3.021791,-18.797322
1790543319.1822,0.028289,-0.013157,-0.878009,0.037626,-0.014094,-0.878009,-0.848140,0.833408,-0.583951,-5.831846,0.121751,-14.411658
1790543319.1961,0.024382,-0.000637,-0.858028,0.033653,-0.010057,-0.858028,-1.070328,0.595437,-0.490462,-4.413711,-0.733389,-9.249770
1790543319.2101,0.015208,0.011281,-0.843342,0.028119,-0.003656,-0.843342,-1.073971,0.781200,-0.405472,-0.542584,-0.696209,-4.864105
1790543319.2246,0.003673,0.022202,-0.839991,0.020785,0.004102,-0.839991,-0.908847,1.083522,-0.469821,-1.807408,-0.324409,-4.864105
1790543319.2395,-0.005678,0.031296,-0.843176,0.012846,0.012260,-0.843176,-0.703657,0.830980,-0.417613,-2.803935,0.716631,-13.674245
1790543319.2536,0.002235,0.025198,-0.833985,0.009663,0.016141,-0.833985,0.278584,-0.480293,-0.030302,-2.535639,-1.142369,-16.158161
1790543319.2679,0.004293,0.022855,-0.819778,0.008052,0.018155,-0.819778,0.062466,-0.159760,0.565842,-2.229015,-0.138509,-12.471098
1790543319.2820,0.001449,0.019487,-0.803918,0.006071,0.018555,-0.803918,0.115889,0.073355,0.834167,-0.465928,-0.435949,-8.085434
1790543319.2960,-0.006050,0.010599,-0.797286,0.002435,0.016168,-0.797286,0.589404,0.520160,0.359438,-0.619240,0.716631,-8.007811
1790543319.3101,-0.021916,0.001229,-0.803132,-0.004870,0.011686,-0.803132,0.657396,0.918398,0.409217,2.140375,1.125611,-8.046623
1790543319.3244,-0.035381,-0.009009,-0.801029,-0.014024,0.005478,-0.801029,0.790952,0.798198,0.721252,0.760567,2.575631,-8.822846
1790543319.3382,-0.050717,-0.018472,-0.795754,-0.025032,-0.001707,-0.795754,0.718103,0.915970,0.913086,1.450471,2.315371,-10.064805
1790543319.3519,-0.060999,-0.024952,-0.788266,-0.035822,-0.008681,-0.788266,0.529911,0.610006,1.021145,0.492271,2.835891,-9.870749
1790543319.3660,-0.060657,-0.030988,-0.773092,-0.043272,-0.015373,-0.773092,0.389071,-0.040774,0.883947,-1.079176,1.051251,-8.434735
1790543319.3799,-0.053351,-0.035220,-0.759215,-0.046296,-0.021327,-0.759215,0.253087,-0.611421,0.826882,-0.044320,1.199971,-12.082986
1790543319.3940,-0.044264,-0.035469,-0.745526,-0.045686,-0.025570,-0.745526,-0.072303,-0.735263,0.682399,0.300631,0.158931,-11.384385
1790543319.4083,-0.043647,-0.034039,-0.736474,-0.045075,-0.028111,-0.736474,-0.278708,-0.315170,0.704254,3.328542,-1.588528,-9.637881
1790543319.4223,-0.036575,-0.028124,-0.723636,-0.042525,-0.028115,-0.723636,-0.567673,-0.712195,0.728537,1.412143,-0.621849,-7.115154
1790543319.4363,-0.029217,-0.016454,-0.718416,-0.038533,-0.024616,-0.718416,-0.903991,-0.748619,0.592553,2.255358,0.307651,-9.560259
1790543319.4506,-0.015712,0.002601,-0.719732,-0.031686,-0.016451,-0.719732,-1.398147,-1.191781,0.273234,3.635166,0.567911,-11.306763
1790543319.4645,-0.001693,0.022075,-0.723740,-0.022688,-0.004894,-0.723740,-1.458854,-1.263415,0.051046,3.673494,0.567911,-9.637881
1790543319.4786,0.011342,0.041249,-0.737866,-0.012479,0.008949,-0.737866,-1.318013,-1.178425,-0.052157,2.140375,1.385871,-5.407462
1790543319.4927,-0.005920,0.033764,-0.735031,-0.010511,0.016394,-0.735031,0.416996,1.208578,-0.214852,1.680439,0.456371,-13.208511
1790543319.5067,-0.005475,0.020960,-0.742830,-0.009000,0.017764,-0.742830,0.988857,0.316184,-0.877773,-3.225543,3.356411,-9.521448
1790543319.5207,0.006293,0.018869,-0.766130,-0.004412,0.018095,-0.766130,0.115889,-0.774116,-1.337933,2.906934,1.832031,-11.617252
1790543319.5347,0.002305,0.021524,-0.798812,-0.002397,0.019124,-0.798812,-0.068661,0.126778,-0.716292,4.555037,3.579491,-8.395923
1790543319.5486,0.012206,0.018041,-0.790445,0.001984,0.018799,-0.790445,0.188737,-0.434156,-0.706579,-2.957247,1.311511,-10.220049
1790543319.5625,0.024071,0.006692,-0.798225,0.008610,0.015167,-0.798225,0.807950,-0.589566,-0.959121,-2.152360,1.943571,-9.288581
1790543319.5760,0.036016,-0.002317,-0.822224,0.016832,0.009922,-0.822224,0.765455,-0.679413,-1.006472,-1.079176,2.761531,-7.076343
1790543319.5895,0.040097,-0.003112,-0.855289,0.023811,0.006011,-0.855289,0.266442,-0.199827,-0.955478,0.108991,3.616671,-5.795574
1790543319.6034,0.042917,-0.005624,-0.874793,0.029543,0.002521,-0.874793,0.171739,0.000507,-1.062323,-1.385800,2.575631,-10.608161
1790543319.6173,0.039563,-0.013041,-0.896699,0.032549,-0.002148,-0.896699,0.613687,0.401174,-0.790355,-1.385800,4.062831,-10.879840
1790543319.6313,0.014722,-0.010521,-0.904409,0.027201,-0.004660,-0.904409,-0.259281,1.815649,-0.860775,1.872079,1.460231,-12.238231
1790543319.6452,0.012524,-0.000804,-0.897511,0.022798,-0.003503,-0.897511,-0.803217,0.447311,-0.695652,-4.528694,0.605091,-13.480189
1790543319.6591,0.009668,0.012526,-0.889988,0.018859,0.001306,-0.889988,-1.029047,0.573582,-0.666512,-4.145415,0.865351,-8.512357
1790543319.6732,0.010395,0.020419,-0.861139,0.016320,0.007040,-0.861139,-0.755865,0.390247,-0.524458,-4.068759,-0.956469,-5.523895
1790543319.6871,0.000558,0.033439,-0.878802,0.011591,0.014959,-0.878802,-0.791075,0.886831,-0.427326,-0.695896,1.943571,-3.932637
1790543319.7012,0.005815,0.031015,-0.878766,0.009858,0.019776,-0.878766,0.107390,-0.237465,-0.293771,-2.305671,1.274331,-13.674245
1790543319.7151,0.004228,0.024613,-0.870979,0.008169,0.021227,-0.870979,0.470418,-0.063843,0.588911,1.220503,2.538451,-14.101168
1790543319.7294,-0.007418,0.017405,-0.859339,0.003493,0.020081,-0.859339,0.467990,0.594222,0.823240,1.488799,1.199971,-12.199420
1790543319.7441,-0.008277,0.006455,-0.843769,-0.000038,0.015993,-0.843769,0.684107,0.019933,0.730965,-1.079176,0.307651,-6.610609
1790543319.7582,-0.026158,-0.001153,-0.847467,-0.007874,0.010849,-0.847467,0.594261,1.027671,0.457783,1.258831,1.014071,-3.932637
1790543319.7722,-0.040114,-0.010311,-0.842463,-0.017546,0.004501,-0.842463,0.659824,0.901400,0.571913,0.453943,1.497411,-8.822846
1790543319.7862,-0.053304,-0.020671,-0.834005,-0.028273,-0.003051,-0.834005,0.727816,0.829766,0.756462,0.722239,1.683311,-11.811308
1790543319.7998,-0.064491,-0.026669,-0.827713,-0.039139,-0.010136,-0.827713,0.486202,0.738705,0.883947,-0.082648,2.464091,-9.405014
1790543319.8135,-0.068690,-0.030727,-0.822948,-0.048004,-0.016313,-0.822948,0.380572,0.253048,0.854808,-0.427600,3.282051,-9.754315
1790543319.8274,-0.072132,-0.033605,-0.816303,-0.055242,-0.021501,-0.816303,0.226376,0.160774,0.709111,0.453943,2.055111,-9.405014
1790543319.8413,-0.071692,-0.036527,-0.811000,-0.060177,-0.026009,-0.811000,0.208163,-0.083269,0.462640,0.415615,1.646131,-10.103616
1790543319.8554,-0.067904,-0.039818,-0.802729,-0.062495,-0.030152,-0.802729,0.172953,-0.316384,0.394648,0.530599,0.716631,-12.471098
1790543319.8695,-0.051117,-0.036891,-0.795220,-0.059082,-0.032174,-0.795220,-0.243497,-1.225777,0.325442,-0.005993,1.274331,-12.975644
1790543319.8835,-0.045721,-0.029612,-0.781234,-0.055074,-0.031405,-0.781234,-0.629595,-0.646631,0.371579,3.865134,-0.361589,-9.715504
1790543319.8982,-0.034629,-0.019299,-0.772065,-0.048940,-0.027773,-0.772065,-0.765579,-0.944096,0.274448,2.102047,0.270471,-7.464455
1790543319.9135,-0.022228,-0.009219,-0.768501,-0.040927,-0.022207,-0.768501,-0.681803,-1.015730,0.142106,2.561982,0.865351,-7.697322
1790543319.9281,-0.006777,0.003424,-0.766047,-0.030682,-0.014518,-0.766047,-0.900348,-1.235490,-0.075225,3.251886,1.088431,-10.763406
1790543319.9423,0.003929,0.020036,-0.767148,-0.020299,-0.004151,-0.767148,-1.212383,-1.002374,-0.197854,5.398253,1.274331,-11.578441
1790543319.9576,-0.006467,0.021058,-0.761894,-0.016149,0.003411,-0.761894,-0.226499,0.755703,-0.650729,1.565455,-0.956469,-16.585084
1790543319.9715,0.003432,0.018188,-0.767250,-0.010275,0.007844,-0.767250,0.146242,-0.396518,-1.027113,-3.033903,1.385871,-12.005364
1790543319.9855,0.023868,0.016880,-0.810982,-0.000032,0.010555,-0.810982,0.274941,-0.923455,-0.810995,-5.678534,3.282051,-4.670049
1790543319.9996,0.019115,0.005603,-0.817497,0.005712,0.009070,-0.817497,0.680465,0.499519,-0.869274,-0.427600,0.382011,-8.861658
1790543320.0137,0.034576,-0.005585,-0.827882,0.014371,0.004673,-0.827882,0.730245,-0.842108,-1.126672,-1.960720,1.237151,-9.793126
1790543320.0274,0.047179,-0.016403,-0.843964,0.024213,-0.001650,-0.843964,0.715675,-0.823896,-1.239587,0.568927,1.237151,-9.327392
1790543320.0410,0.053644,-0.026651,-0.869338,0.033043,-0.009150,-0.869338,0.750885,-0.300600,-1.385285,-0.350944,1.869211,-6.649420
1790543320.0546,0.060606,-0.033272,-0.898044,0.041312,-0.016387,-0.898044,0.561479,-0.339453,-1.285725,-0.619240,2.538451,-6.183686
1790543320.0685,0.068492,-0.040238,-0.925326,0.049466,-0.023542,-0.925326,0.634327,-0.442655,-1.107246,-0.734224,5.066691,-9.754315
1790543320.0824,0.036922,-0.038935,-0.939251,0.045703,-0.028160,-0.939251,-0.142724,2.260025,-0.985832,4.056774,4.248731,-21.281238
1790543320.0963,0.043206,-0.028526,-0.948462,0.044953,-0.028270,-0.948462,-0.819001,-0.101481,-0.909341,-9.779628,2.055111,-19.612357
1790543320.1102,0.039000,-0.016921,-0.943321,0.043167,-0.024865,-0.943321,-1.046045,0.647645,-0.710222,-5.410238,-1.625708,-10.724595
1790543320.1241,0.037112,0.002222,-0.944623,0.041351,-0.016739,-0.944623,-1.542629,0.500733,-0.609448,-2.995575,-0.473129,-5.368651
1790543320.1382,0.029697,0.017291,-0.947788,0.037855,-0.006530,-0.947788,-1.291302,0.794556,-0.529314,-1.692424,-0.733389,-5.058161
1790543320.1520,0.016464,0.027823,-0.958184,0.031437,0.003776,-0.958184,-0.882136,1.170940,-0.698080,-0.964192,0.382011,-6.804665
1790543320.1659,0.008647,0.039912,-0.970993,0.024600,0.014617,-0.970993,-0.717013,0.747204,-0.617947,-1.232488,4.880791,-9.172147
1790543320.1799,0.020126,0.032708,-0.970176,0.023258,0.020044,-0.970176,0.358717,-0.721908,-0.178427,-3.072231,-1.253909,-17.865854
1790543320.1938,0.012937,0.032898,-0.968821,0.020162,0.023900,-0.968821,-0.046806,0.307685,0.359438,2.791950,1.571771,-13.053266
1790543320.2076,0.019428,0.032058,-0.959799,0.019942,0.026348,-0.959799,-0.039522,-0.457225,0.346082,-1.577440,0.010211,-8.667602
1790543320.2216,0.008903,0.023611,-0.964301,0.016630,0.025527,-0.964301,0.557836,0.577224,0.136036,0.913879,0.382011,-3.738581
1790543320.2356,-0.004626,0.012639,-0.968077,0.010253,0.021660,-0.968077,0.783667,0.790913,0.211312,2.063719,1.497411,-8.628791
1790543320.2505,-0.018342,0.000837,-0.964898,0.001675,0.015414,-0.964898,0.823733,0.796984,0.518490,0.798895,2.241011,-10.181238
1790543320.2641,-0.029092,-0.006961,-0.958456,-0.007555,0.008701,-0.958456,0.640398,0.735063,0.673900,-0.542584,2.612811,-9.715504
1790543320.2782,-0.035449,-0.009894,-0.949272,-0.015923,0.003122,-0.949272,0.279798,0.325897,0.873020,0.108991,3.021791,-10.258860
1790543320.2924,-0.039978,-0.013796,-0.937655,-0.023140,-0.001953,-0.937655,0.278584,0.188699,0.897303,0.185647,1.683311,-9.327392
1790543320.3070,-0.043848,-0.017414,-0.926167,-0.029352,-0.006591,-0.926167,0.221519,0.161988,0.785602,0.070663,1.162791,-9.016902
1790543320.3210,-0.035022,-0.018265,-0.918871,-0.031053,-0.010093,-0.918871,0.200879,-0.656344,0.581626,-1.040848,4.360271,-10.375294
1790543320.3350,-0.023414,-0.016365,-0.902546,-0.028761,-0.011975,-0.902546,-0.271423,-0.912528,0.739464,-0.542584,-0.844929,-12.432287
1790543320.3489,-0.017179,-0.010166,-0.892719,-0.025286,-0.011432,-0.892719,-0.499681,-0.714623,0.627763,3.405198,0.716631,-12.199420
1790543320.3628,-0.013695,-0.001168,-0.882642,-0.021809,-0.008353,-0.882642,-0.741296,-0.579853,0.552486,3.941790,-0.138509,-9.521448
1790543320.3768,-0.006065,0.013252,-0.878527,-0.017086,-0.001872,-0.878527,-1.103110,-0.879746,0.221025,3.788478,0.270471,-7.425644
1790543320.3907,0.003782,0.029696,-0.873806,-0.010825,0.007599,-0.873806,-1.274304,-0.991447,0.044975,3.021918,0.084571,-6.765853
1790543320.4047,0.016564,0.046746,-0.879996,-0.002609,0.019343,-0.879996,-1.184458,-1.106791,-0.043658,1.948735,1.869211,-7.231588
1790543320.4189,0.010224,0.038727,-0.873624,0.001241,0.025158,-0.873624,0.415782,0.370820,-0.269488,2.830278,-0.287229,-13.324944
1790543320.4325,0.015513,0.032224,-0.886784,0.005523,0.027278,-0.886784,0.555408,-0.117265,-0.696866,-3.263871,4.285911,-11.578441
1790543320.4466,0.018221,0.026608,-0.898704,0.009332,0.027077,-0.898704,0.351432,-0.097839,-0.860775,0.837223,1.832031,-11.617252
1790543320.4604,0.016804,0.021822,-0.909457,0.011574,0.025500,-0.909457,0.279798,0.157131,-0.800068,1.182175,1.237151,-9.715504
1790543320.4743,0.033370,0.015783,-0.906534,0.018112,0.022585,-0.906534,0.333220,-0.936811,-0.854704,-1.999048,0.567911,-8.124245
1790543320.4878,0.040497,0.007494,-0.923674,0.024828,0.018058,-0.923674,0.607616,-0.411087,-0.942123,-0.005993,1.571771,-6.727042
1790543320.5018,0.046059,-0.000833,-0.948302,0.031197,0.012390,-0.948302,0.640398,-0.273889,-1.000401,-0.082648,2.203831,-6.727042
1790543320.5159,0.058372,-0.008139,-0.966756,0.039350,0.006231,-0.966756,0.503200,-0.686698,-1.095105,-1.270816,2.426911,-10.025993
1790543320.5298,0.066507,-0.017974,-0.986838,0.047497,-0.001030,-0.986838,0.670752,-0.436584,-1.126672,-0.619240,2.203831,-9.676693
1790543320.5439,0.062322,-0.030674,-1.001303,0.051944,-0.009923,-1.001303,0.880798,0.381748,-0.698080,-0.849208,2.761531,-14.334035
1790543320.5577,0.035375,-0.025395,-1.016059,0.046974,-0.014565,-1.016059,-0.428047,2.126470,-0.719935,-3.378855,3.467951,-20.272147
1790543320.5717,0.040919,-0.013872,-1.014510,0.045157,-0.014357,-1.014510,-0.925845,-0.049273,-0.857133,-6.905029,0.939711,-14.566903
1790543320.5857,0.038268,-0.005132,-0.987817,0.043090,-0.011589,-0.987817,-0.953771,0.634289,-0.763644,-4.298727,-2.518028,-5.873196
1790543320.5996,0.037128,0.008306,-0.988485,0.041302,-0.005621,-0.988485,-1.117680,0.392675,-0.471036,-3.187215,-0.361589,-6.804665
1790543320.6136,0.029908,0.018894,-0.991644,0.037884,0.001734,-0.991644,-0.963484,0.668285,-0.437040,-1.002520,-0.770569,-6.494175
1790543320.6276,0.024684,0.034328,-0.993767,0.033924,0.011512,-0.993767,-1.148033,0.674356,-0.350835,-3.800463,1.311511,-8.434735
1790543320.6416,0.026077,0.037639,-0.994446,0.031570,0.019350,-0.994446,-0.403764,0.085497,-0.172357,-5.065286,-1.328269,-16.817952
1790543320.6555,0.029698,0.033651,-0.988969,0.031008,0.023640,-0.988969,0.234875,-0.328526,0.349725,-1.002520,1.274331,-16.507462
1790543320.6695,0.024267,0.031765,-0.992719,0.028986,0.026078,-0.992719,0.165668,0.138919,0.628977,1.795423,2.129471,-10.724595
1790543320.6835,0.022250,0.028497,-0.980189,0.026965,0.026803,-0.980189,0.217877,0.257905,0.352153,-2.573967,1.051251,-7.464455
1790543320.6975,0.011352,0.021495,-0.986915,0.022281,0.025211,-0.986915,0.435208,0.640360,0.289017,0.875551,0.456371,-7.231588
1790543320.7113,-0.000534,0.010242,-0.995184,0.015437,0.020720,-0.995184,0.823733,0.661000,0.403147,1.948735,1.757671,-9.793126
1790543320.7250,-0.016332,0.000681,-1.000877,0.005906,0.014709,-1.000877,0.804307,0.934182,0.654474,1.795423,2.947431,-8.822846
1790543320.7388,-0.024278,-0.005171,-0.991278,-0.003149,0.008745,-0.991278,0.498343,0.491020,0.779531,-0.504256,2.947431,-10.336483
1790543320.7532,-0.033097,-0.011051,-0.980601,-0.012133,0.002806,-0.980601,0.412139,0.477665,0.880305,0.262303,1.571771,-9.405014
1790543320.7671,-0.039164,-0.015418,-0.972995,-0.020243,-0.002661,-0.972995,0.372073,0.288259,0.836595,0.568927,2.389731,-8.861658
1790543320.7812,-0.035769,-0.018695,-0.963572,-0.024901,-0.007471,-0.963572,0.274941,-0.337025,0.695755,0.032335,2.092291,-8.784035
1790543320.7956,-0.022102,-0.022638,-0.952450,-0.024061,-0.012021,-0.952450,0.187523,-1.166284,0.822026,2.140375,0.047391,-13.480189
1790543320.8097,-0.013879,-0.017280,-0.942743,-0.021006,-0.013599,-0.942743,-0.449902,-0.695197,0.553700,0.453943,0.270471,-11.151518
1790543320.8238,-0.011209,-0.009018,-0.944983,-0.018067,-0.012225,-0.944983,-0.706086,-0.479079,0.417716,2.906934,-0.584669,-7.619700
1790543320.8381,-0.006312,0.007001,-0.955762,-0.014541,-0.006457,-0.955762,-1.128607,-0.625990,0.120252,3.405198,1.088431,-7.580888
1790543320.8520,0.000333,0.024386,-0.959358,-0.010079,0.002796,-0.959358,-1.311942,-0.761974,-0.048514,4.555037,0.493551,-9.172147
1790543320.8660,0.003040,0.039579,-0.958039,-0.006143,0.013831,-0.958039,-1.208740,-0.293315,-0.260989,2.868606,0.047391,-12.665154
1790543320.8800,0.011199,0.039551,-0.952584,-0.000941,0.021547,-0.952584,0.044254,-0.354023,-0.401829,-3.877119,3.914111,-12.781588
1790543320.8941,0.001678,0.033904,-0.971674,-0.000155,0.025254,-0.971674,0.447349,0.798198,-0.696866,0.300631,3.876931,-12.471098
1790543320.9082,-0.001515,0.026852,-0.983966,-0.000563,0.025734,-0.983966,0.410925,0.273689,-0.838921,1.910407,0.716631,-10.530539
1790543320.9222,0.000464,0.031218,-0.996533,-0.000255,0.027379,-0.996533,-0.357627,-0.049273,-0.836492,0.722239,1.162791,-8.201867
1790543320.9363,0.006961,0.028120,-1.000191,0.001910,0.027601,-1.000191,0.129244,-0.276317,-0.916626,-0.389272,0.642271,-8.085434
1790543320.9500,0.013242,0.019586,-1.006358,0.005310,0.025197,-1.006358,0.600331,-0.134263,-1.108460,-1.769080,1.571771,-7.580888
1790543320.9637,0.022927,0.013941,-1.025152,0.010595,0.021820,-1.025152,0.478917,-0.469366,-1.118173,-0.887536,2.352551,-6.649420
1790543320.9778,0.030790,0.008556,-1.045238,0.016653,0.017841,-1.045238,0.423067,-0.307885,-1.188594,-1.155832,2.724351,-8.085434
1790543320.9920,0.033685,0.000306,-1.066843,0.021763,0.012580,-1.066843,0.586976,-0.065057,-1.080535,0.070663,2.724351,-10.336483
1790543321.0063,0.043455,-0.005714,-1.081432,0.028270,0.007092,-1.081432,0.460705,-0.451154,-0.974904,-2.267343,3.244871,-10.181238
1790543321.0202,0.038831,-0.008704,-1.098379,0.031439,0.002353,-1.098379,0.267656,0.465523,-0.727220,-1.155832,4.025651,-12.393476
1790543321.0342,0.022841,-0.009186,-1.109907,0.028859,-0.001108,-1.109907,-0.026166,1.373702,-0.891129,-2.458983,2.017931,-13.868301
1790543321.0482,0.019993,-0.001356,-1.113192,0.026199,-0.001183,-1.113192,-0.523964,0.518946,-0.677440,-5.141942,3.542311,-12.315854
1790543321.0621,0.015670,0.006443,-1.107367,0.023040,0.001105,-1.107367,-0.617453,0.618505,-0.400615,-3.723807,0.902531,-8.279490
1790543321.0760,0.012846,0.014109,-1.096286,0.019982,0.005006,-1.096286,-0.644164,0.478879,-0.071583,-3.340527,0.084571,-6.688231
1790543321.0899,0.011278,0.018031,-1.095670,0.017371,0.008914,-1.095670,-0.267780,0.181414,-0.042443,-1.117504,1.794851,-8.589979
1790543321.1039,0.017588,0.012745,-1.087293,0.017436,0.010063,-1.087293,0.301652,-0.449940,0.306015,-1.922392,0.307651,-13.519000
1790543321.1177,0.008676,0.002660,-1.082178,0.014808,0.007842,-1.082178,0.578477,0.437598,0.727323,1.488799,-1.551348,-12.277042
1790543321.1316,0.003779,-0.004353,-1.070862,0.011499,0.004184,-1.070862,0.397570,0.327111,0.552486,-1.232488,-0.398769,-10.220049
1790543321.1456,-0.007198,-0.012813,-1.064069,0.005890,-0.000915,-1.064069,0.542053,0.824909,0.293874,-1.002520,0.270471,-7.891378
1790543321.1597,-0.021031,-0.023442,-1.067273,-0.002186,-0.007673,-1.067273,0.754527,0.839479,0.366723,1.488799,1.348691,-9.521448
1790543321.1739,-0.032127,-0.031450,-1.060641,-0.011169,-0.014806,-1.060641,0.641612,0.747204,0.531846,-0.274288,2.017931,-7.464455
1790543321.1877,-0.044095,-0.038328,-1.054507,-0.021047,-0.021863,-1.054507,0.545695,0.745990,0.733393,0.837223,2.389731,-10.646972
1790543321.2015,-0.050021,-0.044507,-1.042623,-0.029739,-0.028656,-1.042623,0.463133,0.396317,0.749177,-0.542584,1.683311,-9.599070
1790543321.2157,-0.057287,-0.052077,-1.031547,-0.038003,-0.035683,-1.031547,0.522626,0.463095,0.738250,-0.120976,1.237151,-9.560259
1790543321.2298,-0.050471,-0.055316,-1.018053,-0.041744,-0.041573,-1.018053,0.136529,-0.459653,0.610765,-1.577440,-0.175689,-12.703965
1790543321.2441,-0.035156,-0.054467,-1.008383,-0.039767,-0.045441,-1.008383,-0.090516,-1.151714,0.605909,0.415615,0.976891,-11.888930
1790543321.2587,-0.026586,-0.044508,-1.006104,-0.035813,-0.045161,-1.006104,-0.758294,-0.766831,0.591339,2.140375,-0.101329,-10.918651
1790543321.2731,-0.022179,-0.034092,-1.012579,-0.031723,-0.041840,-1.012579,-0.850568,-0.584710,0.472353,3.826806,-1.068009,-9.909560
1790543321.2872,-0.014134,-0.017843,-1.019444,-0.026446,-0.034641,-1.019444,-1.231809,-0.809326,0.161532,3.328542,-0.026969,-9.405014
1790543321.3012,-0.007343,-0.000493,-1.030338,-0.020715,-0.024397,-1.030338,-1.250021,-0.812968,0.076543,5.168285,1.125611,-9.210958
1790543321.3155,-0.000233,0.018433,-1.032823,-0.014571,-0.011548,-1.032823,-1.395718,-0.778972,-0.048514,4.056774,0.344831,-8.124245
1790543321.3296,0.009328,0.038516,-1.040708,-0.007401,0.003471,-1.040708,-1.427286,-0.914956,-0.139575,2.561982,1.125611,-6.183686
1790543321.3436,0.006396,0.039146,-1.033218,-0.003262,0.014174,-1.033218,-0.096586,0.370820,-0.275559,-2.535639,1.980751,-13.868301
1790543321.3574,0.005751,0.036026,-1.046690,-0.000558,0.020729,-1.046690,0.290725,0.233622,-0.726005,-1.309144,4.620531,-13.402567
1790543321.3716,0.005062,0.034476,-1.063291,0.001128,0.024853,-1.063291,0.106176,0.189913,-0.888700,0.453943,3.207691,-14.023546
1790543321.3857,0.007192,0.034846,-1.068489,0.002947,0.027851,-1.068489,-0.117227,0.053929,-0.923911,-0.350944,0.530731,-5.795574
1790543321.3996,0.023091,0.029119,-1.047133,0.008990,0.028232,-1.047133,0.289511,-0.700053,-0.988260,-2.497311,0.233291,-5.058161
1790543321.4134,0.030598,0.015155,-1.054731,0.015473,0.024309,-1.054731,0.866228,-0.355237,-1.070822,-0.312616,0.121751,-7.270399
1790543321.4271,0.046946,0.004132,-1.066978,0.024915,0.018256,-1.066978,0.841946,-0.899172,-1.171596,-1.999048,2.612811,-7.736133
1790543321.4411,0.054591,-0.003314,-1.096710,0.033818,0.011785,-1.096710,0.611259,-0.426871,-1.180095,0.185647,3.319231,-7.697322
1790543321.4552,0.057167,-0.011523,-1.124211,0.040822,0.004792,-1.124211,0.631899,-0.078412,-1.130315,0.300631,3.653851,-9.599070
1790543321.4695,0.060987,-0.017525,-1.140049,0.046872,-0.001903,-1.140049,0.518984,-0.100267,-0.734504,-2.343999,4.917971,-11.500819
1790543321.4834,0.043565,-0.013102,-1.153465,0.045880,-0.005263,-1.153465,-0.299348,1.385843,-0.576666,-1.999048,4.100011,-14.993826
1790543321.4975,0.047676,-0.003492,-1.141126,0.046418,-0.004731,-1.141126,-0.702443,0.112208,-0.536599,-8.208181,2.278191,-11.229140
1790543321.5116,0.048273,0.005107,-1.135300,0.046975,-0.001780,-1.135300,-0.721869,0.307685,-0.445539,-5.640206,0.121751,-9.521448
1790543321.5257,0.045088,0.014585,-1.133326,0.046409,0.003129,-1.133326,-0.753437,0.455810,-0.222136,-2.573967,0.456371,-6.571797
1790543321.5399,0.039044,0.022774,-1.137328,0.044199,0.009023,-1.137328,-0.812930,0.606364,-0.298627,-1.079176,-0.807749,-4.087881
1790543321.5539,0.025239,0.034436,-1.144170,0.038511,0.016647,-1.144170,-0.799574,1.073809,-0.320482,-0.350944,1.720491,-5.679140
1790543321.5682,0.021217,0.032746,-1.142852,0.033323,0.021477,-1.142852,0.011472,0.435170,-0.100722,-3.455511,0.270471,-13.519000
1790543321.5820,0.021130,0.024435,-1.143354,0.029665,0.022364,-1.143354,0.583333,-0.185257,0.446856,1.757095,1.757671,-13.907112
1790543321.5959,0.017802,0.018699,-1.136792,0.026106,0.021265,-1.136792,0.361145,0.118279,0.607123,-0.274288,0.902531,-15.381938
1790543321.6099,0.009952,0.011661,-1.137533,0.021260,0.018383,-1.137533,0.415782,0.370820,0.562199,1.143847,-0.026969,-8.939280
1790543321.6241,-0.002282,0.001182,-1.138803,0.014197,0.013223,-1.138803,0.741172,0.722921,0.420145,0.530599,0.753811,-4.786483
1790543321.6379,-0.014748,-0.010475,-1.139560,0.005514,0.006113,-1.139560,0.888083,0.737491,0.528203,1.182175,1.757671,-8.124245
1790543321.6517,-0.031194,-0.019495,-1.136676,-0.005499,-0.001569,-1.136676,0.713247,1.038598,0.698183,0.990535,2.129471,-8.667602
1790543321.6659,-0.046315,-0.029208,-1.126714,-0.017744,-0.009860,-1.126714,0.716889,0.958465,0.875448,0.223975,2.278191,-10.685784
1790543321.6800,-0.056996,-0.038144,-1.116736,-0.029519,-0.018346,-1.116736,0.673180,0.627004,0.925228,0.683911,2.426911,-10.181238
1790543321.6944,-0.048180,-0.042097,-1.104577,-0.035118,-0.025471,-1.104577,0.458277,-0.729192,0.851165,0.530599,6.107730,-11.500819
1790543321.7085,-0.032888,-0.036171,-1.096272,-0.034449,-0.028681,-1.096272,-0.448687,-1.236704,0.586482,1.450471,1.125611,-10.996273
1790543321.7225,-0.025472,-0.028178,-1.088282,-0.031756,-0.028530,-1.088282,-0.651449,-0.803255,0.632620,4.133430,0.010211,-12.626343
1790543321.7364,-0.018638,-0.017007,-1.082112,-0.027820,-0.025073,-1.082112,-0.893063,-0.836037,0.427430,4.631693,-0.175689,-9.172147
1790543321.7507,-0.010096,-0.003127,-1.075353,-0.022503,-0.018489,-1.075353,-1.078827,-0.868819,0.276876,3.290214,-0.361589,-8.473546
1790543321.7648,-0.005311,0.013578,-1.074315,-0.017345,-0.008869,-1.074315,-1.225738,-0.673342,0.293874,3.980118,0.567911,-7.930189
1790543321.7788,0.001579,0.031912,-1.078322,-0.011668,0.003365,-1.078322,-1.292516,-0.834823,0.182173,3.941790,1.571771,-7.464455
1790543321.7928,-0.015192,0.039855,-1.075616,-0.012725,0.014312,-1.075616,-0.661162,0.982748,0.004908,6.433109,0.679451,-15.498371
1790543321.8070,0.001276,0.041705,-1.076042,-0.008525,0.022530,-1.076042,-0.131796,-1.024229,-0.489248,-1.692424,2.984611,-13.945924
1790543321.8210,-0.005329,0.039243,-1.098025,-0.007566,0.027544,-1.098025,0.248230,0.544443,-0.642230,0.952207,3.356411,-9.987182
1790543321.8349,-0.004148,0.033817,-1.105735,-0.006541,0.029426,-1.105735,0.350218,0.086711,-0.804925,-0.274288,1.311511,-8.357112
1790543321.8488,0.005811,0.034239,-1.115670,-0.002835,0.030869,-1.115670,-0.062590,-0.532501,-0.971262,-0.235960,1.199971,-6.843476
1790543321.8627,0.014819,0.025348,-1.119473,0.002461,0.029213,-1.119473,0.538410,-0.435370,-1.053824,-0.504256,0.605091,-7.813756
1790543321.8763,0.026045,0.011848,-1.124541,0.009536,0.024004,-1.124541,0.890511,-0.492435,-1.307579,-1.884064,0.902531,-8.900469
1790543321.8899,0.039071,0.004008,-1.152472,0.018397,0.018005,-1.152472,0.673180,-0.719479,-1.277226,-0.849208,2.724351,-6.416553
1790543321.9038,0.045224,-0.004030,-1.179146,0.026445,0.011394,-1.179146,0.606402,-0.270247,-1.239587,-0.235960,2.464091,-7.580888
1790543321.9178,0.055619,-0.013677,-1.198605,0.035197,0.003873,-1.198605,0.691392,-0.524002,-1.153383,-1.692424,2.649991,-9.831937
1790543321.9317,0.063454,-0.023067,-1.216829,0.043674,-0.004209,-1.216829,0.714461,-0.332168,-0.983403,-2.535639,3.244871,-9.793126
1790543321.9456,0.049100,-0.020048,-1.232832,0.045302,-0.008961,-1.232832,-0.260495,1.251073,-0.915412,-3.570495,3.579491,-17.322497
1790543321.9595,0.054438,-0.008711,-1.219899,0.048043,-0.008886,-1.219899,-0.877280,0.029646,-0.689581,-8.476477,1.720491,-12.082986
1790543321.9737,0.053573,-0.001350,-1.205891,0.049702,-0.006625,-1.205891,-0.685445,0.355036,-0.316839,-4.490366,-0.807749,-8.628791
1790543321.9898,0.043675,0.012040,-1.207013,0.047894,-0.001026,-1.207013,-0.874851,0.622148,-0.069154,-0.197632,0.493551,-4.553616
1790543322.0048,0.034865,0.023052,-1.210616,0.043985,0.006198,-1.210616,-0.689088,0.818839,-0.196639,-2.075704,1.608951,-4.980539
1790543322.0193,0.022375,0.034526,-1.216686,0.037502,0.014696,-1.216686,-0.766793,0.891687,-0.134718,-0.235960,2.575631,-9.637881
1790543322.0340,0.030413,0.026258,-1.205805,0.035375,0.018165,-1.205805,0.407283,-0.503362,0.121466,-3.148887,-1.811608,-17.516553
1790543322.0490,0.019427,0.020128,-1.198819,0.030591,0.018754,-1.198819,0.366002,0.549299,0.627763,1.258831,0.828171,-12.936833
1790543322.0629,0.014122,0.016988,-1.190532,0.025650,0.018224,-1.190532,0.188737,0.282188,0.542773,-0.235960,1.014071,-11.384385
1790543322.0766,0.004907,0.008168,-1.187097,0.019427,0.015207,-1.187097,0.563907,0.464309,0.514848,1.335487,0.121751,-7.425644
1790543322.0907,-0.004608,-0.003737,-1.182441,0.012217,0.009524,-1.182441,0.827376,0.538372,0.533060,0.568927,0.828171,-7.231588
1790543322.1042,-0.018131,-0.012080,-1.178238,0.003112,0.003043,-1.178238,0.663467,0.827338,0.786816,0.722239,1.683311,-7.736133
1790543322.1179,-0.029904,-0.019207,-1.170882,-0.006793,-0.003632,-1.170882,0.591832,0.742348,0.904587,0.032335,2.315371,-8.784035
1790543322.1319,-0.038112,-0.025549,-1.156905,-0.016189,-0.010207,-1.156905,0.427923,0.449739,1.028430,0.185647,1.237151,-10.569350
1790543322.1458,-0.049511,-0.031908,-1.149798,-0.026185,-0.016717,-1.149798,0.484988,0.605150,1.010218,1.795423,2.092291,-10.064805
1790543322.1596,-0.044304,-0.029512,-1.147833,-0.031621,-0.020556,-1.147833,-0.012810,-0.491221,0.738250,0.492271,4.211551,-9.288581
1790543322.1734,-0.037353,-0.026194,-1.141618,-0.033340,-0.022247,-1.141618,-0.210716,-0.827538,0.650832,5.129957,2.538451,-11.927742
1790543322.1873,-0.036392,-0.017065,-1.127347,-0.034256,-0.020693,-1.127347,-0.735225,-0.358879,0.706682,3.941790,0.344831,-11.462007
1790543322.2013,-0.031280,-0.010040,-1.108172,-0.033363,-0.017497,-1.108172,-0.670875,-0.655130,0.439571,4.440053,-1.365448,-10.957462
1790543322.2153,-0.027060,0.004093,-1.103327,-0.031472,-0.011020,-1.103327,-1.105538,-0.616277,0.235595,4.133430,-0.064149,-8.163056
1790543322.2292,-0.021456,0.021742,-1.103322,-0.028468,-0.001192,-1.103322,-1.336225,-0.681841,0.032833,4.056774,0.419191,-8.395923
1790543322.2432,-0.004037,0.042557,-1.094015,-0.021138,0.011933,-1.094015,-1.577840,-1.344763,-0.077653,1.067191,0.493551,-7.774944
1790543322.2573,-0.008055,0.046070,-1.082634,-0.017213,0.022174,-1.082634,-0.448687,0.110994,-0.114078,4.210086,-1.439808,-11.811308
1790543322.2716,-0.001020,0.038671,-1.090814,-0.012355,0.027123,-1.090814,0.639184,-0.004350,-0.462537,-8.093197,4.137191,-7.774944
1790543322.2856,-0.001007,0.033855,-1.097296,-0.008951,0.029143,-1.097296,0.332006,0.248192,-0.745432,-2.114032,2.389731,-11.500819
1790543322.2996,0.000246,0.035544,-1.107401,-0.006192,0.031063,-1.107401,-0.164578,0.038145,-0.812209,0.223975,1.088431,-7.076343
1790543322.3136,0.012850,0.030847,-1.098569,-0.000479,0.030998,-1.098569,0.152313,-0.747405,-0.716292,-0.465928,-0.510309,-7.697322
1790543322.3272,0.031281,0.018481,-1.099001,0.009049,0.027243,-1.099001,0.855301,-0.998732,-0.939694,-2.650623,1.014071,-6.765853
1790543322.3408,0.039655,0.005963,-1.124342,0.018231,0.020859,-1.124342,0.993713,-0.486364,-0.937266,-0.159304,2.092291,-5.756762
1790543322.3545,0.051167,-0.000410,-1.158852,0.028112,0.014478,-1.158852,0.613687,-0.707338,-1.029541,-0.389272,3.616671,-7.192776
1790543322.3684,0.055392,-0.007181,-1.180353,0.036296,0.007981,-1.180353,0.482560,-0.184043,-1.028327,-0.159304,2.835891,-10.802217
1790543322.3825,0.062345,-0.016210,-1.197488,0.044111,0.000723,-1.197488,0.639184,-0.300600,-0.945765,-2.114032,2.984611,-11.500819
1790543322.3964,0.053736,-0.020459,-1.216057,0.046998,-0.005631,-1.216057,0.363574,0.769059,-0.619161,-2.382327,4.434631,-13.208511
1790543322.4103,0.038218,-0.013829,-1.226391,0.044364,-0.008091,-1.226391,-0.509395,1.183081,-0.492890,-0.465928,2.389731,-14.489280
1790543322.4244,0.036664,-0.006813,-1.218930,0.042054,-0.007707,-1.218930,-0.624738,0.365964,-0.426112,-4.605350,-0.064149,-12.044175
1790543322.4382,0.034878,0.002601,-1.214903,0.039901,-0.004615,-1.214903,-0.758294,0.510447,-0.441896,-4.605350,0.530731,-7.153965
1790543322.4521,0.030422,0.011944,-1.212001,0.037058,0.000353,-1.212001,-0.747366,0.552942,-0.188140,-1.845736,0.344831,-4.786483
1790543322.4661,0.028049,0.020798,-1.212699,0.034355,0.006486,-1.212699,-0.768007,0.620934,-0.229421,-4.337055,-0.435949,-4.475993
1790543322.4800,0.025920,0.031181,-1.211399,0.031825,0.013895,-1.211399,-0.831142,0.372034,-0.185712,-2.880591,0.567911,-8.201867
1790543322.4940,0.031433,0.027754,-1.211386,0.031707,0.018053,-1.211386,0.160812,-0.480293,0.123894,0.607255,0.530731,-16.817952
1790543322.5079,0.029612,0.026708,-1.207512,0.031078,0.020649,-1.207512,0.012687,-0.041988,0.543987,0.875551,0.530731,-13.751868
1790543322.5223,0.028334,0.021737,-1.199138,0.030255,0.020976,-1.199138,0.379357,0.029646,0.494207,-0.925864,1.832031,-9.094525
1790543322.5364,0.016521,0.009875,-1.201248,0.026135,0.017646,-1.201248,0.818877,0.664643,0.425001,0.990535,0.753811,-6.882287
1790543322.5504,0.001644,-0.001403,-1.199288,0.018787,0.011931,-1.199288,0.805521,0.891687,0.604694,0.837223,1.125611,-7.813756
1790543322.5639,-0.011706,-0.010416,-1.195818,0.009639,0.005227,-1.195818,0.739958,0.813982,0.762533,0.722239,1.906391,-7.425644
1790543322.5776,-0.019126,-0.017144,-1.185802,0.001010,-0.001484,-1.185802,0.522626,0.390247,0.927656,0.377287,2.017931,-10.841028
1790543322.5915,-0.028072,-0.021862,-1.175577,-0.007715,-0.007598,-1.175577,0.385428,0.477665,0.999291,0.453943,1.943571,-8.589979
1790543322.6053,-0.036039,-0.025790,-1.168145,-0.016212,-0.013056,-1.168145,0.378143,0.387818,0.996862,1.067191,2.835891,-9.094525
1790543322.6192,-0.036845,-0.031120,-1.165157,-0.022402,-0.018475,-1.165157,0.501986,-0.120907,0.690898,2.370342,5.066691,-13.984735
1790543322.6333,-0.028775,-0.029530,-1.154374,-0.024314,-0.021792,-1.154374,-0.211930,-0.797184,0.627763,3.175230,-0.287229,-13.557812
1790543322.6472,-0.022909,-0.016905,-1.150451,-0.023892,-0.020326,-1.150451,-0.867566,-0.598065,0.541559,1.872079,2.389731,-11.190329
1790543322.6611,-0.017277,-0.007388,-1.136867,-0.021908,-0.016444,-1.136867,-0.832356,-0.777758,0.484494,5.014973,-1.142369,-9.055714
1790543322.6752,-0.014560,0.008642,-1.139615,-0.019704,-0.008918,-1.139615,-1.134678,-0.583495,0.320585,4.248414,1.014071,-6.455364
1790543322.6892,-0.008617,0.020970,-1.130329,-0.016378,0.000048,-1.130329,-0.980482,-0.732835,0.251379,3.673494,0.047391,-8.240679
1790543322.7034,-0.001100,0.037774,-1.133515,-0.011794,0.011366,-1.133515,-1.167460,-0.868819,0.218597,4.171758,1.571771,-7.969000
1790543322.7174,-0.005309,0.038221,-1.126175,-0.009849,0.019423,-1.126175,-0.143938,0.115850,-0.041229,4.555037,0.270471,-13.674245
1790543322.7314,-0.001768,0.032874,-1.129451,-0.007425,0.023458,-1.129451,0.432780,0.005363,-0.454038,-3.493839,3.319231,-10.802217
1790543322.7454,-0.004740,0.030418,-1.135860,-0.006619,0.025546,-1.135860,0.114675,0.261547,-0.609448,1.220503,1.274331,-11.267951
1790543322.7596,-0.004536,0.027746,-1.144653,-0.005994,0.026206,-1.144653,0.124388,0.021147,-0.741789,1.450471,0.902531,-8.706413
1790543322.7742,0.010898,0.019074,-1.135862,-0.000927,0.024066,-1.135862,0.471632,-0.844536,-0.775785,-1.424128,0.158931,-8.706413
1790543322.7880,0.017148,0.003773,-1.142448,0.004496,0.017978,-1.142448,1.004641,-0.351594,-0.944551,0.415615,0.344831,-7.309210
1790543322.8017,0.034930,-0.009050,-1.152047,0.013626,0.009870,-1.152047,0.912366,-0.958665,-1.177666,-2.650623,1.646131,-8.007811
1790543322.8159,0.043108,-0.017715,-1.190866,0.022471,0.001594,-1.190866,0.678036,-0.571354,-1.133957,1.757095,2.984611,-8.861658
1790543322.8299,0.052025,-0.027625,-1.210722,0.031337,-0.007171,-1.210722,0.682893,-0.494863,-1.125458,-0.580912,1.794851,-8.978091
1790543322.8439,0.052506,-0.038494,-1.232550,0.037688,-0.016568,-1.232550,0.846802,0.081854,-0.698080,-1.194160,2.910251,-9.405014
1790543322.8578,0.036819,-0.034264,-1.248746,0.037427,-0.021877,-1.248746,-0.271423,1.283855,-0.588807,-3.723807,4.843611,-18.991378
1790543322.8718,0.036468,-0.023114,-1.241420,0.037140,-0.022248,-1.241420,-0.879708,0.384176,-0.692009,-7.441621,1.125611,-13.557812
1790543322.8860,0.036601,-0.013770,-1.223345,0.036978,-0.019705,-1.223345,-0.856639,0.368392,-0.580308,-3.570495,-0.807749,-5.834385
1790543322.9002,0.035344,-0.003211,-1.215413,0.036488,-0.014756,-1.215413,-0.928274,0.413315,-0.481963,-2.918919,-0.696209,-5.756762
1790543322.9140,0.022485,0.003328,-1.219940,0.032287,-0.009331,-1.219940,-0.505752,1.132087,-0.435825,-1.270816,0.828171,-5.174595
1790543322.9280,0.013436,0.013374,-1.221909,0.026632,-0.002520,-1.221909,-0.761936,0.905043,-0.347193,-3.072231,1.088431,-8.434735
1790543322.9419,0.013911,0.016171,-1.219056,0.022816,0.003088,-1.219056,-0.334558,0.215410,-0.129862,-6.176798,-0.733389,-14.450469
1790543322.9559,0.021128,0.011544,-1.209051,0.022309,0.005625,-1.209051,0.281012,-0.565283,0.429858,-1.654096,1.014071,-17.283686
1790543322.9699,0.016199,0.007201,-1.199033,0.020476,0.006097,-1.199033,0.267656,0.221481,0.743107,-0.235960,0.567911,-10.724595
1790543322.9839,0.009074,0.002516,-1.198234,0.017056,0.005023,-1.198234,0.342933,0.295543,0.686042,0.683911,0.679451,-4.864105
1790543322.9978,0.007513,-0.007320,-1.185399,0.014193,0.001320,-1.185399,0.639184,0.148632,0.489351,-1.424128,0.158931,-6.765853
1790543323.0121,-0.008042,-0.014777,-1.188320,0.007523,-0.003509,-1.188320,0.552980,0.867404,0.720038,1.718767,1.571771,-8.900469
1790543323.0260,-0.023793,-0.023635,-1.182463,-0.001872,-0.009547,-1.182463,0.680465,0.959679,0.939798,0.837223,1.757671,-8.900469
1790543323.0396,-0.033416,-0.029510,-1.174119,-0.011335,-0.015536,-1.174119,0.510485,0.534729,1.090351,0.645583,3.058971,-10.918651
1790543323.0535,-0.042203,-0.032897,-1.170813,-0.020595,-0.020744,-1.170813,0.324721,0.382962,1.112206,1.872079,2.649991,-8.978091
1790543323.0673,-0.049548,-0.036283,-1.163264,-0.029281,-0.025406,-1.163264,0.311366,0.384176,0.979864,0.645583,2.538451,-9.094525
1790543323.0812,-0.044000,-0.037138,-1.161450,-0.033697,-0.028925,-1.161450,0.226376,-0.493649,0.704254,0.300631,4.732071,-10.375294
1790543323.0951,-0.037361,-0.032078,-1.161969,-0.034796,-0.029871,-1.161969,-0.327273,-0.802041,0.591339,5.666549,2.649991,-12.315854
1790543323.1090,-0.038222,-0.023329,-1.154064,-0.035824,-0.027909,-1.154064,-0.717013,-0.221681,0.562199,4.976645,0.047391,-13.053266
1790543323.1229,-0.032551,-0.014274,-1.146344,-0.034842,-0.023818,-1.146344,-0.755865,-0.668485,0.354581,3.788478,-0.287229,-10.142427
1790543323.1369,-0.028437,-0.001159,-1.145755,-0.032921,-0.017020,-1.145755,-1.013263,-0.629633,0.168817,4.095102,0.084571,-6.959909
1790543323.1509,-0.018962,0.012619,-1.146743,-0.028733,-0.008128,-1.146743,-1.008407,-0.896744,0.083827,2.446998,0.865351,-7.153965
1790543323.1648,-0.013471,0.025202,-1.152392,-0.024155,0.001871,-1.152392,-0.908847,-0.588352,-0.066726,2.255358,1.237151,-6.882287
1790543323.1786,-0.021617,0.021761,-1.134851,-0.023393,0.007838,-1.134851,0.108604,0.804269,-0.280415,-3.685479,-0.287229,-15.847672
1790543323.1926,-0.009067,0.020026,-1.146309,-0.019096,0.011494,-1.146309,0.200879,-0.559213,-0.965191,-4.835318,4.843611,-14.683336
1790543323.2064,-0.010769,0.015518,-1.163637,-0.016597,0.012701,-1.163637,0.345362,0.159560,-0.749074,1.948735,2.724351,-12.626343
1790543323.2204,-0.010414,0.011258,-1.167317,-0.014742,0.012268,-1.167317,0.248230,0.098852,-0.633731,-0.197632,0.716631,-7.386832
1790543323.2343,0.007649,0.003445,-1.161149,-0.008025,0.009621,-1.161149,0.472846,-1.070366,-0.668941,-2.535639,0.493551,-10.724595
1790543323.2479,0.012656,-0.008351,-1.169103,-0.001821,0.004230,-1.169103,0.801879,-0.180400,-0.972476,-0.849208,0.939711,-9.637881
1790543323.2617,0.024001,-0.015016,-1.188470,0.005926,-0.001544,-1.188470,0.550552,-0.625990,-1.038040,-1.040848,2.278191,-7.309210
1790543323.2761,0.032085,-0.019332,-1.208742,0.013774,-0.006880,-1.208742,0.338077,-0.401374,-1.000401,-0.695896,2.241011,-7.813756
1790543323.2902,0.034829,-0.027720,-1.223825,0.020090,-0.013132,-1.223825,0.576048,-0.128192,-0.847420,0.223975,1.608951,-9.521448
1790543323.3042,0.046887,-0.033707,-1.233685,0.028129,-0.019305,-1.233685,0.442493,-0.610207,-0.785498,-3.263871,2.166651,-9.443825
1790543323.3180,0.028712,-0.034396,-1.257197,0.028304,-0.023832,-1.257197,0.215448,1.391914,-0.454038,-0.734224,5.029511,-10.530539
1790543323.3320,0.018059,-0.026190,-1.266568,0.025231,-0.024539,-1.266568,-0.555532,0.911113,-0.392116,-2.420655,2.873071,-12.626343
1790543323.3459,0.015628,-0.017334,-1.257545,0.022350,-0.022378,-1.257545,-0.737653,0.467952,-0.251276,-4.758662,-0.138509,-9.521448
1790543323.3597,0.016401,-0.013022,-1.239856,0.020565,-0.019571,-1.239856,-0.519108,0.242121,0.042547,-4.605350,-1.885968,-7.425644
1790543323.3736,0.013611,0.001655,-1.238197,0.018479,-0.013203,-1.238197,-1.002336,0.353822,0.081399,-2.152360,1.720491,-6.688231
1790543323.3876,0.006189,0.010181,-1.232535,0.014792,-0.006188,-1.232535,-0.848140,0.694996,0.154248,-2.497311,-1.885968,-7.348021
1790543323.4013,-0.000292,0.020742,-1.226823,0.010267,0.001891,-1.226823,-0.861496,0.596651,0.173674,-2.190688,0.158931,-8.279490
1790543323.4146,0.005346,0.016805,-1.221039,0.008791,0.006365,-1.221039,0.086749,-0.428085,0.410432,-2.458983,-2.964188,-16.235784
1790543323.4276,0.007476,0.009709,-1.209068,0.008396,0.007368,-1.209068,0.454634,-0.293315,0.868163,-1.002520,-0.101329,-15.032637
1790543323.4408,-0.001221,0.007779,-1.204251,0.005511,0.007492,-1.204251,0.136529,0.399960,0.962866,1.527127,1.385871,-11.384385
1790543323.4547,-0.005613,0.003529,-1.193186,0.002174,0.006303,-1.193186,0.293153,0.199626,0.789244,-0.235960,0.902531,-7.309210
1790543323.4686,-0.014001,-0.001108,-1.191874,-0.002679,0.004080,-1.191874,0.379357,0.364750,0.779531,1.258831,1.534591,-6.727042
1790543323.4822,-0.026206,-0.005020,-1.192584,-0.009737,0.001350,-1.192584,0.393927,0.617291,0.882733,1.872079,2.426911,-7.115154
1790543323.4958,-0.037440,-0.011506,-1.187922,-0.018048,-0.002507,-1.187922,0.533554,0.573582,0.970151,1.833751,2.352551,-8.978091
1790543323.5097,-0.045128,-0.015646,-1.179183,-0.026172,-0.006449,-1.179183,0.356289,0.367178,0.975008,1.105519,3.021791,-10.724595
1790543323.5240,-0.054783,-0.016514,-1.173586,-0.034755,-0.009468,-1.173586,0.176596,0.452168,0.954367,1.680439,3.282051,-8.046623
1790543323.5379,-0.055310,-0.017283,-1.166591,-0.040922,-0.011813,-1.166591,0.102533,-0.129406,0.766175,1.373815,2.835891,-10.375294
1790543323.5520,-0.042780,-0.013607,-1.156094,-0.041479,-0.012351,-1.156094,-0.293277,-0.956237,0.526989,-0.159304,1.423051,-11.073895
1790543323.5659,-0.032908,-0.001843,-1.151641,-0.038908,-0.009199,-1.151641,-0.768007,-0.873675,0.505135,1.987063,4.062831,-13.092077
1790543323.5797,-0.027780,0.007228,-1.142670,-0.035570,-0.004271,-1.142670,-0.730368,-0.642988,0.500278,4.325070,0.679451,-13.441378
1790543323.5937,-0.020671,0.016554,-1.138517,-0.031100,0.001977,-1.138517,-0.700015,-0.795970,0.247737,3.060246,0.902531,-7.309210
1790543323.6077,-0.012307,0.029072,-1.137345,-0.025462,0.010105,-1.137345,-0.866352,-0.913742,0.179745,2.868606,1.385871,-5.756762
1790543323.6216,-0.017493,0.028663,-1.135848,-0.023071,0.015673,-1.135848,-0.033451,0.208125,-0.050942,4.056774,1.125611,-13.247322
1790543323.6355,-0.011714,0.025165,-1.135062,-0.019664,0.018520,-1.135062,0.225161,-0.141548,-0.656799,-3.148887,1.794851,-11.617252
1790543323.6495,0.002274,0.021312,-1.139539,-0.013083,0.019358,-1.139539,0.230018,-0.702481,-1.011329,-2.075704,1.199971,-8.978091
1790543323.6635,0.005549,0.015716,-1.147277,-0.007493,0.018265,-1.147277,0.381786,-0.194970,-0.498961,0.492271,1.497411,-8.900469
1790543323.6775,0.014908,0.007848,-1.147757,-0.000773,0.015140,-1.147757,0.512913,-0.525217,-0.496533,-1.462456,1.125611,-10.181238
1790543323.6915,0.024748,-0.004039,-1.153740,0.006883,0.009386,-1.153740,0.772740,-0.570140,-0.804925,-0.772552,0.902531,-12.238231
1790543323.7052,0.038353,-0.013687,-1.165922,0.016324,0.002464,-1.165922,0.701105,-0.799613,-0.984618,-1.040848,1.534591,-7.037532
1790543323.7189,0.043006,-0.018508,-1.184847,0.024329,-0.003827,-1.184847,0.375715,-0.306671,-0.889915,0.607255,1.832031,-6.959909
1790543323.7326,0.047044,-0.024228,-1.193569,0.031143,-0.009948,-1.193569,0.344147,-0.140334,-0.842563,-0.964192,0.790991,-7.464455
1790543323.7466,0.051381,-0.029886,-1.199766,0.037215,-0.015929,-1.199766,0.346576,-0.157332,-0.676226,-1.807408,1.125611,-10.103616
1790543323.7605,0.050842,-0.034794,-1.209470,0.041303,-0.021589,-1.209470,0.349004,0.125564,-0.564524,-1.117504,2.203831,-11.733686
1790543323.7745,0.036386,-0.033228,-1.217017,0.039828,-0.025080,-1.217017,-0.137867,1.003388,-0.281629,0.837223,1.794851,-14.256413
1790543323.7888,0.029336,-0.021064,-1.210304,0.036681,-0.023875,-1.210304,-0.899134,0.705923,-0.061870,-4.643678,0.939711,-11.539630
1790543323.8028,0.019454,-0.010920,-1.197949,0.031512,-0.019989,-1.197949,-0.856639,0.885616,0.127537,-3.417183,-0.807749,-9.055714
1790543323.8169,0.016557,-0.005908,-1.184136,0.027026,-0.015765,-1.184136,-0.554318,0.497091,0.202813,-5.218598,-2.034688,-7.697322
1790543323.8311,0.012698,0.000902,-1.174847,0.022728,-0.010765,-1.174847,-0.634451,0.491020,0.275662,-3.953775,-1.142369,-7.658511
1790543323.8452,0.007483,0.009905,-1.164343,0.018154,-0.004564,-1.164343,-0.726726,0.544443,0.399504,-3.877119,-0.064149,-8.667602
1790543323.8591,-0.001261,0.022402,-1.153906,0.012330,0.003526,-1.153906,-0.953771,0.754489,0.473567,-2.458983,0.530731,-6.921098
1790543323.8731,0.000644,0.020288,-1.150267,0.008824,0.008554,-1.150267,0.086749,-0.339453,0.751606,1.182175,0.790991,-15.770049
1790543323.8871,0.005316,0.011176,-1.144829,0.007772,0.009341,-1.144829,0.628257,-0.698839,1.232406,2.638638,1.125611,-13.674245
1790543323.9010,-0.013129,0.010666,-1.166982,0.001502,0.009738,-1.166982,0.204521,0.742348,1.299184,7.314652,4.620531,-9.172147
1790543323.9149,-0.018758,0.005768,-1.159040,-0.004576,0.008547,-1.159040,0.387856,0.138919,1.024788,1.258831,1.757671,-7.969000
1790543323.9289,-0.029485,0.002034,-1.157257,-0.012049,0.006593,-1.157257,0.335648,0.443669,0.877876,2.523654,2.203831,-7.503266
1790543323.9425,-0.039741,-0.004916,-1.152016,-0.020357,0.003141,-1.152016,0.580905,0.466737,0.973794,1.987063,2.352551,-7.813756
1790543323.9561,-0.045471,-0.010730,-1.143512,-0.027891,-0.001021,-1.143512,0.492273,0.205697,0.994434,1.412143,3.021791,-10.220049
1790543323.9700,-0.051825,-0.013815,-1.136294,-0.035071,-0.004859,-1.136294,0.289511,0.227551,0.916729,2.063719,3.207691,-10.336483
1790543323.9840,-0.056325,-0.014172,-1.128951,-0.041447,-0.007653,-1.128951,0.154741,0.165630,0.801385,1.028863,3.876931,-9.016902
1790543323.9978,-0.055685,-0.012060,-1.124600,-0.045719,-0.008975,-1.124600,0.019971,-0.211968,0.468710,2.408670,5.661571,-11.112707
1790543324.0118,-0.039751,-0.012078,-1.109268,-0.043928,-0.009906,-1.109268,-0.125726,-1.174783,0.360652,-0.350944,-0.473129,-13.945924
1790543324.0259,-0.029322,0.001525,-1.107417,-0.039546,-0.006477,-1.107417,-0.874851,-0.906457,0.259878,2.561982,4.174371,-12.160609
1790543324.0402,-0.021912,0.011171,-1.091250,-0.034256,-0.001182,-1.091250,-0.793504,-0.761974,0.248951,4.210086,-0.398769,-11.888930
1790543324.0541,-0.010141,0.020899,-1.084359,-0.027021,0.005442,-1.084359,-0.758294,-1.064296,0.052260,2.561982,0.605091,-7.736133
1790543324.0687,-0.004834,0.027033,-1.079887,-0.020365,0.011919,-1.079887,-0.469328,-0.554356,0.074114,2.753622,0.976891,-9.637881
1790543324.0838,-0.004136,0.024604,-1.081475,-0.015497,0.015725,-1.081475,0.121959,0.078212,-0.403044,-1.155832,1.534591,-11.500819
1790543324.0985,0.001470,0.020275,-1.091161,-0.010406,0.017090,-1.091161,0.272513,-0.112408,-0.999187,-2.229015,2.166651,-12.315854
1790543324.1129,0.014804,0.014970,-1.103098,-0.002843,0.016454,-1.103098,0.384214,-0.748619,-0.885058,-0.619240,1.646131,-6.804665
1790543324.1275,0.017297,0.006292,-1.111556,0.003199,0.013405,-1.111556,0.550552,-0.179186,-0.560882,1.335487,1.199971,-9.288581
1790543324.1413,0.029095,-0.006278,-1.116269,0.010968,0.007500,-1.116269,0.827376,-0.679413,-0.852276,-1.347472,0.790991,-10.763406
1790543324.1551,0.043319,-0.018974,-1.132103,0.020673,-0.000442,-1.132103,0.916008,-0.828752,-1.148527,-1.270816,2.129471,-9.288581
1790543324.1688,0.052681,-0.027370,-1.152745,0.030275,-0.008520,-1.152745,0.645255,-0.566497,-1.118173,-0.197632,2.203831,-7.348021
1790543324.1825,0.054855,-0.033828,-1.168869,0.037649,-0.016112,-1.168869,0.430351,-0.131835,-0.984618,0.760567,1.497411,-8.667602
1790543324.1964,0.061260,-0.040954,-1.178680,0.044733,-0.023565,-1.178680,0.449778,-0.208326,-0.971262,-2.688951,1.237151,-8.589979
1790543324.2105,0.056956,-0.048969,-1.187065,0.048400,-0.031186,-1.187065,0.584547,0.433956,-0.451609,-1.845736,1.832031,-9.094525
1790543324.2244,0.016865,-0.051356,-1.186601,0.038939,-0.037237,-1.186601,0.077036,3.142707,-0.355692,-7.249981,0.344831,-18.331588
1790543324.2384,0.007056,-0.041165,-1.171961,0.029374,-0.038416,-1.171961,-0.886993,0.909899,0.058330,-5.065286,-1.997508,-12.742777
1790543324.2522,-0.004115,-0.030943,-1.150510,0.019328,-0.036174,-1.150510,-1.069114,0.976677,0.353367,-2.995575,-3.893688,-7.386832
1790543324.2662,-0.011927,-0.021495,-1.137593,0.009951,-0.031770,-1.137593,-0.905205,0.707138,0.401933,-3.072231,-2.443668,-8.745224
1790543324.2805,-0.017299,-0.013481,-1.125153,0.001776,-0.026283,-1.125153,-0.691516,0.637932,0.347296,-5.755190,-1.142369,-9.599070
1790543324.2950,-0.025111,-0.001469,-1.112754,-0.006290,-0.018839,-1.112754,-0.889421,0.691354,0.444428,-2.957247,0.382011,-7.891378
1790543324.3089,-0.028521,0.009749,-1.103768,-0.012959,-0.010263,-1.103768,-0.893063,0.353822,0.399504,-3.378855,0.196111,-12.044175
1790543324.3230,-0.016111,0.004783,-1.091102,-0.013905,-0.005749,-1.091102,0.244588,-0.992661,0.874234,-1.500784,-0.175689,-16.391028
1790543324.3371,-0.026981,-0.000077,-1.099259,-0.017828,-0.004047,-1.099259,0.336863,0.311327,1.341679,3.635166,1.348691,-8.589979
1790543324.3510,-0.034463,-0.002324,-1.078539,-0.022818,-0.003531,-1.078539,0.336863,0.441240,1.093994,-0.772552,3.579491,-7.037532
1790543324.3650,-0.047002,-0.006858,-1.078784,-0.030073,-0.004529,-1.078784,0.385428,0.611220,0.868163,2.523654,2.389731,-8.163056
1790543324.3790,-0.058293,-0.014326,-1.077804,-0.038539,-0.007468,-1.077804,0.619758,0.555370,0.751606,2.868606,3.356411,-9.676693
1790543324.3929,-0.071825,-0.021866,-1.076726,-0.048525,-0.011787,-1.076726,0.622186,0.673142,0.857236,3.788478,3.505131,-9.831937
1790543324.4066,-0.082133,-0.029803,-1.072451,-0.058607,-0.017192,-1.072451,0.730245,0.557798,0.729751,2.063719,3.802571,-8.046623
1790543324.4202,-0.088992,-0.035714,-1.064644,-0.067723,-0.022749,-1.064644,0.542053,0.382962,0.746749,1.373815,4.323091,-11.035084
1790543324.4342,-0.094614,-0.038679,-1.060036,-0.075790,-0.027528,-1.060036,0.268871,0.265190,0.535488,2.102047,2.947431,-10.297672
1790543324.4482,-0.083407,-0.039230,-1.054098,-0.078075,-0.031038,-1.054098,0.086749,-0.849393,0.378864,0.837223,3.505131,-13.402567
1790543324.4620,-0.078955,-0.036808,-1.049130,-0.078339,-0.032769,-1.049130,-0.282350,-0.465724,0.289017,2.561982,-0.212869,-11.035084
1790543324.4759,-0.065882,-0.031507,-1.038864,-0.074602,-0.032391,-1.038864,-0.584671,-1.077651,0.369151,1.833751,-1.700068,-9.870749
1790543324.4898,-0.056997,-0.027044,-1.030043,-0.069321,-0.030787,-1.030043,-0.548247,-0.958665,0.472353,3.903462,-1.960328,-7.619700
1790543324.5038,-0.049211,-0.019391,-1.028704,-0.063288,-0.027368,-1.028704,-0.680589,-0.791114,0.151819,3.136902,-0.659029,-8.007811
1790543324.5177,-0.037689,-0.010431,-1.025180,-0.055608,-0.022287,-1.025180,-0.788647,-1.006017,0.060759,2.561982,-0.807749,-8.822846
1790543324.5318,-0.023947,0.005832,-1.030576,-0.046110,-0.013851,-1.030576,-1.220882,-1.157785,-0.174785,2.561982,0.344831,-7.503266
1790543324.5461,-0.024204,0.013082,-1.035212,-0.039538,-0.005771,-1.035212,-0.618667,-0.069913,-0.389688,5.053301,-0.510309,-18.370399
1790543324.5602,-0.034000,0.008109,-1.045231,-0.037876,-0.001607,-1.045231,0.355075,0.931754,-0.912983,-1.155832,1.906391,-11.617252
1790543324.5742,-0.012274,0.002652,-1.026460,-0.030196,-0.000329,-1.026460,0.478917,-0.919813,-1.091462,-6.790045,2.315371,-5.485084
1790543324.5882,-0.015614,0.002505,-1.048917,-0.025821,0.000521,-1.048917,-0.004311,0.092782,-0.479535,2.446998,0.828171,-6.377742
1790543324.6022,-0.006421,-0.004027,-1.045990,-0.020001,-0.000844,-1.045990,0.419424,-0.398946,-0.642230,-3.378855,1.088431,-12.044175
1790543324.6162,0.010743,-0.012375,-1.048486,-0.010778,-0.004303,-1.048486,0.589404,-0.891888,-0.973690,-4.107087,1.832031,-10.802217
1790543324.6298,0.019816,-0.018452,-1.062942,-0.001600,-0.008548,-1.062942,0.522626,-0.485150,-0.974904,-0.925864,2.501271,-7.658511
1790543324.6434,0.022794,-0.020120,-1.081995,0.005718,-0.012019,-1.081995,0.265228,-0.095410,-0.844991,-0.427600,3.244871,-7.153965
1790543324.6574,0.027294,-0.023657,-1.090582,0.012191,-0.015511,-1.090582,0.271299,-0.140334,-0.728434,-1.654096,1.943571,-8.706413
1790543324.6714,0.032393,-0.030883,-1.095356,0.018252,-0.020122,-1.095356,0.511699,-0.180400,-0.559668,-2.343999,1.683311,-9.715504
1790543324.6853,0.021797,-0.038248,-1.096902,0.019315,-0.025560,-1.096902,0.605188,0.877117,-0.044872,-2.803935,3.393591,-12.587532
1790543324.6994,0.009192,-0.027313,-1.093819,0.016278,-0.026086,-1.093819,-0.735225,0.958465,0.244094,-2.497311,2.835891,-14.139979
1790543324.7134,0.006284,-0.012995,-1.086327,0.013280,-0.022159,-1.086327,-1.116466,0.424242,0.406789,-5.640206,-0.547489,-10.569350
1790543324.7275,0.001031,-0.000961,-1.081225,0.009605,-0.015799,-1.081225,-0.998694,0.606364,0.469925,-4.567022,-1.030829,-7.580888
1790543324.7415,-0.003759,0.007366,-1.082145,0.005596,-0.008850,-1.082145,-0.827500,0.582081,0.429858,-2.880591,-1.439808,-4.514804
