t,imu_roll,imu_pitch,imu_yaw,lpf_roll,lpf_pitch,lpf_yaw,gyro_x,gyro_y,gyro_z,acc_x,acc_y,acc_z
1790542570.3321,-0.028463,-0.035831,-0.006853,-0.019924,-0.025082,-0.006853,0.028391,0.019163,0.000149,0.223975,1.237151,-9.637881
1790542570.3473,-0.016387,-0.041409,-0.011519,-0.017448,-0.036511,-0.011519,-0.010461,-0.003905,0.005005,-0.005993,1.162791,-10.142427
1790542570.3613,-0.023327,-0.041360,-0.010101,-0.021563,-0.039906,-0.010101,-0.022602,-0.014833,-0.003494,0.338959,1.199971,-9.987182
1790542570.3750,-0.021129,-0.044035,-0.011069,-0.021259,-0.042796,-0.011069,-0.010461,-0.009976,-0.003494,0.108991,1.125611,-10.297672
1790542570.3891,-0.024785,-0.042942,-0.010366,-0.023727,-0.042898,-0.010366,0.012608,0.025234,0.005005,0.338959,1.237151,-9.948371
1790542570.4031,-0.020201,-0.042525,-0.010988,-0.021259,-0.042637,-0.010988,-0.040815,0.007022,0.012290,-0.082648,1.237151,-10.414105
1790542570.4175,-0.021156,-0.040914,-0.010158,-0.021187,-0.041431,-0.010158,-0.083310,-0.034259,0.028074,0.262303,1.274331,-10.297672
1790542570.4322,-0.021072,-0.039399,-0.009573,-0.021106,-0.040009,-0.009573,-0.071168,0.011879,0.036573,0.147319,1.274331,-10.103616
1790542570.4465,-0.027272,-0.036204,-0.006936,-0.025423,-0.037346,-0.006936,-0.072382,0.082299,0.075426,0.607255,1.385871,-9.637881
1790542570.4607,-0.027451,-0.031671,-0.005361,-0.026843,-0.033374,-0.005361,-0.090594,0.033733,0.159201,0.185647,1.646131,-10.220049
1790542570.4745,-0.023451,-0.024996,-0.003965,-0.024469,-0.027509,-0.003965,-0.151302,-0.071897,0.289115,-0.159304,1.794851,-9.676693
1790542570.4885,-0.022505,-0.028638,-0.000831,-0.023094,-0.028300,-0.000831,-0.029887,-0.029402,0.412957,0.032335,0.790991,-8.822846
1790542570.5025,-0.024368,-0.031422,0.007238,-0.023986,-0.030485,0.007238,0.204442,-0.023332,0.506446,0.338959,1.274331,-9.560259
1790542570.5164,-0.026076,-0.029274,0.015481,-0.025449,-0.029638,0.015481,0.147377,0.036161,0.495519,0.262303,1.906391,-9.987182
1790542570.5305,-0.020937,-0.036353,0.014047,-0.022291,-0.034338,0.014047,0.017464,-0.120463,0.369248,-0.504256,0.382011,-12.199420
1790542570.5444,-0.014529,-0.042114,0.011434,-0.016857,-0.039781,0.011434,-0.012889,-0.057328,0.263618,-0.887536,0.344831,-10.918651
1790542570.5585,-0.009852,-0.045247,0.012597,-0.011954,-0.043608,0.012597,0.016250,-0.051257,0.240549,-0.619240,0.679451,-9.599070
1790542570.5725,-0.013051,-0.046835,0.009614,-0.012722,-0.045867,0.009614,-0.014103,-0.029402,0.252690,0.607255,0.828171,-9.676693
1790542570.5861,-0.016592,-0.046252,0.011139,-0.015431,-0.046137,0.011139,-0.012889,0.100511,0.217480,0.415615,1.125611,-9.094525
1790542570.5997,-0.018130,-0.041778,0.018499,-0.017320,-0.043085,0.018499,-0.067526,0.071372,0.156773,0.185647,1.720491,-9.094525
1790542570.6137,-0.021225,-0.037552,0.022420,-0.020053,-0.039212,0.022420,-0.134304,0.064087,0.094852,0.607255,1.794851,-10.414105
1790542570.6277,-0.021537,-0.032369,0.028062,-0.021092,-0.034422,0.028062,-0.134304,-0.164172,0.106993,0.722239,2.129471,-10.569350
1790542570.6417,-0.018671,-0.026457,0.032724,-0.019397,-0.028846,0.032724,-0.173156,-0.294085,0.086353,0.377287,2.129471,-9.909560
1790542570.6557,-0.017472,-0.017444,0.041484,-0.018050,-0.020865,0.041484,-0.207152,-0.339009,0.059642,0.798895,2.501271,-8.551168
1790542570.6698,-0.011919,-0.007392,0.045038,-0.013758,-0.011433,0.045038,-0.222936,-0.558768,-0.050845,0.607255,3.058971,-9.249770
1790542570.6840,-0.018316,-0.011087,0.059968,-0.016949,-0.011191,0.059968,0.308858,0.156361,-0.118837,1.872079,2.612811,-15.304315
1790542570.6980,-0.024913,-0.011623,0.011470,-0.022524,-0.011493,0.011470,0.821226,0.785287,-0.354381,-0.542584,4.100011,-8.978091
1790542570.7119,-0.010478,-0.002019,-0.057316,-0.014092,-0.004861,-0.057316,0.404776,-0.125319,-0.693126,-2.075704,4.323091,-6.377742
1790542570.7260,0.002436,-0.006750,-0.073081,-0.002522,-0.006184,-0.073081,0.566256,-0.668041,-1.056155,-0.580912,3.282051,-13.208511
1790542570.7399,0.003277,-0.008200,-0.015663,0.001537,-0.007595,-0.015663,0.421774,-0.342651,-1.352406,1.335487,2.798711,-9.715504
1790542570.7539,-0.015171,-0.008685,0.092632,-0.010159,-0.008358,0.092632,0.081814,0.512105,-1.093793,3.290214,1.869211,-9.405014
1790542570.7679,-0.006364,-0.012729,0.041252,-0.007502,-0.011417,0.041252,0.050246,-0.164172,-1.215207,-1.040848,0.419191,-10.918651
1790542570.7818,-0.005468,-0.024724,0.029100,-0.006079,-0.020732,0.029100,0.623321,0.078656,-1.213993,0.147319,0.382011,-11.850119
1790542570.7957,-0.008387,-0.017882,-0.010248,-0.007694,-0.018737,-0.010248,-0.011675,0.397976,-1.471391,0.185647,2.724351,-7.309210
1790542570.8094,-0.007819,-0.014832,-0.025459,-0.007782,-0.016004,-0.025459,-0.269073,0.133293,-1.460464,0.185647,1.311511,-10.530539
1790542570.8231,-0.015294,-0.011805,-0.011630,-0.013040,-0.013065,-0.011630,-0.292142,0.427115,-1.319624,1.412143,1.199971,-10.064805
1790542570.8370,-0.008739,-0.015742,-0.036730,-0.010029,-0.014939,-0.036730,-0.022602,-0.211524,-1.070725,-0.427600,-0.101329,-11.190329
1790542570.8509,-0.011735,-0.017480,-0.026005,-0.011223,-0.016718,-0.026005,0.075743,0.070157,-0.819397,1.182175,1.125611,-9.210958
1790542570.8650,-0.013204,-0.017382,-0.023691,-0.012610,-0.017183,-0.023691,-0.006819,0.058016,-0.620278,0.722239,1.423051,-9.793126
1790542570.8789,-0.021382,-0.011751,-0.046348,-0.018750,-0.013381,-0.046348,-0.045671,0.574026,-0.422373,0.645583,3.096151,-8.978091
1790542570.8928,-0.026120,-0.001937,-0.106548,-0.023909,-0.005370,-0.106548,-0.734090,0.871491,-0.433300,-2.573967,1.794851,-13.480189
1790542570.9068,-0.024390,0.011603,-0.151247,-0.024246,0.006511,-0.151247,-0.788726,0.281418,-0.134621,-1.769080,2.947431,-10.569350
1790542570.9208,-0.012548,-0.006507,-0.160753,-0.016058,-0.002601,-0.160753,0.698598,-0.774886,0.309755,-0.810880,-2.518028,-13.674245
1790542570.9366,-0.033400,-0.017548,-0.093123,-0.028197,-0.013064,-0.093123,0.668244,0.639590,1.017600,2.983590,1.088431,-7.930189
1790542570.9510,-0.031529,-0.032530,-0.138371,-0.030529,-0.026690,-0.138371,0.580826,0.331198,1.021242,-3.187215,-1.365448,-9.482637
1790542570.9650,-0.023853,-0.043489,-0.142305,-0.025856,-0.038449,-0.142305,0.514048,-0.354792,0.936252,-1.922392,-0.324409,-11.617252
1790542570.9794,-0.027962,-0.051543,-0.138113,-0.027330,-0.047615,-0.138113,0.317357,0.254707,0.699495,-0.044320,-0.324409,-9.560259
1790542570.9933,-0.038340,-0.057287,-0.133321,-0.035037,-0.054386,-0.133321,0.244509,0.717295,0.735919,0.032335,0.121751,-9.288581
1790542571.0074,-0.048658,-0.063253,-0.120915,-0.044572,-0.060593,-0.120915,0.379279,0.644447,0.983604,0.377287,0.828171,-9.016902
1790542571.0214,-0.062302,-0.064598,-0.104509,-0.056983,-0.063397,-0.104509,0.198371,0.907915,0.958107,0.377287,1.757671,-9.055714
1790542571.0353,-0.068541,-0.064792,-0.094816,-0.065073,-0.064373,-0.094816,0.085456,0.564313,0.862190,-0.619240,1.683311,-9.405014
1790542571.0489,-0.074125,-0.067558,-0.086411,-0.071410,-0.066602,-0.086411,0.160733,0.382192,0.765058,0.453943,1.051251,-10.646972
1790542571.0626,-0.076336,-0.070458,-0.079575,-0.074858,-0.069301,-0.079575,0.232367,0.185501,0.561082,0.223975,1.311511,-9.987182
1790542571.0765,-0.069899,-0.073142,-0.061482,-0.071387,-0.071990,-0.061482,0.310072,-0.564839,0.533157,1.105519,2.166651,-10.957462
1790542571.0905,-0.070592,-0.076141,-0.031941,-0.070831,-0.074896,-0.031941,0.035676,-0.381503,0.406886,3.750150,-0.324409,-10.608161
1790542571.1046,-0.069853,-0.080128,-0.012998,-0.070146,-0.078559,-0.012998,-0.048099,-0.408215,0.365606,3.290214,-1.625708,-10.685784
1790542571.1186,-0.062864,-0.075802,0.007085,-0.065049,-0.076629,0.007085,-0.533756,-0.975219,0.439668,3.328542,-0.547489,-8.279490
1790542571.1327,-0.059931,-0.065846,0.020434,-0.061466,-0.069081,0.020434,-0.917425,-0.710536,0.331610,3.520182,-0.435949,-8.085434
1790542571.1466,-0.059052,-0.055008,0.032371,-0.059776,-0.059230,0.032371,-1.070407,-0.491990,0.165272,3.903462,-1.179549,-10.142427
1790542571.1605,-0.054400,-0.041778,0.035193,-0.056013,-0.047014,0.035193,-1.146898,-0.700823,-0.072700,2.945262,-0.324409,-8.434735
1790542571.1751,-0.044960,-0.025825,0.031947,-0.048276,-0.032181,0.031947,-1.237959,-0.995859,-0.200185,2.638638,0.084571,-7.542077
1790542571.1894,-0.048280,-0.012794,0.014275,-0.048279,-0.018610,0.014275,-0.930781,-0.087681,-0.404161,3.175230,0.902531,-8.706413
1790542571.2037,-0.057544,-0.026885,0.017400,-0.054765,-0.024403,0.017400,0.930499,1.148316,-0.883747,-3.915447,0.939711,-15.808861
1790542571.2178,-0.042544,-0.036671,-0.049785,-0.046210,-0.032991,-0.049785,1.116263,-0.334152,-1.266201,-4.145415,3.505131,-7.813756
1790542571.2318,-0.057883,-0.031951,-0.086830,-0.054381,-0.032263,-0.086830,0.290646,0.490251,-0.468510,4.286742,4.025651,-4.320748
1790542571.2458,-0.049623,-0.044102,-0.079376,-0.051050,-0.040550,-0.079376,0.795729,-0.040330,-0.541359,-4.337055,0.419191,-11.229140
1790542571.2598,-0.028534,-0.058479,-0.095324,-0.035289,-0.053100,-0.095324,1.085909,-1.091777,-0.899531,-2.918919,1.423051,-11.345574
1790542571.2734,-0.013600,-0.067157,-0.118389,-0.020107,-0.062940,-0.118389,0.840653,-0.972791,-0.984521,-0.159304,2.389731,-9.599070
1790542571.2870,-0.009254,-0.073033,-0.124239,-0.012510,-0.070005,-0.124239,0.596610,-0.488348,-0.926242,1.143847,1.199971,-5.096972
1790542571.3010,0.009642,-0.081882,-0.138159,0.002997,-0.078319,-0.138159,0.574755,-1.111203,-0.972379,-0.964192,0.196111,-6.261308
1790542571.3150,0.016839,-0.093370,-0.132584,0.012687,-0.088854,-0.132584,0.778731,-0.709322,-0.923813,1.565455,0.419191,-7.580888
1790542571.3289,-0.010351,-0.089981,-0.143985,-0.003440,-0.089643,-0.143985,-0.233863,1.967861,-0.712553,0.837223,1.832031,-21.281238
1790542571.3430,-0.010842,-0.068998,-0.166508,-0.008621,-0.075192,-0.166508,-1.507498,0.549744,-0.791472,-7.748245,1.125611,-17.982287
1790542571.3570,0.003113,-0.053244,-0.116997,-0.000407,-0.059828,-0.116997,-1.602201,-0.133818,-0.639704,-4.873646,-2.480848,-3.738581
1790542571.3711,-0.013088,-0.028597,-0.138322,-0.009283,-0.037966,-0.138322,-1.869313,0.756148,-0.716195,1.297159,0.010211,-2.535434
1790542571.3852,-0.031044,-0.003774,-0.165607,-0.024516,-0.014032,-0.165607,-1.424937,1.238162,-0.609351,0.798895,2.241011,-4.437182
1790542571.3993,-0.046756,0.003644,-0.174566,-0.040084,-0.001659,-0.174566,-0.634530,1.337722,-0.640918,-0.772552,0.493551,-14.062357
1790542571.4132,-0.037704,-0.022513,-0.175246,-0.038418,-0.016256,-0.175246,1.794968,-0.564839,-0.319171,-0.159304,0.939711,-18.680889
1790542571.4275,-0.044602,-0.017135,-0.185647,-0.042747,-0.016872,-0.185647,-0.015318,0.334840,0.343751,1.795423,6.182090,-10.957462
1790542571.4421,-0.034636,-0.024487,-0.165590,-0.037069,-0.022202,-0.165590,0.335569,-0.830736,0.754131,0.913879,0.010211,-14.644525
1790542571.4562,-0.018575,-0.034093,-0.141091,-0.024123,-0.030526,-0.141091,0.537117,-1.432951,0.873117,1.450471,0.084571,-8.124245
1790542571.4702,-0.020099,-0.044880,-0.122318,-0.021306,-0.040574,-0.122318,0.665816,-0.132604,0.853691,0.875551,0.158931,-5.834385
1790542571.4842,-0.034715,-0.051161,-0.112633,-0.030693,-0.047985,-0.112633,0.470339,0.747649,0.947180,2.332014,1.534591,-10.142427
1790542571.4979,-0.044304,-0.062758,-0.099354,-0.040221,-0.058326,-0.099354,0.794515,0.714867,1.128087,-0.887536,0.865351,-10.064805
1790542571.5116,-0.056183,-0.060975,-0.100603,-0.051394,-0.060180,-0.100603,0.046604,0.798643,1.259214,0.032335,2.501271,-7.503266
1790542571.5252,-0.058318,-0.055959,-0.096325,-0.056241,-0.057225,-0.096325,-0.352849,0.343339,1.198507,-2.573967,1.832031,-9.870749
1790542571.5392,-0.058350,-0.048964,-0.088306,-0.057717,-0.051442,-0.088306,-0.434197,-0.041544,1.039454,-0.159304,2.426911,-10.142427
1790542571.5533,-0.049534,-0.050108,-0.064533,-0.051989,-0.050508,-0.064533,-0.239934,-0.600049,0.817266,-1.194160,-2.406488,-13.363756
1790542571.5672,-0.047809,-0.046662,-0.042897,-0.049063,-0.047816,-0.042897,-0.453623,-0.427641,0.711636,3.251886,-0.807749,-11.617252
1790542571.5812,-0.046670,-0.041882,-0.024162,-0.047388,-0.043662,-0.024162,-0.524043,-0.409429,0.752917,2.791950,-0.398769,-9.210958
1790542571.5953,-0.045280,-0.032586,-0.029484,-0.045912,-0.035909,-0.029484,-0.694023,-0.850162,0.717707,2.638638,0.270471,-2.496623
1790542571.6092,-0.034189,-0.022571,-0.003601,-0.037706,-0.026573,-0.003601,-0.894356,-1.142771,0.599935,1.872079,-0.101329,-5.834385
1790542571.6246,-0.023106,-0.014756,0.023964,-0.027486,-0.018301,0.023964,-0.712235,-0.850162,0.230836,0.990535,-0.510309,-7.619700
1790542571.6390,-0.032828,-0.024269,0.033480,-0.031226,-0.022479,0.033480,0.557757,0.861778,-0.368950,-2.190688,0.493551,-20.466203
1790542571.6537,-0.017582,-0.032124,0.004619,-0.021675,-0.029231,0.004619,0.692527,-0.710536,-1.035514,-3.417183,4.174371,-14.722147
1790542571.6687,-0.013366,-0.041090,-0.020852,-0.015859,-0.037532,-0.020852,0.704669,-0.149602,-1.014874,-0.005993,0.902531,-3.971448
1790542571.6835,-0.021823,-0.046392,-0.041708,-0.020034,-0.043734,-0.041708,0.392634,0.404046,-0.599637,2.140375,0.939711,-6.843476
1790542571.6972,-0.005514,-0.055757,-0.038059,-0.009870,-0.052150,-0.038059,0.614822,-0.915726,-0.612993,-2.573967,0.382011,-11.190329
1790542571.7112,0.010276,-0.067754,-0.068956,0.004232,-0.063073,-0.068956,1.016703,-1.065065,-0.967523,0.147319,2.241011,-8.201867
1790542571.7254,0.019521,-0.071108,-0.127581,0.014934,-0.068697,-0.127581,0.645176,-0.578194,-1.082866,0.070663,3.839751,-6.144874
1790542571.7391,0.030178,-0.074349,-0.154963,0.025605,-0.072653,-0.154963,0.393848,-0.709322,-1.054941,-0.044320,1.832031,-6.300119
1790542571.7528,0.021119,-0.085144,-0.156846,0.022465,-0.081397,-0.156846,0.659745,0.676014,-1.095007,0.875551,-0.212869,-15.847672
1790542571.7669,0.016123,-0.086104,-0.155624,0.018025,-0.084692,-0.155624,-0.094237,0.543673,-0.921385,-2.612295,-1.291089,-16.468651
1790542571.7808,0.013710,-0.081718,-0.150737,0.015005,-0.082610,-0.150737,-0.499760,0.372479,-0.820611,-2.727279,-1.662888,-15.420749
1790542571.7949,0.015315,-0.079005,-0.124094,0.015222,-0.080086,-0.124094,-0.566538,0.320271,-0.750191,-2.995575,-2.257768,-5.601518
1790542571.8089,0.009541,-0.059609,-0.158234,0.011245,-0.065752,-0.158234,-1.178466,0.827782,-0.682199,-1.194160,0.939711,-2.380189
1790542571.8229,0.005916,-0.044845,-0.169272,0.007515,-0.051117,-0.169272,-1.072835,0.498750,-0.701625,-1.270816,0.642271,-6.222497
1790542571.8369,-0.006851,-0.034820,-0.178183,-0.002541,-0.039709,-0.178183,-0.889500,1.183526,-0.706482,-2.382327,-0.919289,-11.345574
1790542571.8510,-0.010775,-0.026259,-0.184272,-0.008305,-0.030294,-0.184272,-0.788726,0.587382,-0.540144,-3.263871,-1.142369,-11.423196
1790542571.8657,-0.009999,-0.018208,-0.192150,-0.009490,-0.021834,-0.192150,-0.752302,0.005808,-0.343453,-0.120976,-1.625708,-13.945924
1790542571.8798,-0.002702,-0.028751,-0.198500,-0.004738,-0.026676,-0.198500,0.618465,-0.782170,0.250262,3.980118,-0.435949,-14.528091
1790542571.8944,-0.005647,-0.042535,-0.198558,-0.005374,-0.037778,-0.198558,0.926857,-0.148388,0.758988,3.558510,0.939711,-10.646972
1790542571.9096,-0.000912,-0.050942,-0.161613,-0.002251,-0.046993,-0.161613,0.684028,-0.031831,0.631503,-3.263871,1.943571,-6.028441
1790542571.9235,-0.008080,-0.055093,-0.159440,-0.006331,-0.052663,-0.159440,0.415703,0.391905,0.440882,0.683911,1.683311,-6.649420
1790542571.9373,-0.021239,-0.066070,-0.159688,-0.016766,-0.062048,-0.159688,0.764162,0.779216,0.385032,2.217030,0.753811,-12.005364
1790542571.9508,-0.041758,-0.073458,-0.160785,-0.034261,-0.070035,-0.160785,0.685242,1.318295,0.570796,2.102047,2.389731,-8.745224
1790542571.9644,-0.057428,-0.077179,-0.155177,-0.050478,-0.075036,-0.155177,0.449699,1.245447,0.581723,-0.964192,2.612811,-7.697322
1790542571.9781,-0.061740,-0.080074,-0.146558,-0.058361,-0.078563,-0.146558,0.288218,0.484180,0.593864,-1.960720,1.980751,-9.055714
1790542571.9922,-0.070736,-0.084975,-0.139025,-0.067024,-0.083051,-0.139025,0.300359,0.600737,0.586579,0.530599,0.530731,-9.055714
1790542572.0062,-0.063250,-0.084357,-0.130146,-0.064382,-0.083965,-0.130146,0.073315,-0.551483,0.525872,0.338959,3.319231,-11.966553
1790542572.0201,-0.050067,-0.082256,-0.119815,-0.054361,-0.082769,-0.119815,-0.214437,-1.035926,0.626646,1.105519,0.530731,-11.733686
1790542572.0342,-0.045459,-0.076720,-0.106460,-0.048130,-0.078535,-0.106460,-0.539827,-0.635259,0.580509,3.980118,-0.807749,-10.064805
1790542572.0482,-0.040300,-0.074111,-0.093574,-0.042649,-0.075438,-0.093574,-0.409914,-0.694752,0.529515,3.443526,-1.588528,-8.007811
1790542572.0623,-0.030041,-0.067431,-0.086924,-0.033823,-0.069833,-0.086924,-0.533756,-0.829522,0.334038,0.837223,0.233291,-7.270399
1790542572.0762,-0.025364,-0.058404,-0.085882,-0.027902,-0.061833,-0.085882,-0.726805,-0.575766,0.160415,3.558510,0.084571,-11.345574
1790542572.0903,-0.015092,-0.044393,-0.090139,-0.018935,-0.049625,-0.090139,-1.023056,-0.970362,-0.050845,4.363398,1.014071,-12.898021
1790542572.1044,-0.006472,-0.026768,-0.101281,-0.010211,-0.033625,-0.101281,-1.231888,-0.983718,-0.177116,4.593365,1.162791,-7.736133
1790542572.1183,-0.019264,-0.026063,-0.086116,-0.016548,-0.028332,-0.086116,-0.266645,0.804713,-0.496435,3.443526,-1.737248,-12.393476
1790542572.1325,-0.036785,-0.036696,-0.100778,-0.030714,-0.034186,-0.100778,0.809085,1.569623,-0.993019,-2.803935,2.055111,-12.354665
1790542572.1465,-0.019187,-0.046017,-0.147870,-0.022645,-0.042468,-0.147870,0.966923,-1.056566,-1.161785,-0.580912,3.505131,-6.998721
1790542572.1605,-0.027209,-0.057672,-0.161185,-0.025840,-0.053111,-0.161185,0.875863,0.503606,-0.706482,2.102047,1.311511,-9.249770
1790542572.1745,-0.014144,-0.071295,-0.169259,-0.017653,-0.065840,-0.169259,0.977851,-0.776100,-0.781759,-1.155832,0.939711,-11.267951
1790542572.1881,0.003157,-0.084013,-0.190163,-0.003086,-0.078561,-0.190163,1.033701,-1.160983,-0.968737,-0.580912,1.980751,-10.181238
1790542572.2018,0.017429,-0.092378,-0.218968,0.011275,-0.088233,-0.218968,0.778731,-0.925439,-1.057369,-0.542584,2.055111,-6.765853
1790542572.2161,0.027834,-0.098369,-0.240301,0.022866,-0.095328,-0.240301,0.568685,-0.772457,-0.995448,0.913879,2.278191,-7.386832
1790542572.2307,0.022254,-0.105489,-0.243450,0.022438,-0.102441,-0.243450,0.481266,0.278990,-0.764761,2.063719,1.051251,-11.345574
1790542572.2449,0.003124,-0.099933,-0.259059,0.008918,-0.100685,-0.259059,-0.409914,1.445780,-0.934741,-1.040848,1.051251,-17.632987
1790542572.2593,-0.003609,-0.087575,-0.236945,0.000149,-0.091508,-0.236945,-1.086191,0.744006,-0.820611,-3.685479,-2.629568,-10.957462
1790542572.2736,-0.002166,-0.076406,-0.208271,-0.001471,-0.080936,-0.208271,-1.165110,0.316628,-0.797543,-2.995575,-2.741108,-4.708860
1790542572.2880,-0.009622,-0.055342,-0.218159,-0.007177,-0.063020,-0.218159,-1.590060,0.825354,-0.694341,-0.849208,-0.212869,-2.457811
1790542572.3020,-0.014022,-0.033828,-0.241114,-0.011969,-0.042586,-0.241114,-1.710260,0.790144,-0.819397,-2.957247,-0.882109,-4.941727
1790542572.3161,-0.031072,-0.014306,-0.252256,-0.025341,-0.022790,-0.252256,-1.414009,1.398429,-0.787829,-0.465928,0.605091,-7.231588
1790542572.3305,-0.018774,-0.023678,-0.258667,-0.020744,-0.023412,-0.258667,0.527404,-0.518702,-0.696769,-2.688951,-0.547489,-7.736133
1790542572.3446,-0.016092,-0.044550,-0.253525,-0.017488,-0.038209,-0.253525,1.580065,-0.271017,0.419028,0.530599,2.947431,-11.035084
1790542572.3586,-0.015588,-0.041537,-0.248241,-0.016158,-0.040539,-0.248241,-0.082095,-0.158101,0.580509,0.722239,2.649991,-8.163056
1790542572.3730,-0.000306,-0.048667,-0.236559,-0.005061,-0.046229,-0.236559,0.493408,-1.066280,0.570796,-0.925864,1.051251,-9.133336
1790542572.3871,-0.013003,-0.063407,-0.249787,-0.010621,-0.058253,-0.249787,1.101693,0.496321,0.711636,6.241469,2.017931,-11.500819
1790542572.4012,-0.029652,-0.077889,-0.248198,-0.023943,-0.071998,-0.248198,1.071340,0.978336,0.564725,2.370342,1.534591,-9.521448
1790542572.4154,-0.045403,-0.086621,-0.239907,-0.038965,-0.082234,-0.239907,0.762947,1.232091,0.699495,-1.577440,2.389731,-7.270399
1790542572.4293,-0.061984,-0.090229,-0.230754,-0.055078,-0.087830,-0.230754,0.325856,1.219950,0.790555,-0.657568,2.501271,-11.617252
1790542572.4431,-0.072340,-0.093126,-0.219826,-0.067161,-0.091537,-0.219826,0.157091,0.788929,0.845192,-0.810880,0.790991,-12.121798
1790542572.4576,-0.075801,-0.095313,-0.210345,-0.073209,-0.094180,-0.210345,0.206870,0.362766,0.631503,-1.769080,2.129471,-9.793126
1790542572.4717,-0.064590,-0.098961,-0.201655,-0.067176,-0.097527,-0.201655,0.157091,-0.746960,0.693424,-0.887536,-0.138509,-11.617252
1790542572.4858,-0.057486,-0.090668,-0.192872,-0.060393,-0.092725,-0.192872,-0.681882,-0.644972,0.614505,2.446998,-0.101329,-12.703965
1790542572.4998,-0.056788,-0.084059,-0.183144,-0.057870,-0.086659,-0.183144,-0.673383,-0.303798,0.705565,4.325070,-2.146228,-12.044175
1790542572.5140,-0.050347,-0.072236,-0.175533,-0.052604,-0.076563,-0.175533,-1.006058,-0.796740,0.482163,4.861661,-1.402628,-8.978091
1790542572.5280,-0.040024,-0.052411,-0.175156,-0.043798,-0.059657,-0.175156,-1.444363,-1.169482,0.262403,3.711822,0.419191,-4.980539
1790542572.5421,-0.021334,-0.033703,-0.169502,-0.028073,-0.041489,-0.169502,-1.405510,-1.528868,0.108207,1.028863,0.084571,-3.622147
1790542572.5561,-0.007269,-0.019557,-0.170724,-0.013510,-0.026137,-0.170724,-1.014557,-1.296967,0.137347,2.446998,0.865351,-6.106063
1790542572.5701,-0.022557,-0.028909,-0.143925,-0.019843,-0.028077,-0.143925,0.419345,1.020831,0.204125,2.063719,-4.377028,-21.009560
1790542572.5841,-0.032886,-0.042802,-0.152567,-0.028973,-0.038385,-0.152567,1.112620,1.053612,-0.463654,-4.758662,3.691031,-13.441378
1790542572.5980,-0.025203,-0.046161,-0.183455,-0.026334,-0.043828,-0.183455,0.504335,-0.149602,-1.286842,-3.455511,4.174371,-8.279490
1790542572.6120,-0.035906,-0.051909,-0.207802,-0.033034,-0.049485,-0.207802,0.538331,0.649303,-0.952953,2.025391,1.385871,-5.174595
1790542572.6260,-0.024471,-0.063205,-0.206554,-0.027040,-0.059089,-0.206554,0.880719,-0.365720,-0.676128,-3.570495,1.088431,-5.485084
1790542572.6399,-0.011925,-0.081233,-0.212291,-0.016460,-0.074590,-0.212291,1.254675,-0.771243,-0.684627,-0.925864,0.084571,-9.560259
1790542572.6537,0.013290,-0.090790,-0.228393,0.004365,-0.085930,-0.228393,0.862507,-1.598074,-0.934741,-1.730752,2.241011,-6.494175
1790542572.6671,0.023022,-0.094660,-0.239942,0.017425,-0.092041,-0.239942,0.335569,-0.853805,-0.952953,2.485326,1.646131,-9.831937
1790542572.6812,0.029071,-0.099274,-0.249880,0.025577,-0.097104,-0.249880,0.312501,-0.550269,-0.912886,2.178703,0.753811,-9.327392
1790542572.6952,0.014171,-0.099283,-0.254931,0.017593,-0.098629,-0.254931,-0.147659,1.031758,-0.882533,1.680439,-1.662888,-14.334035
1790542572.7094,-0.006407,-0.089409,-0.266762,0.000793,-0.092175,-0.266762,-0.712235,1.548982,-0.768403,-1.117504,0.828171,-15.420749
1790542572.7235,-0.013349,-0.074980,-0.274630,-0.009106,-0.080139,-0.274630,-1.150540,0.833853,-0.773260,-5.103614,-1.514168,-11.539630
1790542572.7375,-0.014321,-0.065084,-0.281625,-0.012757,-0.069600,-0.281625,-1.021841,0.382192,-0.725908,-1.347472,-1.514168,-3.311658
1790542572.7515,-0.029581,-0.043755,-0.291489,-0.024533,-0.051509,-0.291489,-1.523282,1.188382,-0.651846,-0.044320,0.493551,-5.174595
1790542572.7662,-0.041882,-0.025059,-0.300861,-0.036677,-0.032994,-0.300861,-1.133542,1.086394,-0.667629,-1.577440,2.389731,-7.231588
1790542572.7807,-0.036742,-0.035461,-0.306471,-0.036722,-0.034721,-0.306471,0.652461,-0.175099,-0.486722,-3.033903,0.084571,-20.660259
1790542572.7949,-0.029844,-0.046519,-0.304474,-0.031907,-0.042980,-0.304474,0.745949,-0.575766,0.261189,2.140375,1.571771,-20.427392
1790542572.8088,-0.030844,-0.048295,-0.301880,-0.031163,-0.046701,-0.301880,0.096383,-0.166600,0.724992,2.600310,0.939711,-9.948371
1790542572.8229,-0.027651,-0.059156,-0.292582,-0.028705,-0.055419,-0.292582,0.705883,-0.326867,0.695852,0.492271,0.233291,-8.822846
1790542572.8368,-0.028282,-0.073900,-0.282195,-0.028409,-0.068356,-0.282195,1.072554,0.150291,0.383818,-1.884064,1.274331,-9.987182
1790542572.8509,-0.046463,-0.083700,-0.280936,-0.041046,-0.079097,-0.280936,0.699812,1.188382,0.403244,1.565455,1.051251,-10.414105
1790542572.8650,-0.063791,-0.091246,-0.272429,-0.056967,-0.087601,-0.272429,0.569899,1.218736,0.624218,0.223975,1.794851,-11.190329
1790542572.8786,-0.081309,-0.097904,-0.261545,-0.074007,-0.094813,-0.261545,0.501907,1.317081,0.721349,-0.274288,1.237151,-8.473546
1790542572.8923,-0.091366,-0.099677,-0.249137,-0.086158,-0.098218,-0.249137,0.186230,0.803499,0.745632,-0.887536,2.464091,-10.530539
1790542572.9063,-0.090328,-0.102365,-0.238153,-0.089077,-0.101121,-0.238153,0.203228,-0.022117,0.637573,-0.580912,1.832031,-11.384385
1790542572.9202,-0.082373,-0.104619,-0.232470,-0.084384,-0.103569,-0.232470,0.004109,-0.558768,0.647286,-0.005993,-1.105189,-11.694875
1790542572.9346,-0.076311,-0.104413,-0.232759,-0.078733,-0.104160,-0.232759,-0.197439,-0.595192,0.640002,3.136902,-1.700068,-10.763406
1790542572.9493,-0.073643,-0.104424,-0.231056,-0.075170,-0.104344,-0.231056,-0.187726,-0.439782,0.825765,4.248414,-1.662888,-9.948371
1790542572.9639,-0.073975,-0.099418,-0.227283,-0.074334,-0.100896,-0.227283,-0.424484,-0.298942,0.835478,3.826806,0.084571,-6.843476
1790542572.9781,-0.063818,-0.088609,-0.220524,-0.066973,-0.092295,-0.220524,-0.860361,-0.844092,0.536800,1.680439,-0.138509,-8.706413
1790542572.9920,-0.059893,-0.075301,-0.214797,-0.062017,-0.080399,-0.214797,-1.122615,-0.525986,0.330395,3.941790,-1.514168,-9.560259
1790542573.0060,-0.051012,-0.059116,-0.218575,-0.054314,-0.065501,-0.218575,-1.216104,-0.851376,0.094852,3.673494,0.233291,-9.987182
1790542573.0200,-0.043792,-0.041143,-0.222816,-0.046948,-0.048451,-0.222816,-1.319306,-0.774886,0.060856,3.405198,0.493551,-7.580888
1790542573.0339,-0.044618,-0.029989,-0.230332,-0.045317,-0.035528,-0.230332,-0.793583,-0.091324,-0.065415,2.408670,1.088431,-8.357112
1790542573.0479,-0.056015,-0.042657,-0.215619,-0.052806,-0.040518,-0.215619,0.953568,1.150744,-0.610565,-4.873646,2.241011,-14.372847
1790542573.0618,-0.046581,-0.053090,-0.213025,-0.048448,-0.049319,-0.213025,0.895289,-0.264946,-1.052512,-3.570495,2.166651,-7.774944
1790542573.0757,-0.046705,-0.049133,-0.256029,-0.047228,-0.049189,-0.256029,0.233582,0.031305,-0.509791,0.415615,4.471811,-3.234035
1790542573.0897,-0.044491,-0.059738,-0.252207,-0.045312,-0.056573,-0.252207,0.745949,0.067729,-0.342239,-3.225543,0.790991,-12.509909
1790542573.1035,-0.023394,-0.076615,-0.250249,-0.029969,-0.070603,-0.250249,1.260746,-1.226546,-0.611779,-4.375383,1.385871,-11.267951
1790542573.1171,-0.010352,-0.087592,-0.259062,-0.016237,-0.082495,-0.259062,0.964495,-0.923011,-0.657916,0.223975,3.021791,-9.909560
1790542573.1308,-0.005223,-0.093498,-0.268230,-0.008527,-0.090197,-0.268230,0.568685,-0.373004,-0.661559,0.530599,2.129471,-7.580888
1790542573.1449,0.008026,-0.101627,-0.279889,0.003060,-0.098198,-0.279889,0.569899,-0.829522,-0.826682,-0.925864,0.493551,-8.861658
1790542573.1588,-0.005867,-0.106436,-0.292860,-0.003189,-0.103964,-0.292860,0.470339,1.036614,-0.858250,0.223975,2.835891,-10.879840
1790542573.1729,-0.025695,-0.093197,-0.307833,-0.018943,-0.096427,-0.307833,-0.923496,1.618189,-0.759904,-3.685479,1.348691,-16.352217
1790542573.1869,-0.023154,-0.076075,-0.318667,-0.021891,-0.082180,-0.318667,-1.336304,0.115081,-0.751405,-5.026958,-1.811608,-13.324944
1790542573.2010,-0.027632,-0.062577,-0.317000,-0.025910,-0.068458,-0.317000,-1.353302,0.589810,-0.611779,-1.309144,-2.406488,-3.156413
1790542573.2153,-0.038990,-0.038454,-0.314383,-0.035066,-0.047455,-0.314383,-1.461361,0.989263,-0.657916,-0.887536,2.501271,-5.213406
1790542573.2294,-0.047048,-0.024802,-0.335767,-0.043454,-0.031598,-0.335767,-1.058266,0.968623,-0.711339,-2.688951,-0.398769,-5.717951
1790542573.2433,-0.026964,-0.035079,-0.346861,-0.031911,-0.034035,-0.346861,0.682814,-1.293324,-0.660345,-1.730752,0.344831,-18.564455
1790542573.2573,-0.019969,-0.040646,-0.321253,-0.023552,-0.038662,-0.321253,0.617250,-0.702037,0.377747,2.523654,4.546171,-8.667602
1790542573.2714,-0.019785,-0.047806,-0.314652,-0.020915,-0.045063,-0.314652,0.465483,-0.177528,0.664284,1.603783,0.642271,-10.724595
1790542573.2852,-0.015962,-0.060016,-0.306367,-0.017448,-0.055530,-0.306367,0.878291,-0.420356,0.567153,1.757095,1.385871,-12.742777
1790542573.2992,-0.023978,-0.072192,-0.301197,-0.022019,-0.067194,-0.301197,0.871006,0.530317,0.391102,0.223975,0.753811,-7.425644
1790542573.3132,-0.048417,-0.078900,-0.294003,-0.040498,-0.075388,-0.294003,0.538331,1.629116,0.428741,1.718767,1.832031,-9.521448
1790542573.3271,-0.063858,-0.083703,-0.286380,-0.056850,-0.081209,-0.286380,0.413275,1.144673,0.448167,-0.274288,1.534591,-7.270399
1790542573.3408,-0.072560,-0.085730,-0.276061,-0.067847,-0.084374,-0.276061,0.260293,0.667515,0.508874,-0.350944,2.575631,-8.589979
1790542573.3545,-0.074622,-0.085529,-0.269156,-0.072590,-0.085183,-0.269156,0.004109,0.200071,0.562297,-0.772552,1.794851,-10.879840
1790542573.3685,-0.075260,-0.086759,-0.262173,-0.074459,-0.086286,-0.262173,0.057531,0.027662,0.527086,0.377287,0.865351,-10.103616
1790542573.3825,-0.072811,-0.086906,-0.252297,-0.073305,-0.086720,-0.252297,0.027177,-0.192097,0.521016,0.300631,1.423051,-8.939280
1790542573.3967,-0.061870,-0.087823,-0.241504,-0.065300,-0.087492,-0.241504,0.091527,-0.794312,0.476092,0.453943,1.943571,-11.384385
1790542573.4107,-0.049969,-0.082915,-0.233800,-0.054568,-0.084288,-0.233800,-0.420841,-1.000716,0.440882,2.715294,0.084571,-11.811308
1790542573.4248,-0.042998,-0.074564,-0.230661,-0.046469,-0.077481,-0.230661,-0.700094,-0.693538,0.347393,3.481854,-0.659029,-11.112707
1790542573.4387,-0.034489,-0.061950,-0.229957,-0.038083,-0.066609,-0.229957,-0.986631,-0.763958,0.054785,2.523654,-0.175689,-9.754315
1790542573.4531,-0.025266,-0.048230,-0.231524,-0.029111,-0.053744,-0.231524,-1.004843,-0.814952,-0.135835,2.676966,0.158931,-7.930189
1790542573.4676,-0.020699,-0.037359,-0.240291,-0.023223,-0.042275,-0.240291,-0.866431,-0.566053,-0.251179,3.750150,-0.733389,-7.037532
1790542573.4818,-0.018290,-0.031956,-0.242528,-0.019770,-0.035051,-0.242528,-0.526471,-0.255233,-0.285175,2.715294,-1.476988,-13.014455
1790542573.4959,-0.030884,-0.041596,-0.250910,-0.027550,-0.039632,-0.250910,0.606323,0.929770,-0.609351,1.795423,-0.473129,-17.516553
1790542573.5097,-0.035495,-0.049805,-0.268569,-0.033112,-0.046753,-0.268569,0.646390,0.480537,-1.188496,0.338959,2.315371,-16.585084
1790542573.5237,-0.018347,-0.054043,-0.295054,-0.022777,-0.051856,-0.295054,0.550473,-0.872017,-0.870391,-2.535639,2.761531,-4.941727
1790542573.5377,-0.014741,-0.065259,-0.302151,-0.017152,-0.061238,-0.302151,0.719238,-0.149602,-0.542573,-0.542584,-0.287229,-7.503266
1790542573.5518,-0.001206,-0.081468,-0.311647,-0.005990,-0.075399,-0.311647,1.147831,-0.794312,-0.738050,-1.845736,0.716631,-10.569350
1790542573.5658,0.018729,-0.089074,-0.320004,0.011313,-0.084971,-0.320004,0.687671,-1.400169,-0.784187,0.185647,2.389731,-7.309210
1790542573.5795,0.024159,-0.096915,-0.329817,0.020305,-0.093332,-0.329817,0.565042,-0.490776,-0.923813,2.102047,0.865351,-9.599070
1790542573.5930,0.033039,-0.102992,-0.339882,0.029219,-0.100094,-0.339882,0.455770,-0.714178,-0.880104,0.990535,0.828171,-7.153965
1790542573.6070,0.027897,-0.110718,-0.345204,0.028293,-0.107531,-0.345204,0.385349,0.178216,-0.786615,5.321597,-2.666748,-14.450469
1790542573.6209,0.005235,-0.104880,-0.356116,0.012152,-0.105675,-0.356116,-0.471835,1.771170,-0.708910,-3.110559,0.047391,-19.495924
1790542573.6348,0.003515,-0.087202,-0.370912,0.006106,-0.092744,-0.370912,-1.322949,0.469610,-0.655488,-6.445094,-0.212869,-11.617252
1790542573.6488,0.003948,-0.074504,-0.381272,0.004595,-0.079976,-0.381272,-1.162682,0.208570,-0.600852,-1.769080,-1.848788,-5.135783
1790542573.6627,-0.006555,-0.055188,-0.392747,-0.003210,-0.062624,-0.392747,-1.523282,0.835067,-0.626349,-0.120976,-0.621849,-6.300119
1790542573.6767,-0.020977,-0.033757,-0.400943,-0.015647,-0.042417,-0.400943,-1.480787,1.198095,-0.694341,-0.849208,1.460231,-7.542077
1790542573.6910,-0.035550,-0.020742,-0.409532,-0.029579,-0.027245,-0.409532,-0.854290,1.217522,-0.696769,-0.887536,1.385871,-6.998721
1790542573.7064,-0.023342,-0.032711,-0.416365,-0.025213,-0.031071,-0.416365,0.787230,-0.631617,-0.663987,-1.807408,1.869211,-15.420749
1790542573.7211,-0.018686,-0.041136,-0.413719,-0.020644,-0.038116,-0.413719,0.748378,-0.448281,0.091209,2.676966,5.215411,-11.500819
1790542573.7359,-0.015517,-0.043327,-0.405448,-0.017055,-0.041764,-0.405448,0.209299,-0.292871,0.444525,0.530599,2.352551,-9.987182
1790542573.7507,-0.008690,-0.057115,-0.397115,-0.011200,-0.052510,-0.397115,0.898931,-0.572124,0.570796,0.837223,0.642271,-10.375294
1790542573.7650,-0.016910,-0.072399,-0.395114,-0.015197,-0.066432,-0.395114,1.084695,0.303273,0.496733,3.405198,0.976891,-8.279490
1790542573.7790,-0.030768,-0.079995,-0.389084,-0.026096,-0.075926,-0.389084,0.624535,0.935841,0.563511,0.453943,2.129471,-9.366203
1790542573.7930,-0.048054,-0.087216,-0.380494,-0.041467,-0.083829,-0.380494,0.562614,1.172598,0.741990,0.492271,1.720491,-9.094525
1790542573.8067,-0.061768,-0.087886,-0.374321,-0.055677,-0.086669,-0.374321,0.176517,1.041471,0.738347,-0.657568,2.389731,-6.998721
1790542573.8204,-0.065037,-0.087944,-0.367345,-0.062229,-0.087561,-0.367345,0.076957,0.304487,0.757773,-1.232488,2.426911,-9.172147
1790542573.8343,-0.067850,-0.088924,-0.361038,-0.066164,-0.088515,-0.361038,0.023535,0.237709,0.694638,-0.619240,0.567911,-8.589979
1790542573.8483,-0.067988,-0.090885,-0.354314,-0.067441,-0.090174,-0.354314,0.100026,0.037376,0.663070,-0.504256,0.679451,-9.133336
1790542573.8623,-0.054120,-0.089235,-0.342656,-0.058116,-0.089517,-0.342656,-0.083310,-1.020142,0.643644,0.262303,2.538451,-13.053266
1790542573.8762,-0.047350,-0.082943,-0.329522,-0.050580,-0.084915,-0.329522,-0.579894,-0.675326,0.619361,3.558510,-1.068009,-13.130889
1790542573.8903,-0.038548,-0.073668,-0.317457,-0.042157,-0.077042,-0.317457,-0.819080,-0.829522,0.557440,3.175230,-1.551348,-10.802217
1790542573.9044,-0.025508,-0.061768,-0.308318,-0.030503,-0.066350,-0.308318,-1.003629,-1.152484,0.327967,2.945262,-1.328269,-8.279490
1790542573.9183,-0.013768,-0.045886,-0.303592,-0.018788,-0.052026,-0.303592,-1.206391,-1.106346,0.187127,2.293686,0.047391,-5.485084
1790542573.9323,-0.004559,-0.029849,-0.301865,-0.008828,-0.036502,-0.301865,-1.189393,-0.941223,0.082710,2.830278,0.344831,-6.028441
1790542573.9465,-0.018715,-0.031873,-0.304113,-0.015749,-0.033262,-0.304113,0.143735,0.950410,-0.009564,1.258831,1.423051,-10.996273
1790542573.9611,-0.026539,-0.042583,-0.320102,-0.023302,-0.039787,-0.320102,0.779945,0.821711,-0.842466,-3.992103,2.352551,-13.907112
1790542573.9754,-0.014575,-0.046768,-0.343083,-0.017193,-0.044673,-0.343083,0.404776,-0.563625,-1.298983,-2.650623,3.653851,-13.247322
1790542573.9894,-0.022421,-0.053542,-0.356468,-0.020852,-0.050882,-0.356468,0.637891,0.334840,-0.923813,2.906934,1.683311,-4.165504
1790542574.0036,-0.013161,-0.068183,-0.369731,-0.015468,-0.062992,-0.369731,1.038558,-0.374219,-0.679771,-2.880591,0.716631,-8.085434
1790542574.0183,0.000146,-0.085737,-0.383827,-0.004538,-0.078914,-0.383827,1.215822,-0.760316,-0.855821,-1.309144,0.976891,-9.560259
1790542574.0322,0.017491,-0.092961,-0.399608,0.010882,-0.088747,-0.399608,0.691313,-1.259328,-0.995448,0.722239,2.575631,-6.804665
1790542574.0459,0.021547,-0.097336,-0.410697,0.018347,-0.094760,-0.410697,0.362281,-0.336580,-1.025801,1.412143,1.683311,-9.443825
1790542574.0602,0.032731,-0.105042,-0.418567,0.028416,-0.101957,-0.418567,0.467911,-0.790669,-1.027015,0.722239,-0.064149,-9.909560
1790542574.0742,0.011254,-0.101208,-0.427154,0.016403,-0.101433,-0.427154,-0.354063,1.508916,-1.047656,2.178703,-0.287229,-17.632987
1790542574.0884,-0.010313,-0.084626,-0.441969,-0.002298,-0.089668,-0.441969,-1.214890,1.682538,-0.814541,-2.382327,0.270471,-16.119350
1790542574.1023,-0.006629,-0.070188,-0.462937,-0.005329,-0.076032,-0.462937,-1.182108,0.190357,-0.985735,-4.950302,-1.514168,-6.610609
1790542574.1163,-0.007942,-0.052261,-0.477290,-0.007158,-0.059393,-0.477290,-1.422508,0.406475,-1.006375,-1.500784,-0.621849,-4.204315
1790542574.1303,-0.022257,-0.029143,-0.490328,-0.017728,-0.038218,-0.490328,-1.751541,1.099750,-0.889817,0.300631,-0.101329,-3.350469
1790542574.1444,-0.028037,-0.012099,-0.501310,-0.024944,-0.019935,-0.501310,-1.298666,0.689370,-0.798757,-2.727279,-0.435949,-11.112707
1790542574.1583,-0.024009,-0.009661,-0.508633,-0.024290,-0.012743,-0.508633,-0.243576,0.050731,-0.707696,-3.723807,0.047391,-9.831937
1790542574.1723,-0.014508,-0.027611,-0.512624,-0.017442,-0.023151,-0.512624,1.168471,-0.685039,-0.106696,0.530599,-1.068009,-18.797322
1790542574.1863,-0.020180,-0.033114,-0.508477,-0.019359,-0.030125,-0.508477,0.412060,0.121151,0.615719,3.175230,1.497411,-8.551168
1790542574.2002,-0.017286,-0.040848,-0.498091,-0.017908,-0.037631,-0.498091,0.665816,-0.364505,0.682497,1.067191,2.649991,-8.046623
1790542574.2145,-0.009060,-0.055658,-0.489392,-0.011714,-0.050250,-0.489392,0.925643,-0.550269,0.434812,-0.964192,-0.584669,-7.464455
1790542574.2289,-0.025838,-0.059535,-0.485626,-0.021601,-0.056749,-0.485626,0.276076,1.062111,0.463951,1.297159,1.274331,-10.491728
1790542574.2428,-0.038225,-0.067650,-0.478855,-0.033238,-0.064380,-0.478855,0.546830,0.911558,0.463951,-0.964192,0.753811,-14.023546
1790542574.2569,-0.056933,-0.073716,-0.471727,-0.049824,-0.070915,-0.471727,0.439986,1.193239,0.703137,1.488799,1.274331,-8.589979
1790542574.2708,-0.067192,-0.075290,-0.458961,-0.061981,-0.073978,-0.458961,0.166804,0.795000,0.723777,-1.117504,2.129471,-8.978091
1790542574.2846,-0.073213,-0.079134,-0.447582,-0.069844,-0.077587,-0.447582,0.282147,0.451398,0.728634,-0.465928,1.460231,-8.978091
1790542574.2985,-0.077936,-0.082639,-0.438915,-0.075509,-0.081124,-0.438915,0.231153,0.298416,0.609648,0.645583,1.162791,-10.297672
1790542574.3126,-0.061927,-0.088149,-0.430143,-0.066001,-0.086041,-0.430143,0.208085,-1.086920,0.704351,-1.424128,-1.625708,-11.306763
1790542574.3265,-0.055424,-0.083008,-0.423336,-0.058597,-0.083918,-0.423336,-0.384417,-0.631617,0.540442,2.715294,1.125611,-10.646972
1790542574.3405,-0.044670,-0.075460,-0.416781,-0.048848,-0.077997,-0.416781,-0.643029,-0.992217,0.631503,2.983590,-0.324409,-9.210958
1790542574.3545,-0.038760,-0.063717,-0.410940,-0.041786,-0.068001,-0.410940,-0.950207,-0.708108,0.557440,4.133430,-0.621849,-9.210958
1790542574.3686,-0.026487,-0.047973,-0.406631,-0.031077,-0.053981,-0.406631,-1.211248,-1.061423,0.306113,2.485326,-0.212869,-9.016902
1790542574.3826,-0.017672,-0.035305,-0.403407,-0.021694,-0.040908,-0.403407,-1.007272,-0.944865,0.207767,3.826806,-0.398769,-7.153965
1790542574.3966,-0.008177,-0.020654,-0.409652,-0.012232,-0.026730,-0.409652,-0.968419,-0.935152,0.194411,2.523654,1.720491,-6.222497
1790542574.4106,-0.016735,-0.020259,-0.411853,-0.015384,-0.022200,-0.411853,-0.067526,0.491465,-0.138263,3.366870,0.976891,-13.286133
1790542574.4245,-0.025016,-0.030047,-0.428023,-0.022126,-0.027693,-0.428023,0.772661,0.690584,-0.729551,0.722239,3.988471,-18.409210
1790542574.4384,-0.009864,-0.040746,-0.435471,-0.013543,-0.036830,-0.435471,0.840653,-0.755459,-1.184854,-3.455511,2.389731,-10.685784
1790542574.4524,-0.014225,-0.048530,-0.454946,-0.014021,-0.045020,-0.454946,0.731380,0.261992,-0.587496,1.335487,2.464091,-5.989630
1790542574.4670,-0.006436,-0.068128,-0.458175,-0.008711,-0.061195,-0.458175,1.376089,-0.346293,-0.447870,-2.688951,1.683311,-10.841028
1790542574.4817,0.016519,-0.083628,-0.467159,0.008950,-0.076898,-0.467159,1.159972,-1.334605,-0.764761,-2.842263,2.426911,-8.551168
1790542574.4957,0.025123,-0.092258,-0.480323,0.020271,-0.087650,-0.480323,0.755663,-0.661970,-0.852179,1.143847,2.575631,-7.580888
1790542574.5095,0.037234,-0.097542,-0.493830,0.032145,-0.094575,-0.493830,0.431487,-0.885372,-0.918957,0.492271,1.423051,-7.386832
1790542574.5235,0.049103,-0.107710,-0.495994,0.044015,-0.103769,-0.495994,0.622107,-0.910869,-0.931098,1.220503,-0.324409,-8.667602
1790542574.5379,0.031129,-0.106409,-0.510063,0.034995,-0.105617,-0.510063,-0.102736,1.243019,-0.877676,1.220503,2.166651,-20.582637
1790542574.5520,0.009081,-0.087311,-0.518870,0.016855,-0.092803,-0.518870,-1.401868,1.752958,-0.617850,-4.567022,0.344831,-17.283686
1790542574.5660,0.018257,-0.069674,-0.515493,0.017837,-0.076613,-0.515493,-1.373943,-0.305013,-0.627563,-6.483422,-1.105189,-10.996273
1790542574.5802,0.015775,-0.056076,-0.515559,0.016393,-0.062237,-0.515559,-1.167538,0.378549,-0.566856,-1.960720,-1.737248,-7.153965
1790542574.5944,0.003362,-0.032742,-0.520313,0.007272,-0.041591,-0.520313,-1.762468,1.085180,-0.447870,-1.807408,-0.398769,-6.921098
1790542574.6084,0.000720,-0.008862,-0.529722,0.002686,-0.018681,-0.529722,-1.605844,0.617735,-0.712553,-2.995575,1.683311,-4.514804
1790542574.6225,-0.013503,0.003044,-0.538321,-0.008646,-0.003473,-0.538321,-0.772942,1.090037,-0.534074,0.223975,1.906391,-6.727042
1790542574.6369,0.000055,-0.020864,-0.542313,-0.002555,-0.015647,-0.542313,1.542427,-0.878088,-0.183187,-1.654096,-1.253909,-19.301868
1790542574.6509,0.000563,-0.026632,-0.535228,-0.000373,-0.023336,-0.535228,0.579612,-0.188455,0.319468,1.718767,4.025651,-9.133336
1790542574.6651,0.004696,-0.031800,-0.523446,0.003175,-0.029261,-0.523446,0.422988,-0.410643,0.724992,0.338959,2.910251,-13.130889
1790542574.6794,0.013199,-0.042506,-0.512800,0.010192,-0.038532,-0.512800,0.755663,-0.636473,0.724992,-0.734224,0.753811,-6.765853
1790542574.6933,0.007746,-0.050812,-0.502258,0.008480,-0.047128,-0.502258,0.755663,0.265634,0.620575,0.530599,2.278191,-6.144874
1790542574.7073,-0.002613,-0.059610,-0.492251,0.000715,-0.055866,-0.492251,0.657317,0.644447,0.733491,0.377287,1.571771,-11.112707
1790542574.7212,-0.016862,-0.065496,-0.481433,-0.011589,-0.062607,-0.481433,0.501907,0.916414,0.775986,0.760567,2.241011,-9.715504
1790542574.7351,-0.033542,-0.068473,-0.470858,-0.026956,-0.066713,-0.470858,0.231153,1.104606,0.819695,0.568927,1.497411,-10.142427
1790542574.7493,-0.040842,-0.070641,-0.467581,-0.036676,-0.069463,-0.467581,0.143735,0.584954,0.705565,-1.884064,1.162791,-10.258860
1790542574.7634,-0.039874,-0.068466,-0.459537,-0.038914,-0.068765,-0.459537,-0.077239,-0.091324,0.556226,-0.120976,2.612811,-10.103616
1790542574.7774,-0.029726,-0.061971,-0.447025,-0.032482,-0.064009,-0.447025,-0.521615,-0.863518,0.616933,1.833751,0.456371,-12.199420
1790542574.7913,-0.025875,-0.053583,-0.435465,-0.027857,-0.056711,-0.435465,-0.741375,-0.467708,0.573224,2.638638,-1.105189,-11.306763
1790542574.8053,-0.023838,-0.048776,-0.423288,-0.025044,-0.051156,-0.423288,-0.564110,-0.491990,0.704351,4.286742,-2.294948,-8.279490
1790542574.8194,-0.017314,-0.041545,-0.412484,-0.019633,-0.044428,-0.412484,-0.650314,-0.682611,0.517373,1.450471,-0.510309,-5.291028
1790542574.8334,-0.006288,-0.033193,-0.405128,-0.010291,-0.036563,-0.405128,-0.700094,-0.938795,0.255119,1.373815,-0.287229,-7.270399
1790542574.8473,0.001137,-0.022117,-0.409701,-0.002292,-0.026451,-0.409701,-0.821508,-0.773671,0.026860,3.826806,0.865351,-9.676693
1790542574.8615,0.000653,-0.019152,-0.410460,-0.000230,-0.021341,-0.410460,-0.312782,-0.111964,-0.246322,4.976645,-0.547489,-16.235784
1790542574.8755,-0.005853,-0.021882,-0.426711,-0.004166,-0.021720,-0.426711,0.227511,0.627449,-0.903173,-0.810880,3.207691,-16.352217
1790542574.8896,0.001364,-0.031396,-0.452053,-0.000295,-0.028494,-0.452053,0.733808,0.014307,-1.336622,-2.957247,1.014071,-4.087881
1790542574.9037,0.004785,-0.034759,-0.482375,0.003261,-0.032880,-0.482375,0.524976,-0.271017,-0.823040,1.143847,3.133331,-4.281937
1790542574.9178,0.001576,-0.046654,-0.482364,0.002081,-0.042522,-0.482364,0.778731,0.196428,-0.470938,0.990535,0.084571,-6.921098
1790542574.9319,0.020674,-0.056333,-0.500590,0.015096,-0.052190,-0.500590,0.761733,-1.137914,-0.928670,-2.765607,3.133331,-12.121798
1790542574.9461,0.030517,-0.068660,-0.516518,0.025891,-0.063719,-0.516518,0.824869,-0.587908,-1.256488,-0.159304,1.014071,-13.208511
1790542574.9599,0.040090,-0.072441,-0.537954,0.035830,-0.069825,-0.537954,0.361066,-0.610976,-1.178783,-0.044320,2.649991,-8.551168
1790542574.9739,0.049426,-0.080052,-0.534990,0.045347,-0.076983,-0.534990,0.365923,-0.698395,-0.939597,0.990535,-1.068009,-8.046623
1790542574.9884,0.048348,-0.091102,-0.534587,0.047448,-0.086866,-0.534587,0.586897,0.071372,-0.786615,0.798895,-2.146228,-14.256413
1790542575.0026,0.030360,-0.082192,-0.547686,0.035486,-0.083595,-0.547686,-0.629674,1.297655,-0.677343,-0.120976,2.464091,-19.573546
1790542575.0167,0.031322,-0.066558,-0.551256,0.032571,-0.071669,-0.551256,-1.295023,0.235281,-0.745335,-4.873646,-2.034688,-10.336483
1790542575.0307,0.034126,-0.050359,-0.559080,0.033659,-0.056752,-0.559080,-1.403082,0.161218,-0.799971,-3.263871,-1.811608,-5.640329
1790542575.0446,0.020262,-0.032195,-0.567852,0.024281,-0.039562,-0.567852,-1.530567,1.111891,-0.691912,-0.350944,-1.216729,-6.300119
1790542575.0586,0.012915,-0.016812,-0.574594,0.016325,-0.023637,-0.574594,-1.285310,0.892132,-0.684627,-2.803935,-0.956469,-5.601518
1790542575.0724,0.003062,-0.003538,-0.581290,0.007041,-0.009568,-0.581290,-1.064336,0.975907,-0.668844,-1.040848,0.010211,-4.126693
1790542575.0864,0.010706,-0.005799,-0.586452,0.009607,-0.006930,-0.586452,0.120666,-0.476207,-0.429658,-0.542584,2.055111,-21.281238
1790542575.1005,0.024372,-0.016919,-0.587413,0.019943,-0.013922,-0.587413,0.753234,-1.029855,0.034145,0.377287,0.828171,-11.151518
1790542575.1144,0.017447,-0.020460,-0.598491,0.018195,-0.018499,-0.598491,0.358638,0.166075,0.773557,2.676966,2.129471,-7.309210
1790542575.1283,0.024876,-0.030285,-0.583602,0.022872,-0.026749,-0.583602,0.792087,-0.462851,0.479735,-1.232488,1.199971,-4.592427
1790542575.1423,0.018005,-0.039783,-0.597449,0.019465,-0.035873,-0.597449,0.714382,0.170931,0.355892,3.520182,1.237151,-7.425644
1790542575.1562,0.001168,-0.047896,-0.599058,0.006657,-0.044289,-0.599058,0.622107,1.080324,0.381389,1.757095,1.906391,-11.384385
1790542575.1701,-0.013648,-0.053997,-0.594453,-0.007556,-0.051085,-0.594453,0.507978,1.032972,0.519802,-0.235960,2.315371,-10.258860
1790542575.1838,-0.028453,-0.057373,-0.586421,-0.022184,-0.055486,-0.586421,0.314929,1.108249,0.572010,-0.810880,1.757671,-7.619700
1790542575.1975,-0.032250,-0.059345,-0.576462,-0.029230,-0.058187,-0.576462,0.175303,0.277776,0.641216,-0.887536,2.017931,-11.073895
1790542575.2115,-0.036736,-0.060256,-0.569001,-0.034484,-0.059636,-0.569001,0.058745,0.271705,0.562297,0.185647,0.976891,-8.318301
1790542575.2257,-0.033252,-0.058345,-0.560908,-0.033622,-0.058732,-0.560908,-0.050528,-0.284372,0.567153,-0.044320,2.315371,-8.240679
1790542575.2401,-0.022442,-0.060185,-0.551570,-0.025796,-0.059749,-0.551570,0.197157,-0.879302,0.664284,1.105519,2.464091,-9.754315
1790542575.2542,-0.013149,-0.054751,-0.540913,-0.016943,-0.056251,-0.540913,-0.448766,-0.862304,0.561082,3.021918,0.158931,-12.238231
1790542575.2681,-0.008207,-0.047677,-0.527604,-0.010827,-0.050249,-0.527604,-0.644243,-0.606120,0.519802,3.520182,-1.216729,-10.569350
1790542575.2821,-0.001419,-0.037496,-0.519422,-0.004242,-0.041322,-0.519422,-0.850647,-0.682611,0.268474,2.063719,-0.659029,-7.542077
1790542575.2962,0.004721,-0.025439,-0.522936,0.002032,-0.030204,-0.522936,-0.895571,-0.675326,0.028074,2.945262,0.456371,-7.425644
1790542575.3101,0.012804,-0.016937,-0.524687,0.009573,-0.020917,-0.524687,-0.663669,-0.736033,-0.161332,2.676966,0.493551,-9.676693
1790542575.3242,0.000180,-0.022712,-0.530629,0.002998,-0.022174,-0.530629,0.319786,0.764647,-0.444227,5.359925,-0.101329,-15.226693
1790542575.3382,-0.000601,-0.029753,-0.542428,0.000479,-0.027479,-0.542428,0.533475,0.349410,-1.097436,-3.033903,2.389731,-12.315854
1790542575.3522,0.010498,-0.039644,-0.555376,0.007492,-0.035994,-0.555376,0.719238,-0.501704,-1.260131,-2.343999,1.646131,-9.715504
1790542575.3663,0.012915,-0.048751,-0.584375,0.011288,-0.044924,-0.584375,0.815156,-0.184812,-0.689484,0.990535,2.910251,-6.959909
1790542575.3803,0.019411,-0.061127,-0.593733,0.016974,-0.056266,-0.593733,0.912287,-0.329295,-0.615421,-1.692424,1.906391,-11.656063
1790542575.3943,0.036406,-0.067690,-0.614329,0.030577,-0.064263,-0.614329,0.601467,-1.008001,-1.001518,-2.382327,3.653851,-9.637881
1790542575.4082,0.043989,-0.075319,-0.636208,0.039966,-0.072002,-0.636208,0.583254,-0.501704,-1.238276,0.607255,2.241011,-9.599070
1790542575.4221,0.051182,-0.078044,-0.651456,0.047817,-0.076231,-0.651456,0.268792,-0.592764,-1.039157,1.412143,1.943571,-6.571797
1790542575.4361,0.061010,-0.088512,-0.646041,0.057052,-0.084828,-0.646041,0.590539,-0.731176,-0.791472,0.683911,-0.733389,-7.852567
1790542575.4500,0.058235,-0.103222,-0.640524,0.057880,-0.097704,-0.640524,0.934141,0.172145,-0.424801,0.453943,-1.365448,-15.110259
1790542575.4640,0.040784,-0.095514,-0.658935,0.045913,-0.096171,-0.658935,-0.499760,1.274586,-0.602066,-0.389272,3.133331,-15.381938
1790542575.4783,0.035738,-0.078518,-0.662301,0.038790,-0.083814,-0.662301,-1.268312,0.643232,-0.748977,-7.058341,0.084571,-15.032637
1790542575.4930,0.034395,-0.066524,-0.643430,0.035714,-0.071711,-0.643430,-1.109260,0.396762,-0.725908,-3.302199,-2.778288,-6.222497
1790542575.5071,0.025684,-0.050714,-0.645117,0.028693,-0.057013,-0.645117,-1.307165,0.837495,-0.569284,-1.922392,-1.105189,-6.455364
1790542575.5211,0.019966,-0.032460,-0.648185,0.022584,-0.039826,-0.648185,-1.350874,0.570384,-0.398090,-1.040848,0.344831,-4.980539
1790542575.5351,0.013106,-0.017678,-0.651137,0.015950,-0.024322,-0.651137,-1.131114,0.731865,-0.254821,-2.497311,0.158931,-6.804665
1790542575.5492,0.012429,-0.005956,-0.660885,0.013485,-0.011466,-0.660885,-0.774156,0.355481,-0.399304,-3.992103,2.315371,-8.318301
1790542575.5632,0.028960,-0.018155,-0.660062,0.024317,-0.016148,-0.660062,0.707097,-1.068708,0.208981,-4.490366,-2.332128,-14.760958
1790542575.5772,0.027442,-0.031822,-0.655647,0.026505,-0.027120,-0.655647,0.962067,-0.084039,0.766272,1.603783,0.939711,-14.683336
1790542575.5911,0.019729,-0.044885,-0.653224,0.021762,-0.039556,-0.653224,1.152687,0.322699,0.933824,1.910407,4.508991,-9.909560
1790542575.6051,0.023383,-0.053382,-0.645028,0.022896,-0.049234,-0.645028,0.673101,-0.195740,0.344965,-1.769080,1.757671,-8.551168
1790542575.6190,0.008691,-0.062893,-0.649813,0.012953,-0.058795,-0.649813,0.732594,0.833853,0.344965,2.945262,1.571771,-9.210958
1790542575.6329,-0.012747,-0.074494,-0.648646,-0.005037,-0.069785,-0.648646,0.878291,1.340150,0.569581,3.060246,1.943571,-11.733686
1790542575.6466,-0.024817,-0.080616,-0.642680,-0.018883,-0.077367,-0.642680,0.527404,0.779216,0.723777,0.990535,2.278191,-10.064805
1790542575.6602,-0.031286,-0.080821,-0.634775,-0.027565,-0.079785,-0.634775,0.089099,0.428329,0.762630,0.032335,2.389731,-10.336483
1790542575.6742,-0.037056,-0.081469,-0.625817,-0.034208,-0.080964,-0.625817,0.059959,0.326341,0.743204,0.722239,1.237151,-8.978091
1790542575.6882,-0.043102,-0.082577,-0.619441,-0.040434,-0.082093,-0.619441,0.223868,0.266848,0.734705,1.718767,2.835891,-7.348021
1790542575.7023,-0.028733,-0.089137,-0.612394,-0.032244,-0.087024,-0.612394,0.488551,-1.000716,0.569581,-0.887536,1.460231,-10.181238
1790542575.7162,-0.019414,-0.083475,-0.599657,-0.023263,-0.084540,-0.599657,-0.403843,-0.909655,0.456666,4.286742,1.199971,-11.617252
1790542575.7304,-0.007039,-0.069497,-0.583493,-0.011906,-0.074010,-0.583493,-1.084977,-1.106346,0.369248,4.248414,-0.844929,-12.121798
1790542575.7447,-0.000597,-0.055601,-0.570747,-0.003990,-0.061124,-0.570747,-1.104403,-0.795526,0.202910,4.210086,-0.993649,-6.571797
1790542575.7590,0.014290,-0.037993,-0.571101,0.008806,-0.044932,-0.571101,-1.239173,-1.244759,0.026860,1.527127,0.493551,-4.747672
1790542575.7734,0.029901,-0.027560,-0.569038,0.023573,-0.032772,-0.569038,-0.707379,-1.328534,0.259975,2.102047,0.902531,-6.494175
1790542575.7877,0.034642,-0.021010,-0.572104,0.031321,-0.024539,-0.572104,-0.409914,-0.570910,0.200482,2.561982,1.497411,-7.619700
1790542575.8032,0.013651,-0.035759,-0.588885,0.018952,-0.032393,-0.588885,0.997277,1.541698,-0.366522,-3.455511,3.170511,-13.945924
1790542575.8179,0.016800,-0.043043,-0.614789,0.017446,-0.039848,-0.614789,0.544402,0.067729,-1.164214,-3.647151,3.170511,-13.169700
1790542575.8321,0.020644,-0.057606,-0.606810,0.019684,-0.052279,-0.606810,0.847937,0.017949,-0.917743,-2.573967,-1.105189,-7.270399
1790542575.8470,0.026978,-0.074368,-0.619528,0.024790,-0.067741,-0.619528,1.161186,-0.298942,-0.545001,-1.079176,1.088431,-6.416553
1790542575.8609,0.040610,-0.093441,-0.633022,0.035864,-0.085731,-0.633022,1.384588,-0.890229,-0.776902,-0.964192,1.274331,-9.754315
1790542575.8743,0.059130,-0.110811,-0.650479,0.052150,-0.103287,-0.650479,1.331166,-1.278754,-0.876462,-1.194160,1.385871,-8.046623
1790542575.8881,0.080912,-0.121480,-0.671603,0.072283,-0.116022,-0.671603,0.875863,-1.639355,-0.960238,0.645583,2.315371,-7.270399
1790542575.9022,0.084161,-0.138404,-0.676463,0.080598,-0.131689,-0.676463,1.208538,-0.416714,-0.824254,2.370342,1.385871,-8.667602
1790542575.9162,0.066745,-0.142110,-0.685910,0.070901,-0.138984,-0.685910,0.186230,1.159243,-0.966308,1.833751,0.567911,-19.845224
1790542575.9302,0.058299,-0.134257,-0.690561,0.062080,-0.135675,-0.690561,-0.745017,0.741578,-0.988163,-4.758662,-2.964188,-18.525644
1790542575.9443,0.052982,-0.129674,-0.682804,0.055711,-0.131474,-0.682804,-0.652742,0.564313,-1.039157,-3.915447,-5.009088,-11.190329
1790542575.9583,0.049223,-0.118494,-0.724190,0.051170,-0.122388,-0.724190,-0.907712,0.740364,-1.201852,-4.643678,-0.398769,-4.204315
1790542575.9724,0.044504,-0.102410,-0.738369,0.046504,-0.108404,-0.738369,-1.241601,0.461111,-1.103506,-1.079176,-0.064149,-6.610609
1790542575.9868,0.047262,-0.087708,-0.745532,0.047034,-0.093916,-0.745532,-1.203963,0.128436,-0.894674,-2.995575,-1.030829,-5.368651
1790542576.0013,0.042442,-0.067765,-0.755046,0.043819,-0.075610,-0.755046,-1.475931,0.361551,-0.691912,0.032335,-0.212869,-8.861658
1790542576.0155,0.029605,-0.043101,-0.759518,0.033869,-0.052854,-0.759518,-1.871741,1.049970,-0.432086,-1.922392,-0.696209,-10.181238
1790542576.0294,0.021258,-0.020750,-0.765516,0.025041,-0.030381,-0.765516,-1.747898,0.952839,-0.599637,-4.796990,-0.770569,-9.366203
1790542576.0434,0.045447,-0.023086,-0.775344,0.039325,-0.025274,-0.775344,-0.071168,-1.652710,-0.551072,-1.692424,-5.232168,-21.281238
1790542576.0574,0.048755,-0.037748,-0.786490,0.045926,-0.034006,-0.786490,1.043414,-0.550269,0.369248,6.969700,1.274331,-17.516553
1790542576.0714,0.040012,-0.042049,-0.796263,0.041786,-0.039636,-0.796263,0.515262,0.293560,0.189555,5.513237,4.955151,-9.172147
1790542576.0854,0.042105,-0.056017,-0.803384,0.042010,-0.051102,-0.803384,0.965709,-0.183598,-0.410231,0.645583,0.642271,-7.736133
1790542576.0991,0.030307,-0.073364,-0.802167,0.033818,-0.066686,-0.802167,1.200039,0.595881,-0.056916,3.558510,-0.175689,-7.891378
1790542576.1126,0.009403,-0.093108,-0.809264,0.016727,-0.085181,-0.809264,1.521786,1.342578,0.166486,3.021918,1.683311,-9.948371
1790542576.1266,-0.001151,-0.101333,-0.808590,0.004212,-0.096487,-0.808590,0.722881,0.808356,0.432383,-1.462456,2.947431,-10.414105
1790542576.1406,-0.016327,-0.102444,-0.808750,-0.010165,-0.100657,-0.808750,0.219012,1.024473,0.619361,0.415615,2.426911,-8.163056
1790542576.1547,-0.025251,-0.099638,-0.801995,-0.020725,-0.099943,-0.801995,0.092741,0.651731,0.615719,-0.580912,5.141051,-7.813756
1790542576.1686,-0.010713,-0.104160,-0.771280,-0.013717,-0.102895,-0.771280,0.142521,-1.012857,0.811196,-2.075704,-3.447528,-15.886483
1790542576.1830,0.003309,-0.089598,-0.765252,-0.001799,-0.093587,-0.765252,-0.972062,-1.097847,0.470022,2.791950,2.687171,-19.107812
1790542576.1970,-0.001749,-0.072869,-0.728136,-0.001764,-0.079084,-0.728136,-1.359373,0.000951,0.354678,7.391308,-2.480848,-11.035084
1790542576.2111,0.004245,-0.052540,-0.726515,0.002442,-0.060503,-0.726515,-1.461361,-0.598835,0.182270,2.293686,0.753811,-9.249770
1790542576.2250,0.012829,-0.030220,-0.718617,0.009713,-0.039305,-0.718617,-1.719973,-0.862304,-0.011993,3.175230,-0.547489,-7.697322
1790542576.2390,0.033106,-0.011080,-0.754924,0.026088,-0.019547,-0.754924,-1.057052,-1.551936,0.210195,0.338959,2.835891,-4.165504
1790542576.2533,0.037092,-0.008676,-0.751955,0.033791,-0.011938,-0.751955,-0.061455,-0.558768,0.240549,3.136902,2.538451,-7.697322
1790542576.2674,0.014151,-0.037837,-0.702180,0.020043,-0.030067,-0.702180,1.794968,1.442138,-0.073914,3.021918,-2.146228,-8.007811
1790542576.2815,0.019450,-0.045036,-0.754549,0.019628,-0.040546,-0.754549,0.756877,-0.133818,-0.575355,-4.068759,6.033370,-11.035084
1790542576.2954,0.016815,-0.055280,-0.757250,0.017659,-0.050859,-0.757250,0.681600,0.156361,-0.704054,2.523654,0.902531,-15.381938
1790542576.3098,0.016687,-0.063043,-0.778811,0.016979,-0.059388,-0.778811,0.605109,0.118723,-0.668844,-0.772552,1.869211,-8.473546
1790542576.3240,0.021142,-0.068146,-0.799118,0.019893,-0.065519,-0.799118,0.424202,-0.221237,-0.691912,-0.542584,1.571771,-7.464455
1790542576.3375,0.023838,-0.071208,-0.829731,0.022654,-0.069501,-0.829731,0.397491,-0.101037,-0.728337,-0.427600,2.203831,-5.717951
1790542576.3513,0.034332,-0.073613,-0.847315,0.030829,-0.072379,-0.847315,0.219012,-0.642544,-0.685842,-1.232488,1.608951,-8.822846
1790542576.3655,0.039366,-0.075350,-0.858426,0.036805,-0.074459,-0.858426,0.125523,-0.351150,-0.849751,0.607255,1.274331,-8.512357
1790542576.3795,0.045082,-0.074490,-0.872595,0.042599,-0.074481,-0.872595,-0.004390,-0.426427,-0.917743,0.952207,2.092291,-8.279490
1790542576.3936,0.041801,-0.075974,-0.893704,0.042040,-0.075526,-0.893704,0.175303,0.287489,-0.751405,-0.312616,3.542311,-13.907112
1790542576.4075,0.018267,-0.063220,-0.901351,0.025399,-0.066912,-0.901351,-0.964777,1.708035,-0.991805,1.565455,1.460231,-15.265504
1790542576.4216,0.011646,-0.046259,-0.909875,0.015772,-0.052455,-0.909875,-1.273169,0.650517,-0.815755,-2.305671,0.493551,-13.790679
1790542576.4356,0.006237,-0.034635,-0.879734,0.009097,-0.039981,-0.879734,-1.059480,0.707582,-0.739264,-3.033903,-1.514168,-6.765853
1790542576.4495,0.010144,-0.025713,-0.886409,0.009830,-0.029993,-0.886409,-0.697665,0.102939,-0.650631,-2.957247,0.233291,-5.135783
1790542576.4634,0.017309,-0.028469,-0.895205,0.015065,-0.028926,-0.895205,0.219012,-0.427641,-0.432086,-0.887536,2.055111,-11.656063
1790542576.4774,0.012172,-0.039283,-0.873520,0.013040,-0.036176,-0.873520,0.753234,0.123580,0.603577,3.788478,1.162791,-14.372847
1790542576.4915,0.005822,-0.047352,-0.862097,0.007987,-0.043999,-0.862097,0.645176,0.253493,0.984818,1.067191,1.757671,-8.124245
1790542576.5061,0.016630,-0.057853,-0.860601,0.014038,-0.053697,-0.860601,0.749592,-0.610976,0.591436,-2.727279,0.939711,-7.115154
1790542576.5201,-0.000621,-0.064489,-0.833067,0.003777,-0.061251,-0.833067,0.432701,0.929770,0.491876,3.788478,0.344831,-8.434735
1790542576.5342,-0.020284,-0.075971,-0.818870,-0.013066,-0.071555,-0.818870,0.750806,1.291584,0.471236,1.335487,-0.101329,-10.452916
1790542576.5484,-0.036257,-0.085656,-0.815692,-0.029299,-0.081426,-0.815692,0.753234,0.986835,0.896186,1.220503,1.794851,-8.007811
1790542576.5620,-0.048486,-0.092100,-0.821945,-0.042730,-0.088898,-0.821945,0.582040,0.910344,0.916826,-0.734224,3.096151,-11.035084
1790542576.5756,-0.049494,-0.095165,-0.832073,-0.047465,-0.093285,-0.832073,0.370780,0.141792,0.835478,-1.347472,3.207691,-8.939280
1790542576.5896,-0.042416,-0.098727,-0.827032,-0.043931,-0.097094,-0.827032,0.254222,-0.484706,0.806339,-1.117504,1.646131,-14.295224
1790542576.6035,-0.033890,-0.098035,-0.812292,-0.036903,-0.097753,-0.812292,-0.100308,-0.692324,0.667927,1.182175,0.344831,-13.945924
1790542576.6176,-0.027671,-0.098656,-0.772896,-0.030440,-0.098385,-0.772896,-0.113663,-0.652257,0.666713,3.251886,-1.588528,-10.996273
1790542576.6316,-0.027408,-0.098077,-0.733580,-0.028318,-0.098169,-0.733580,-0.215651,-0.303798,0.562297,3.980118,-1.588528,-8.473546
1790542576.6455,-0.023477,-0.087101,-0.725967,-0.024929,-0.090422,-0.725967,-0.813009,-0.619475,0.394745,3.596838,0.270471,-5.873196
1790542576.6595,-0.021884,-0.070384,-0.720011,-0.022797,-0.076395,-0.720011,-1.199106,-0.291657,0.363177,2.293686,0.902531,-8.589979
1790542576.6734,-0.018013,-0.050764,-0.711757,-0.019448,-0.058453,-0.711757,-1.457718,-0.494419,0.025646,3.328542,0.382011,-8.706413
1790542576.6881,-0.009327,-0.030628,-0.690735,-0.012364,-0.038975,-0.690735,-1.522068,-0.772457,-0.103053,3.328542,-1.068009,-9.366203
1790542576.7023,0.003763,-0.012274,-0.677129,-0.001075,-0.020285,-0.677129,-1.434650,-1.137914,0.001363,3.175230,-0.621849,-9.133336
1790542576.7167,0.000990,-0.007374,-0.662897,0.000370,-0.011247,-0.662897,-0.486405,0.107796,-0.162546,2.983590,-0.919289,-15.770049
1790542576.7306,-0.014028,-0.028582,-0.652578,-0.009709,-0.023381,-0.652578,1.368804,1.245447,-0.586282,-1.845736,-1.662888,-19.651168
1790542576.7446,0.009632,-0.032120,-0.821100,0.003830,-0.029499,-0.821100,0.685242,-1.171910,-1.061011,-4.068759,3.244871,-3.777392
1790542576.7589,0.001865,-0.039336,-0.819052,0.002455,-0.036385,-0.819052,0.458198,0.510891,-0.490365,1.488799,0.679451,-9.366203
1790542576.7731,0.000668,-0.052081,-0.825932,0.001204,-0.047372,-0.825932,0.901360,0.240137,-0.451512,-1.922392,1.237151,-10.841028
1790542576.7867,0.025522,-0.066808,-0.834548,0.018227,-0.060977,-0.834548,1.157544,-1.513084,-0.625134,-5.410238,2.575631,-10.724595
1790542576.8003,0.031086,-0.076243,-0.851096,0.027229,-0.071663,-0.851096,0.847937,-0.499275,-0.628777,1.757095,2.984611,-7.852567
1790542576.8140,0.033294,-0.074981,-0.877536,0.031474,-0.073986,-0.877536,0.161947,-0.145960,-0.600852,0.223975,3.244871,-5.795574
1790542576.8279,0.043692,-0.080269,-0.891191,0.040027,-0.078384,-0.891191,0.380493,-0.647401,-0.661559,-1.155832,1.199971,-9.987182
1790542576.8420,0.053344,-0.087709,-0.907688,0.049348,-0.084912,-0.907688,0.545616,-0.587908,-0.695555,-1.194160,1.274331,-8.861658
1790542576.8558,0.041522,-0.084933,-0.919929,0.043870,-0.084927,-0.919929,-0.120948,0.841138,-0.456369,0.492271,3.096151,-12.509909
1790542576.8697,0.018309,-0.070688,-0.922565,0.025978,-0.074960,-0.922565,-1.070407,1.680110,-0.438157,0.338959,0.865351,-15.925294
1790542576.8837,0.017883,-0.054541,-0.898340,0.020311,-0.060667,-0.898340,-1.337518,0.320271,-0.509791,-4.567022,-1.439808,-9.482637
1790542576.8976,0.011164,-0.042631,-0.878307,0.013908,-0.048042,-0.878307,-1.060694,0.601952,-0.270605,-1.424128,-1.551348,-8.279490
1790542576.9115,0.005863,-0.027289,-0.888091,0.008277,-0.033515,-0.888091,-1.074050,0.610451,-0.194114,-1.730752,0.865351,-4.786483
1790542576.9255,0.003722,-0.017594,-0.896746,0.005088,-0.022371,-0.896746,-0.679453,0.293560,-0.286389,-0.849208,0.828171,-4.941727
1790542576.9396,0.018295,-0.029628,-0.886027,0.014333,-0.027451,-0.886027,0.742307,-0.935152,0.026860,-3.570495,-0.919289,-16.352217
1790542576.9538,0.017611,-0.038717,-0.863558,0.016628,-0.035337,-0.863558,0.755663,-0.300156,0.853691,6.318125,4.694891,-15.032637
1790542576.9682,0.012548,-0.047387,-0.841852,0.013772,-0.043772,-0.841852,0.616036,0.109010,1.120802,2.140375,1.385871,-12.548721
1790542576.9824,0.019146,-0.056219,-0.829342,0.017534,-0.052485,-0.829342,0.618465,-0.442211,0.918040,-2.497311,0.642271,-10.336483
1790542576.9968,0.003181,-0.063020,-0.808476,0.007487,-0.059859,-0.808476,0.456984,0.855707,0.835478,1.948735,0.419191,-6.649420
1790542577.0112,-0.014322,-0.072216,-0.797088,-0.007779,-0.068509,-0.797088,0.670673,1.037829,0.898614,1.603783,1.311511,-8.939280
1790542577.0248,-0.030820,-0.076861,-0.794737,-0.023908,-0.074356,-0.794737,0.418131,1.113105,0.851262,0.568927,1.683311,-7.503266
1790542577.0385,-0.040355,-0.081816,-0.788568,-0.035420,-0.079578,-0.788568,0.354996,0.730651,0.843977,-1.462456,1.199971,-11.578441
1790542577.0526,-0.044638,-0.082860,-0.784426,-0.041872,-0.081876,-0.784426,0.107311,0.278990,0.818480,-0.235960,2.055111,-11.578441
1790542577.0666,-0.031842,-0.085036,-0.771119,-0.034851,-0.084088,-0.771119,0.107311,-0.944865,0.859761,-0.465928,0.642271,-12.820399
1790542577.0805,-0.021232,-0.080863,-0.749491,-0.025318,-0.081831,-0.749491,-0.392916,-0.892657,0.796626,1.143847,-0.287229,-9.599070
1790542577.0945,-0.019265,-0.079964,-0.709373,-0.021081,-0.080524,-0.709373,-0.275144,-0.394859,0.902256,3.328542,-2.332128,-10.220049
1790542577.1085,-0.007490,-0.077451,-0.680067,-0.011568,-0.078373,-0.680067,-0.356492,-1.092991,0.779628,2.217030,-1.291089,-6.921098
1790542577.1223,-0.000047,-0.070782,-0.667635,-0.003503,-0.073059,-0.667635,-0.578680,-0.848948,0.609648,3.175230,-0.584669,-6.921098
1790542577.1364,0.001471,-0.057495,-0.672482,-0.000021,-0.062164,-0.672482,-0.972062,-0.473778,0.410529,4.440053,0.158931,-7.115154
1790542577.1504,0.014561,-0.037767,-0.671733,0.010187,-0.045086,-0.671733,-1.405510,-1.153698,0.164058,3.405198,1.088431,-10.452916
1790542577.1644,0.016603,-0.020161,-0.678681,0.014678,-0.027638,-0.678681,-1.270741,-0.356006,-0.234181,3.673494,1.125611,-9.133336
1790542577.1783,0.007528,-0.024588,-0.666730,0.009673,-0.025503,-0.666730,0.152234,0.688156,-0.589924,1.297159,-1.105189,-16.274595
1790542577.1922,0.012021,-0.034826,-0.683957,0.011317,-0.032029,-0.683957,0.750806,-0.011190,-0.876462,-4.298727,1.906391,-11.811308
1790542577.2063,0.006356,-0.037351,-0.723349,0.007845,-0.035754,-0.723349,0.346497,0.370050,-0.685842,1.603783,2.910251,-7.774944
1790542577.2203,0.006843,-0.052182,-0.716808,0.007144,-0.047254,-0.716808,0.953568,-0.006334,-0.541359,0.492271,-0.212869,-10.297672
1790542577.2342,0.022545,-0.068165,-0.740991,0.017924,-0.061892,-0.740991,1.223107,-0.938795,-0.963880,-2.037376,2.092291,-10.025993
1790542577.2479,0.034307,-0.078080,-0.779129,0.029392,-0.073224,-0.779129,0.879505,-0.890229,-1.028230,1.297159,2.612811,-7.386832
1790542577.2622,0.045419,-0.080512,-0.818912,0.040611,-0.078325,-0.818912,0.327070,-0.702037,-1.014874,-0.235960,2.761531,-7.309210
1790542577.2763,0.054990,-0.086332,-0.824199,0.050676,-0.083930,-0.824199,0.308858,-0.661970,-1.095007,0.492271,0.196111,-9.793126
1790542577.2905,0.071918,-0.090270,-0.852969,0.065546,-0.088368,-0.852969,0.329499,-1.082063,-0.991805,-1.424128,2.278191,-9.870749
1790542577.3048,0.039481,-0.092410,-0.872913,0.047301,-0.091197,-0.872913,0.125523,2.307821,-0.952953,0.338959,2.835891,-21.281238
1790542577.3187,0.029016,-0.074126,-0.894154,0.034502,-0.079247,-0.894154,-1.259813,1.048756,-0.738050,-6.023486,2.947431,-13.169700
1790542577.3327,0.028333,-0.059268,-0.882314,0.030184,-0.065262,-0.882314,-1.228246,0.311772,-0.708910,-4.260399,-1.291089,-10.841028
1790542577.3469,0.025607,-0.044029,-0.873116,0.026980,-0.050399,-0.873116,-1.219747,0.576455,-0.734407,-3.110559,-0.435949,-4.902916
1790542577.3608,0.016061,-0.027046,-0.879728,0.019336,-0.034052,-0.879728,-1.257385,0.786501,-0.481866,-0.312616,0.382011,-3.971448
1790542577.3747,0.005125,-0.020407,-0.881486,0.009388,-0.024500,-0.881486,-0.573823,1.153172,-0.513433,-2.727279,-0.064149,-5.019350
1790542577.3888,-0.008633,-0.018675,-0.899117,-0.003226,-0.020422,-0.899117,-0.049314,1.189596,-0.458797,-2.535639,3.021791,-11.345574
1790542577.4031,0.009667,-0.031970,-0.891268,0.005799,-0.028506,-0.891268,0.896503,-1.329748,0.114278,0.338959,1.311511,-17.865854
1790542577.4170,0.003733,-0.040147,-0.881662,0.004353,-0.036655,-0.881662,0.693741,0.207355,0.848834,2.830278,4.211551,-14.683336
1790542577.4310,0.001861,-0.052512,-0.865794,0.002609,-0.047755,-0.865794,0.829725,0.133293,0.986032,-1.845736,0.121751,-9.405014
1790542577.4453,0.002322,-0.071070,-0.847642,0.002408,-0.064075,-0.847642,1.186683,-0.025760,0.697066,-1.309144,-0.919289,-9.366203
1790542577.4595,-0.017702,-0.082021,-0.838019,-0.011669,-0.076637,-0.838019,0.834582,1.182312,0.683711,2.715294,1.646131,-8.357112
1790542577.4735,-0.038565,-0.091828,-0.836558,-0.030496,-0.087271,-0.836558,0.772661,1.448209,0.698280,0.300631,2.129471,-10.297672
1790542577.4872,-0.052604,-0.099045,-0.840137,-0.045972,-0.095512,-0.840137,0.631820,1.091251,0.660642,-0.810880,1.720491,-6.377742
1790542577.5011,-0.055578,-0.102930,-0.828836,-0.052696,-0.100704,-0.828836,0.191087,0.251065,0.671569,-1.079176,-0.398769,-13.713056
1790542577.5156,-0.045185,-0.103108,-0.810400,-0.047438,-0.102387,-0.810400,-0.088166,-0.795526,0.828194,1.373815,-0.621849,-15.847672
1790542577.5296,-0.034752,-0.098793,-0.796394,-0.038557,-0.099871,-0.796394,-0.369847,-0.806453,0.735919,0.760567,0.121751,-13.519000
1790542577.5436,-0.036795,-0.100365,-0.755539,-0.037324,-0.100217,-0.755539,-0.076025,-0.210309,0.989675,5.283269,-1.848788,-8.822846
1790542577.5577,-0.029933,-0.096279,-0.728343,-0.032150,-0.097461,-0.728343,-0.443910,-0.777314,0.998174,3.328542,-1.105189,-7.619700
1790542577.5717,-0.015658,-0.088853,-0.703086,-0.020605,-0.091435,-0.703086,-0.662455,-1.232617,1.063737,1.565455,-0.659029,-6.649420
1790542577.5856,-0.013241,-0.075427,-0.688777,-0.015450,-0.080230,-0.688777,-1.058266,-0.443425,0.762630,3.175230,-0.547489,-8.473546
1790542577.5996,-0.009015,-0.058991,-0.674180,-0.010946,-0.065362,-0.674180,-1.387298,-0.602477,0.392317,3.443526,-1.885968,-6.882287
1790542577.6135,-0.002486,-0.039997,-0.667001,-0.005024,-0.047607,-0.667001,-1.460147,-0.620689,0.088781,2.561982,-0.361589,-10.957462
1790542577.6275,0.006584,-0.009260,-0.709181,0.003101,-0.020764,-0.709181,-1.988299,-0.933938,0.105779,3.520182,3.282051,-7.153965
1790542577.6421,-0.014220,-0.005005,-0.686788,-0.009023,-0.009733,-0.686788,-0.493690,1.284299,-0.024134,4.899989,-2.294948,-15.420749
1790542577.6562,-0.021701,-0.022827,-0.672894,-0.017898,-0.018899,-0.672894,1.085909,0.656588,-0.651846,-0.120976,-1.662888,-14.178791
1790542577.6705,-0.012080,-0.019004,-0.778066,-0.013825,-0.018972,-0.778066,0.254222,-0.620689,-0.659130,0.568927,7.520570,-6.649420
1790542577.6846,-0.023689,-0.030318,-0.764377,-0.020730,-0.026914,-0.764377,0.716810,0.686942,-0.248750,3.136902,0.121751,-9.288581
1790542577.6985,-0.013467,-0.047216,-0.765470,-0.015646,-0.041125,-0.765470,1.201253,-0.515059,-0.515862,-3.225543,1.237151,-12.471098
1790542577.7123,0.003589,-0.064907,-0.779492,-0.002182,-0.057772,-0.779492,1.353021,-1.213191,-0.520718,0.300631,2.092291,-11.151518
1790542577.7261,0.011047,-0.072770,-0.813742,0.007078,-0.068271,-0.813742,0.786016,-0.459209,-0.650631,-0.350944,2.873071,-6.804665
1790542577.7405,0.014813,-0.074010,-0.835719,0.012492,-0.072288,-0.835719,0.211727,-0.261303,-0.553500,0.568927,2.426911,-8.279490
1790542577.7546,0.027105,-0.078651,-0.840055,0.022721,-0.076742,-0.840055,0.288218,-0.825879,-0.637276,-0.159304,0.382011,-7.930189
1790542577.7694,0.031601,-0.084943,-0.852439,0.028937,-0.082483,-0.852439,0.455770,-0.291657,-0.515862,0.147319,1.534591,-10.414105
1790542577.7844,-0.004482,-0.070157,-0.869589,0.005544,-0.073855,-0.869589,-0.964777,2.435306,-0.718623,1.565455,3.170511,-20.699071
1790542577.7986,-0.004230,-0.048271,-0.871488,-0.001297,-0.055946,-0.871488,-1.543923,0.308129,-0.721052,-6.483422,1.720491,-13.868301
1790542577.8130,-0.014822,-0.034943,-0.809428,-0.010765,-0.041244,-0.809428,-1.303522,0.973479,-0.521932,-1.999048,-2.889828,-6.106063
1790542577.8271,-0.018076,-0.018911,-0.805076,-0.015883,-0.025611,-0.805076,-1.257385,0.606808,-0.430872,-3.570495,-0.473129,-6.144874
1790542577.8410,-0.022326,-0.005414,-0.811891,-0.020393,-0.011473,-0.811891,-0.999987,0.663873,-0.416302,-2.229015,0.344831,-4.320748
1790542577.8550,-0.018634,-0.005093,-0.808281,-0.019162,-0.007007,-0.808281,-0.153730,-0.221237,-0.554714,1.028863,-0.733389,-12.471098
1790542577.8702,-0.012051,-0.012469,-0.802820,-0.014185,-0.010830,-0.802820,0.488551,-0.572124,0.402030,1.603783,1.906391,-11.772497
1790542577.8860,-0.018129,-0.021600,-0.789105,-0.016945,-0.018369,-0.789105,0.551687,0.185501,0.880402,2.217030,1.571771,-14.489280
1790542577.9007,-0.014020,-0.033875,-0.765786,-0.014898,-0.029223,-0.765786,0.685242,-0.241877,0.735919,-1.922392,-0.844929,-8.318301
1790542577.9151,-0.025239,-0.047761,-0.758158,-0.022137,-0.042200,-0.758158,0.948711,0.609236,0.752917,1.642111,1.014071,-10.025993
1790542577.9306,-0.043056,-0.061296,-0.752022,-0.036780,-0.055567,-0.752022,0.897717,1.032972,0.863404,0.990535,1.906391,-10.608161
1790542577.9446,-0.063508,-0.065269,-0.759003,-0.055490,-0.062359,-0.759003,0.426630,1.389930,0.902256,0.300631,2.724351,-7.037532
1790542577.9581,-0.074179,-0.071035,-0.748305,-0.068572,-0.068432,-0.748305,0.392634,0.818069,0.945965,-1.155832,1.348691,-10.957462
1790542577.9722,-0.081707,-0.075898,-0.736733,-0.077766,-0.073658,-0.736733,0.294289,0.481752,0.937466,0.300631,1.274331,-11.306763
1790542577.9862,-0.080404,-0.081256,-0.727875,-0.079613,-0.078977,-0.727875,0.346497,-0.126534,0.715278,0.338959,1.125611,-10.103616
1790542578.0002,-0.069383,-0.079452,-0.716497,-0.072452,-0.079310,-0.716497,-0.185298,-0.961863,0.879188,2.906934,1.274331,-12.936833
1790542578.0148,-0.061413,-0.075907,-0.694067,-0.064725,-0.076928,-0.694067,-0.426912,-0.698395,0.808767,2.025391,-1.328269,-9.948371
1790542578.0292,-0.046433,-0.072924,-0.668051,-0.051920,-0.074126,-0.668051,-0.446338,-1.165839,0.741990,1.335487,-2.146228,-8.939280
1790542578.0434,-0.040008,-0.060874,-0.667769,-0.043582,-0.064849,-0.667769,-0.931995,-0.760316,0.553798,3.443526,-0.138509,-6.998721
1790542578.0573,-0.028649,-0.044946,-0.667314,-0.033129,-0.050917,-0.667314,-1.148112,-1.009215,0.391102,2.025391,0.865351,-7.425644
1790542578.0713,-0.023472,-0.026322,-0.680877,-0.026369,-0.033701,-0.680877,-1.324163,-0.751817,0.168914,5.819861,1.051251,-8.046623
1790542578.0854,-0.009698,-0.006926,-0.686872,-0.014699,-0.014958,-0.686872,-1.354516,-1.221690,-0.024134,2.715294,1.088431,-6.261308
1790542578.0995,-0.018463,-0.003697,-0.698564,-0.017334,-0.007075,-0.698564,-0.148873,0.423473,0.159201,2.791950,2.315371,-8.434735
1790542578.1134,-0.029509,-0.016758,-0.711132,-0.025856,-0.013854,-0.711132,1.021560,1.110677,-0.685842,-5.371910,4.248731,-16.507462
1790542578.1274,-0.017936,-0.026742,-0.734075,-0.020312,-0.022876,-0.734075,0.815156,-0.590336,-1.188496,-1.654096,3.691031,-14.217602
1790542578.1415,-0.030572,-0.033430,-0.755463,-0.027494,-0.030264,-0.755463,0.586897,0.805927,-0.901959,4.018446,2.724351,-9.482637
1790542578.1555,-0.022290,-0.045199,-0.753369,-0.023851,-0.040719,-0.753369,0.786016,-0.315940,-0.855821,-3.072231,0.196111,-11.190329
1790542578.1690,0.000613,-0.063927,-0.760753,-0.006726,-0.056965,-0.760753,1.385802,-1.408668,-0.996662,-3.493839,1.125611,-11.267951
1790542578.1827,0.014233,-0.076044,-0.789696,0.007945,-0.070320,-0.789696,1.034915,-0.891443,-1.099864,-0.274288,2.575631,-7.891378
1790542578.1967,0.021982,-0.079142,-0.814347,0.017771,-0.076495,-0.814347,0.345283,-0.568481,-0.983306,0.990535,2.203831,-7.037532
1790542578.2110,0.034818,-0.085133,-0.821217,0.029704,-0.082542,-0.821217,0.312501,-0.807667,-1.139931,-0.465928,-0.287229,-9.637881
1790542578.2255,0.030507,-0.087473,-0.852296,0.030266,-0.085993,-0.852296,0.237224,0.404046,-1.284414,-0.925864,4.992331,-18.409210
1790542578.2395,0.013150,-0.074409,-0.864573,0.018285,-0.077885,-0.864573,-0.979346,1.454279,-0.931098,-4.145415,0.939711,-16.740329
1790542578.2536,0.014921,-0.060551,-0.855917,0.015930,-0.065751,-0.855917,-1.146898,0.184287,-0.871605,-5.793518,-1.811608,-13.402567
1790542578.2679,0.007199,-0.041764,-0.843817,0.009818,-0.048960,-0.843817,-1.542708,0.845994,-0.795114,-2.190688,-1.328269,-5.485084
1790542578.2826,0.002215,-0.016308,-0.847306,0.004496,-0.026103,-0.847306,-1.824389,0.663873,-0.680985,-1.999048,-0.026969,-4.631238
1790542578.2963,-0.000703,-0.000383,-0.845466,0.000857,-0.008099,-0.845466,-1.354516,0.638376,-0.682199,-4.260399,-1.402628,-7.192776
1790542578.3098,-0.003266,0.008388,-0.849641,-0.002029,0.003442,-0.849641,-0.759587,0.456255,-0.661559,-2.765607,-0.064149,-11.306763
1790542578.3233,0.005128,-0.007128,-0.850332,0.002981,-0.003957,-0.850332,0.976636,-0.570910,-0.517076,0.453943,-1.811608,-15.032637
1790542578.3374,0.001377,-0.023192,-0.853977,0.001858,-0.017421,-0.853977,1.088338,-0.017261,0.342537,5.321597,0.456371,-13.130889
1790542578.3517,-0.001841,-0.032499,-0.849471,-0.000731,-0.027976,-0.849471,0.728951,0.155147,0.631503,-0.312616,3.058971,-11.772497
1790542578.3658,0.001794,-0.042349,-0.842481,0.001037,-0.038037,-0.842481,0.704669,-0.221237,0.368034,-1.270816,1.162791,-8.745224
1790542578.3798,-0.009124,-0.052314,-0.843289,-0.006076,-0.048031,-0.843289,0.730166,0.549744,0.479735,2.868606,1.199971,-9.133336
1790542578.3937,-0.027028,-0.062387,-0.842206,-0.020742,-0.058080,-0.842206,0.769018,1.177455,0.521016,1.028863,1.534591,-8.473546
1790542578.4073,-0.041055,-0.068401,-0.847421,-0.034961,-0.065305,-0.847421,0.622107,0.972265,0.572010,0.377287,2.984611,-7.153965
1790542578.4210,-0.055060,-0.071806,-0.845877,-0.049030,-0.069855,-0.845877,0.356210,0.983192,0.732276,0.147319,2.761531,-8.900469
1790542578.4350,-0.060765,-0.076475,-0.835601,-0.057245,-0.074489,-0.835601,0.295503,0.383406,0.751703,-0.082648,0.865351,-10.103616
1790542578.4489,-0.064925,-0.079959,-0.833518,-0.062621,-0.078318,-0.833518,0.375636,0.234067,0.749274,0.683911,3.505131,-9.599070
1790542578.4630,-0.048389,-0.085482,-0.805983,-0.052659,-0.083333,-0.805983,0.153448,-1.141556,0.910755,-1.960720,-3.261628,-14.178791
1790542578.4774,-0.032700,-0.077059,-0.793731,-0.038687,-0.078941,-0.793731,-0.652742,-1.236260,0.642430,2.332014,0.233291,-13.053266
1790542578.4918,-0.027544,-0.065157,-0.774624,-0.030887,-0.069293,-0.774624,-0.981775,-0.699609,0.763844,5.474909,-1.588528,-9.987182
1790542578.5058,-0.023733,-0.046025,-0.764187,-0.025879,-0.053005,-0.764187,-1.500213,-0.733605,0.513731,5.858189,-1.105189,-6.183686
1790542578.5203,-0.011018,-0.023408,-0.753166,-0.015476,-0.032287,-0.753166,-1.681121,-1.079635,0.212624,2.332014,-0.510309,-7.503266
1790542578.5349,0.001424,-0.009495,-0.739288,-0.003646,-0.016333,-0.739288,-1.142041,-1.096633,0.176199,3.213558,-1.514168,-8.473546
1790542578.5489,0.010017,0.002766,-0.748646,0.005918,-0.002963,-0.748646,-0.839720,-0.874445,0.176199,3.098574,1.571771,-8.240679
1790542578.5630,-0.003428,-0.009456,-0.737865,-0.000624,-0.007508,-0.737865,0.730166,0.928556,0.006219,0.952207,-0.696209,-13.519000
1790542578.5765,0.000134,-0.028568,-0.737921,-0.000093,-0.022250,-0.737921,1.371233,-0.050043,-0.676128,-3.302199,1.311511,-17.555364
1790542578.5896,0.007128,-0.033380,-0.761832,0.004962,-0.030041,-0.761832,0.507978,-0.142317,-1.182426,-3.493839,2.947431,-7.852567
1790542578.6027,-0.001103,-0.045391,-0.773846,0.000716,-0.040786,-0.773846,0.883148,0.635948,-0.769617,1.028863,0.530731,-7.425644
1790542578.6163,0.006987,-0.054514,-0.789058,0.005106,-0.050396,-0.789058,0.765376,-0.235806,-0.882533,-3.225543,1.906391,-6.532986
1790542578.6301,0.025027,-0.067365,-0.799999,0.019051,-0.062274,-0.799999,0.958424,-0.983718,-1.011232,-4.260399,1.683311,-9.715504
1790542578.6439,0.033456,-0.078157,-0.823624,0.029135,-0.073392,-0.823624,0.889218,-0.505346,-1.019731,-0.657568,2.761531,-8.978091
1790542578.6580,0.048590,-0.081947,-0.844325,0.042753,-0.079380,-0.844325,0.354996,-1.035926,-0.887389,-0.082648,2.612811,-9.443825
1790542578.6722,0.060091,-0.086067,-0.867509,0.054890,-0.084061,-0.867509,0.391420,-0.816166,-0.899531,0.492271,2.612811,-8.046623
1790542578.6864,0.043850,-0.089818,-0.858368,0.047162,-0.088091,-0.858368,-0.052956,1.081538,-0.976022,3.175230,-5.641148,-15.925294
1790542578.7007,0.025048,-0.073477,-0.875170,0.031682,-0.077861,-0.875170,-1.142041,1.467635,-0.872819,-2.803935,2.947431,-18.331588
1790542578.7146,0.025132,-0.059205,-0.870748,0.027097,-0.064802,-0.870748,-1.256171,0.316628,-0.957809,-4.222071,-2.443668,-9.560259
1790542578.7288,0.020622,-0.046440,-0.873271,0.022565,-0.051949,-0.873271,-1.189393,0.787715,-0.877676,-3.762135,-2.183408,-4.165504
1790542578.7432,0.009094,-0.030043,-0.879044,0.013135,-0.036615,-0.879044,-1.330233,0.869063,-0.645775,0.185647,-1.365448,-8.085434
1790542578.7574,-0.000488,-0.016736,-0.880753,0.003599,-0.022700,-0.880753,-1.066765,0.945554,-0.602066,-3.033903,-0.584669,-10.142427
1790542578.7718,0.000923,-0.012079,-0.883824,0.001726,-0.015265,-0.883824,-0.448766,0.236495,-0.609351,-4.337055,-0.807749,-9.637881
1790542578.7862,0.009587,-0.022481,-0.876656,0.007229,-0.020316,-0.876656,0.637891,-0.420356,0.035359,-3.953775,-0.212869,-11.190329
1790542578.8002,0.008301,-0.034927,-0.876477,0.007979,-0.030544,-0.876477,0.829725,-0.114392,0.642430,2.178703,0.084571,-12.238231
1790542578.8142,0.007206,-0.053460,-0.867852,0.007438,-0.046585,-0.867852,1.280172,0.000951,0.599935,-0.005993,0.456371,-13.247322
1790542578.8282,0.005613,-0.062921,-0.866150,0.006161,-0.058020,-0.866150,0.720452,0.116295,0.142203,-0.274288,1.237151,-7.464455
1790542578.8421,-0.006022,-0.074438,-0.875297,-0.002367,-0.069513,-0.875297,0.845509,0.663873,0.272117,2.868606,1.311511,-11.850119
1790542578.8557,-0.022582,-0.084537,-0.875325,-0.016518,-0.080029,-0.875325,0.799372,1.158029,0.365606,0.683911,2.017931,-11.306763
1790542578.8695,-0.036104,-0.089443,-0.874108,-0.030228,-0.086619,-0.874108,0.528618,1.011117,0.541656,-0.657568,3.096151,-7.969000
1790542578.8832,-0.043422,-0.088650,-0.870064,-0.039464,-0.088041,-0.870064,0.089099,0.518176,0.698280,-0.159304,2.575631,-7.076343
1790542578.8974,-0.052171,-0.092876,-0.857764,-0.048359,-0.091425,-0.857764,0.250580,0.574026,0.854905,0.185647,0.344831,-7.309210
1790542578.9114,-0.041289,-0.100008,-0.839374,-0.043410,-0.097433,-0.839374,0.311287,-0.729962,0.899828,-2.190688,-3.112908,-15.226693
1790542578.9254,-0.028722,-0.092913,-0.836595,-0.033128,-0.094269,-0.836595,-0.457265,-1.063851,0.711636,2.830278,2.389731,-12.626343
1790542578.9395,-0.017853,-0.081421,-0.833949,-0.022436,-0.085275,-0.833949,-0.862789,-0.984932,0.663070,3.443526,0.196111,-12.005364
1790542578.9535,-0.013363,-0.066728,-0.845827,-0.016085,-0.072292,-0.845827,-1.121401,-0.770029,0.597507,5.704877,-0.547489,-6.765853
1790542578.9678,-0.010744,-0.044208,-0.849473,-0.012346,-0.052633,-0.849473,-1.599773,-0.502918,0.371676,2.945262,0.419191,-5.640329
1790542578.9818,-0.001607,-0.026890,-0.842077,-0.004829,-0.034613,-0.842077,-1.295023,-0.762744,0.340109,0.913879,0.270471,-8.706413
1790542578.9958,0.004438,-0.014107,-0.846215,0.001658,-0.020258,-0.846215,-0.883429,-0.874445,0.414171,6.356453,1.497411,-8.279490
1790542579.0099,-0.011370,-0.014959,-0.847648,-0.007462,-0.016549,-0.847648,0.046604,0.809570,0.352250,5.283269,1.162791,-10.452916
1790542579.0244,-0.005865,-0.027320,-0.853099,-0.006344,-0.024088,-0.853099,0.909859,-0.283158,-0.309458,-1.730752,3.914111,-17.322497
1790542579.0391,-0.018427,-0.033776,-0.884206,-0.014802,-0.030869,-0.884206,0.738665,0.904273,-0.696769,0.837223,5.773111,-7.969000
1790542579.0532,-0.021908,-0.049440,-0.889597,-0.019776,-0.043869,-0.889597,1.072554,0.413760,-0.826682,-1.194160,0.530731,-13.596623
1790542579.0672,-0.017909,-0.053095,-0.900496,-0.018469,-0.050327,-0.900496,0.399919,-0.019689,-0.813326,-2.229015,2.464091,-7.309210
1790542579.0813,-0.008458,-0.060632,-0.911832,-0.011462,-0.057541,-0.911832,0.539545,-0.569696,-0.897102,-0.120976,0.939711,-9.637881
1790542579.0950,-0.003167,-0.068075,-0.926480,-0.005656,-0.064915,-0.926480,0.557757,-0.381503,-1.013660,1.527127,1.162791,-10.491728
1790542579.1086,0.013475,-0.070931,-0.943943,0.007736,-0.069126,-0.943943,0.261507,-1.198621,-1.059797,0.837223,1.794851,-9.831937
1790542579.1226,0.024465,-0.074311,-0.961292,0.019446,-0.072755,-0.961292,0.302788,-0.802811,-0.927456,1.182175,1.906391,-8.706413
1790542579.1366,0.031668,-0.078232,-0.979427,0.028001,-0.076589,-0.979427,0.330713,-0.472564,-0.931098,0.185647,1.757671,-8.434735
1790542579.1506,0.029901,-0.081426,-0.997211,0.029331,-0.079975,-0.997211,0.381707,0.219497,-0.595995,-1.500784,4.992331,-13.247322
1790542579.1645,0.005459,-0.076254,-1.008148,0.012621,-0.077370,-1.008148,-0.403843,1.800310,-0.733193,0.377287,1.051251,-16.002917
1790542579.1786,0.006149,-0.061502,-0.992581,0.008091,-0.066262,-0.992581,-1.043696,0.365194,-0.616635,-7.939885,1.646131,-10.491728
1790542579.1927,-0.000226,-0.050878,-0.972211,0.002269,-0.055493,-0.972211,-0.970847,0.720938,-0.314314,-3.992103,-2.443668,-9.249770
1790542579.2067,-0.003154,-0.035157,-0.965149,-0.001527,-0.041258,-0.965149,-1.210033,0.492679,-0.150405,-3.685479,-0.101329,-7.813756
1790542579.2210,-0.006475,-0.022704,-0.964478,-0.004991,-0.028270,-0.964478,-0.917425,0.541245,-0.338597,-2.765607,0.307651,-5.756762
1790542579.2351,-0.017142,-0.010470,-0.972265,-0.013496,-0.015810,-0.972265,-0.702522,0.807142,-0.133407,-0.159304,2.501271,-5.562707
1790542579.2489,-0.008384,-0.018487,-0.963277,-0.009917,-0.017684,-0.963277,0.447271,-0.591550,0.251476,-2.497311,-1.253909,-18.797322
1790542579.2630,-0.002318,-0.030279,-0.952096,-0.004598,-0.026500,-0.952096,0.807871,-0.608548,0.709208,1.757095,1.199971,-14.062357
1790542579.2773,-0.008580,-0.040765,-0.939817,-0.007385,-0.036485,-0.939817,0.758091,0.252279,0.988460,1.603783,2.203831,-13.868301
1790542579.2919,-0.014061,-0.055865,-0.926840,-0.012058,-0.050051,-0.926840,0.959638,0.298416,0.769915,-0.044320,-0.064149,-7.658511
1790542579.3060,-0.027471,-0.066943,-0.919143,-0.022847,-0.061875,-0.919143,0.813941,0.839923,0.750489,0.683911,1.199971,-7.503266
1790542579.3199,-0.044660,-0.075013,-0.912922,-0.038116,-0.071071,-0.912922,0.645176,1.151958,0.754131,0.683911,1.832031,-8.163056
1790542579.3336,-0.062861,-0.081399,-0.905248,-0.055437,-0.078301,-0.905248,0.501907,1.256374,0.826979,0.607255,1.869211,-9.366203
1790542579.3475,-0.070936,-0.087888,-0.893639,-0.066286,-0.085012,-0.893639,0.427844,0.569170,0.890115,-0.274288,1.162791,-12.005364
1790542579.3615,-0.068771,-0.086938,-0.884845,-0.068026,-0.086360,-0.884845,0.035676,-0.260089,0.907113,1.642111,4.397451,-12.160609
1790542579.3754,-0.054973,-0.088961,-0.869228,-0.058889,-0.088180,-0.869228,0.018678,-1.044425,0.875545,0.338959,-0.547489,-12.509909
1790542579.3895,-0.047994,-0.085189,-0.851247,-0.051263,-0.086086,-0.851247,-0.463336,-0.723892,0.765058,3.941790,-2.294948,-11.578441
1790542579.4035,-0.043827,-0.080768,-0.832446,-0.046058,-0.082363,-0.832446,-0.509473,-0.653471,0.918040,4.056774,-1.514168,-6.843476
1790542579.4176,-0.034964,-0.065855,-0.822914,-0.038292,-0.070807,-0.822914,-1.099547,-0.938795,0.841549,4.363398,0.790991,-9.793126
1790542579.4314,-0.030247,-0.048177,-0.808999,-0.032661,-0.054966,-0.808999,-1.478359,-0.704465,0.410529,3.941790,-1.514168,-5.950818
1790542579.4454,-0.031292,-0.025114,-0.807613,-0.031703,-0.034070,-0.807613,-1.732115,-0.273445,0.293971,4.516709,-0.175689,-7.192776
1790542579.4595,-0.021543,-0.006172,-0.800516,-0.024591,-0.014542,-0.800516,-1.460147,-0.989789,0.252690,4.938317,-0.361589,-10.414105
1790542579.4734,-0.019367,0.006000,-0.801671,-0.020934,-0.000163,-0.801671,-0.929567,-0.374219,0.007434,4.670021,0.828171,-12.082986
1790542579.4873,-0.029827,-0.013267,-0.787587,-0.027159,-0.009336,-0.787587,1.179398,0.703940,-0.150405,3.136902,-3.112908,-17.749420
1790542579.5013,-0.019783,-0.022369,-0.838658,-0.021996,-0.018459,-0.838658,1.039772,-0.181170,-0.377449,-8.974740,6.330810,-1.021797
1790542579.5152,-0.030772,-0.031950,-0.850837,-0.028139,-0.027903,-0.850837,0.726523,0.776788,-0.540144,1.718767,1.497411,-9.249770
1790542579.5295,-0.035606,-0.039711,-0.859667,-0.033366,-0.036169,-0.859667,0.555329,0.361551,-0.537716,1.105519,1.162791,-10.025993
1790542579.5442,-0.020653,-0.056246,-0.852698,-0.024467,-0.050223,-0.852698,0.996063,-1.004358,-0.514648,1.220503,-1.328269,-12.315854
1790542579.5581,-0.008833,-0.071776,-0.865838,-0.013523,-0.065310,-0.865838,1.174542,-0.785813,-0.723480,0.032335,1.274331,-7.736133
1790542579.5719,0.005143,-0.071176,-0.895748,-0.000457,-0.069416,-0.895748,0.305216,-0.892657,-0.694341,-0.810880,4.471811,-5.795574
1790542579.5860,0.015282,-0.077683,-0.908865,0.010560,-0.075203,-0.908865,0.503121,-0.676540,-0.711339,0.032335,1.646131,-10.258860
1790542579.5999,0.027180,-0.083616,-0.921666,0.022194,-0.081092,-0.921666,0.453341,-0.771243,-0.736836,-0.695896,1.423051,-9.599070
1790542579.6138,0.017880,-0.079576,-0.938332,0.019174,-0.080031,-0.938332,-0.171942,0.774360,-0.540144,-1.922392,4.955151,-16.391028
1790542579.6277,-0.000836,-0.066992,-0.945008,0.005167,-0.070904,-0.945008,-0.819080,1.590263,-0.362880,-6.981685,4.620531,-18.098721
1790542579.6417,-0.003503,-0.048561,-0.932015,-0.000902,-0.055264,-0.932015,-1.394583,0.558242,-0.472153,-7.173325,-0.138509,-11.733686
1790542579.6556,-0.006605,-0.039705,-0.899401,-0.004894,-0.044373,-0.899401,-0.974490,0.516962,-0.281532,-2.612295,-2.703928,-5.174595
1790542579.6695,-0.009479,-0.020137,-0.896037,-0.008103,-0.027407,-0.896037,-1.489286,0.492679,-0.179544,-2.382327,-0.026969,-5.213406
1790542579.6834,-0.016949,-0.005143,-0.903262,-0.014295,-0.011822,-0.903262,-0.969633,0.843566,-0.327670,-3.532167,2.687171,-7.658511
1790542579.6972,-0.026305,0.004585,-0.906732,-0.022702,-0.000337,-0.906732,-0.669740,0.796214,-0.126122,-0.887536,1.534591,-7.037532
1790542579.7112,-0.018003,-0.004183,-0.900558,-0.019413,-0.003029,-0.900558,0.442414,-0.574552,0.121563,-1.155832,-2.592388,-17.594175
1790542579.7252,-0.017228,-0.018411,-0.890661,-0.017883,-0.013796,-0.890661,1.051913,-0.252804,0.818480,1.757095,2.873071,-12.936833
1790542579.7392,-0.021506,-0.031766,-0.877124,-0.020419,-0.026375,-0.877124,0.918358,0.160004,0.983604,0.415615,0.976891,-10.491728
1790542579.7532,-0.026103,-0.044171,-0.867739,-0.024398,-0.038832,-0.867739,0.969352,0.196428,0.870689,0.377287,1.608951,-5.562707
1790542579.7671,-0.036178,-0.056546,-0.858454,-0.032644,-0.051232,-0.858454,0.864935,0.559457,0.788127,1.028863,0.605091,-6.222497
1790542579.7808,-0.052377,-0.064436,-0.853050,-0.046457,-0.060475,-0.853050,0.675529,0.995334,0.801483,1.833751,2.426911,-7.619700
1790542579.7954,-0.069288,-0.072151,-0.843922,-0.062438,-0.068648,-0.843922,0.545616,1.077895,0.847620,0.760567,1.832031,-9.560259
1790542579.8097,-0.078577,-0.079079,-0.831970,-0.073735,-0.075950,-0.831970,0.452127,0.649303,0.933824,-0.695896,1.608951,-12.160609
1790542579.8239,-0.085299,-0.086468,-0.824543,-0.081830,-0.083312,-0.824543,0.591753,0.388263,0.765058,1.718767,3.914111,-13.130889
1790542579.8379,-0.070782,-0.089255,-0.806782,-0.074096,-0.087472,-0.806782,-0.015318,-1.046853,0.911969,-0.350944,-1.923148,-11.927742
1790542579.8519,-0.057516,-0.084900,-0.794472,-0.062490,-0.085671,-0.794472,-0.442696,-1.009215,0.660642,0.722239,-0.733389,-11.073895
1790542579.8661,-0.053218,-0.076871,-0.779492,-0.055999,-0.079511,-0.779492,-0.751088,-0.653471,0.873117,4.210086,-1.328269,-7.115154
1790542579.8802,-0.040837,-0.059259,-0.766882,-0.045386,-0.065335,-0.766882,-1.355730,-1.129415,0.768701,3.213558,-0.287229,-9.172147
1790542579.8943,-0.029954,-0.041807,-0.752344,-0.034584,-0.048866,-0.752344,-1.474716,-1.079635,0.563511,2.485326,-1.476988,-5.252217
1790542579.9084,-0.020425,-0.021804,-0.746380,-0.024673,-0.029923,-0.746380,-1.535424,-0.972791,0.425098,2.523654,-0.324409,-5.756762
1790542579.9223,-0.008281,-0.009001,-0.737727,-0.013198,-0.015277,-0.737727,-1.038839,-1.071136,0.310969,2.217030,-0.361589,-9.055714
1790542579.9364,-0.026320,-0.020222,-0.738802,-0.022383,-0.018738,-0.738802,0.725309,1.133746,0.137347,4.631693,0.270471,-17.632987
1790542579.9515,-0.020092,-0.036023,-0.746478,-0.020780,-0.030838,-0.746478,1.070125,-0.221237,-0.717409,-3.072231,3.058971,-19.534735
1790542579.9669,-0.017876,-0.040123,-0.766151,-0.018747,-0.037337,-0.766151,0.358638,-0.016047,-0.946882,-0.120976,2.464091,-9.482637
1790542579.9815,-0.032224,-0.054831,-0.774466,-0.028181,-0.049583,-0.774466,0.977851,1.069396,-0.674914,0.185647,0.233291,-7.309210
1790542579.9963,-0.006275,-0.068541,-0.778015,-0.012847,-0.062854,-0.778015,0.989992,-1.327320,-0.812112,-5.448566,1.497411,-6.998721
1790542580.0110,-0.000565,-0.082491,-0.797925,-0.004250,-0.076600,-0.797925,0.987564,-0.408215,-0.986949,1.910407,1.608951,-10.802217
1790542580.0246,0.011696,-0.087524,-0.814768,0.006912,-0.084247,-0.814768,0.433915,-0.853805,-0.963880,0.185647,1.608951,-8.512357
1790542580.0386,0.019172,-0.089572,-0.834472,0.015494,-0.087975,-0.834472,0.221440,-0.649829,-0.821825,1.987063,1.608951,-7.386832
1790542580.0529,0.027304,-0.093768,-0.847845,0.023761,-0.092030,-0.847845,0.287004,-0.624332,-0.792686,1.105519,0.642271,-7.076343
1790542580.0670,0.021761,-0.092278,-0.866868,0.022361,-0.092204,-0.866868,0.081814,0.580097,-0.615421,-3.110559,4.620531,-10.452916
1790542580.0811,-0.011527,-0.078965,-0.878550,-0.001361,-0.082937,-0.878550,-0.930781,2.328462,-0.561999,2.485326,2.017931,-17.555364
1790542580.0952,-0.009803,-0.060114,-0.872706,-0.007270,-0.066961,-0.872706,-1.409153,0.321485,-0.696769,-8.208181,-0.435949,-10.491728
1790542580.1091,-0.019397,-0.052547,-0.865058,-0.015759,-0.056871,-0.865058,-0.822722,0.830210,-0.477009,-0.849208,-2.480848,-6.416553
1790542580.1231,-0.023869,-0.045610,-0.859944,-0.021436,-0.048988,-0.859944,-0.646672,0.591024,-0.232967,-1.539112,-0.584669,-3.855014
1790542580.1370,-0.034518,-0.024423,-0.876421,-0.030594,-0.031793,-0.876421,-1.222175,0.977122,-0.291245,-1.385800,3.133331,-4.243126
1790542580.1511,-0.032852,-0.022328,-0.878480,-0.032174,-0.025168,-0.878480,-0.116091,0.145434,-0.220825,-3.263871,1.571771,-8.434735
1790542580.1651,-0.015617,-0.032516,-0.871713,-0.020585,-0.030311,-0.871713,0.812727,-1.356460,0.478521,1.833751,5.178231,-16.895574
1790542580.1792,-0.014344,-0.036634,-0.861356,-0.016216,-0.034737,-0.861356,0.317357,-0.375433,0.877973,3.788478,2.241011,-12.277042
1790542580.1933,-0.015659,-0.046173,-0.845986,-0.015826,-0.042742,-0.845986,0.606323,-0.196954,1.080735,2.638638,0.121751,-9.288581
1790542580.2072,-0.026152,-0.057085,-0.840788,-0.023054,-0.052782,-0.840788,0.857651,0.512105,0.758988,2.102047,1.646131,-6.765853
1790542580.2212,-0.043511,-0.066315,-0.834988,-0.037374,-0.062255,-0.834988,0.694956,1.099750,0.707994,1.373815,1.608951,-8.551168
1790542580.2351,-0.063121,-0.075991,-0.828890,-0.055397,-0.071870,-0.828890,0.742307,1.323152,0.791769,0.760567,1.608951,-7.542077
1790542580.2486,-0.080645,-0.082820,-0.822011,-0.073070,-0.079535,-0.822011,0.535903,1.279443,0.847620,-0.082648,2.426911,-11.500819
1790542580.2623,-0.085880,-0.088904,-0.812131,-0.082037,-0.086094,-0.812131,0.431487,0.397976,0.909541,-0.580912,1.832031,-11.229140
1790542580.2763,-0.071989,-0.092347,-0.802634,-0.075003,-0.090471,-0.802634,0.323428,-1.089348,0.925325,1.412143,3.765391,-11.345574
1790542580.2907,-0.059520,-0.089899,-0.788055,-0.064165,-0.090070,-0.788055,-0.263003,-0.949722,0.835478,0.990535,0.121751,-11.539630
1790542580.3050,-0.054880,-0.090515,-0.764552,-0.057665,-0.090381,-0.764552,-0.141588,-0.574552,1.021242,3.980118,-1.700068,-10.841028
1790542580.3189,-0.046054,-0.089236,-0.741938,-0.049537,-0.089579,-0.741938,-0.271502,-0.897514,1.075879,3.021918,-1.216729,-8.240679
1790542580.3330,-0.040004,-0.080845,-0.726582,-0.042864,-0.083465,-0.726582,-0.694023,-0.751817,0.914398,3.865134,-0.250049,-7.774944
1790542580.3472,-0.034827,-0.064325,-0.714270,-0.037238,-0.070067,-0.714270,-1.281668,-0.591550,0.508874,2.945262,-0.621849,-8.473546
1790542580.3613,-0.028613,-0.044285,-0.705917,-0.031201,-0.052020,-0.705917,-1.529353,-0.651043,0.257547,3.366870,-0.547489,-9.909560
1790542580.3754,-0.013886,-0.024033,-0.695952,-0.019080,-0.032429,-0.695952,-1.580347,-1.244759,0.153131,3.021918,-0.844929,-10.142427
1790542580.3895,-0.010538,-0.004528,-0.704652,-0.013101,-0.012898,-0.704652,-1.353302,-0.504132,0.086353,3.865134,1.608951,-8.357112
1790542580.4035,-0.034403,-0.013287,-0.697152,-0.028012,-0.013170,-0.697152,0.523761,1.901084,-0.072700,-4.835318,-0.324409,-20.349770
1790542580.4175,-0.021260,-0.024249,-0.706086,-0.023286,-0.020925,-0.706086,0.805442,-0.623118,-0.912886,-6.560078,3.244871,-21.281238
1790542580.4314,-0.033448,-0.024390,-0.757004,-0.030399,-0.023350,-0.757004,0.456984,0.852065,-0.372593,1.373815,6.516710,-5.756762
1790542580.4454,-0.036497,-0.039226,-0.753713,-0.034668,-0.034463,-0.753713,0.998491,0.459897,-0.350738,-3.033903,0.084571,-10.220049
1790542580.4595,-0.009032,-0.058015,-0.756599,-0.016723,-0.050949,-0.756599,1.359091,-1.683064,-0.569284,-4.720334,1.608951,-12.277042
1790542580.4731,0.008689,-0.076202,-0.770368,0.001066,-0.068626,-0.770368,1.405229,-1.092991,-0.897102,-2.343999,2.129471,-10.336483
1790542580.4867,0.022364,-0.080114,-0.793921,0.015974,-0.076668,-0.793921,0.601467,-0.970362,-0.832753,0.223975,3.802571,-5.291028
1790542580.5007,0.035668,-0.083754,-0.805576,0.029760,-0.081628,-0.805576,0.266363,-0.931510,-0.843680,0.300631,1.162791,-8.939280
1790542580.5147,0.047594,-0.090773,-0.814727,0.042244,-0.088030,-0.814727,0.436343,-0.800382,-0.846108,-0.427600,0.270471,-11.073895
1790542580.5287,0.040498,-0.098981,-0.813914,0.041021,-0.095695,-0.813914,0.368351,0.499964,-0.855821,1.067191,-3.373168,-15.304315
1790542580.5430,0.015722,-0.074831,-0.831163,0.023312,-0.081090,-0.831163,-1.599773,1.969076,-0.650631,-5.218598,3.839751,-13.868301
1790542580.5576,0.016525,-0.057272,-0.823750,0.018561,-0.064418,-0.823750,-1.418866,0.397976,-0.717409,-6.905029,-2.778288,-7.153965
1790542580.5719,0.009412,-0.038989,-0.828772,0.012157,-0.046618,-0.828772,-1.458933,0.818069,-0.614207,-2.573967,-1.030829,-5.485084
1790542580.5858,0.001450,-0.022865,-0.830265,0.004662,-0.029990,-0.830265,-1.353302,0.739150,-0.291245,-1.500784,-1.291089,-7.231588
1790542580.5997,-0.008828,-0.008029,-0.835103,-0.004781,-0.014618,-0.835103,-1.129900,1.020831,-0.398090,-2.995575,0.344831,-8.201867
1790542580.6137,-0.009334,0.004686,-0.838856,-0.007968,-0.001105,-0.838856,-0.817866,0.340911,-0.321599,-3.647151,2.649991,-7.813756
1790542580.6275,0.003656,-0.019243,-0.834307,0.000169,-0.013802,-0.834307,1.563067,-1.010429,0.324325,0.147319,-1.885968,-14.838581
1790542580.6415,0.005356,-0.033037,-0.822199,0.003800,-0.027267,-0.822199,1.064055,-0.456780,1.106232,4.171758,3.282051,-13.480189
1790542580.6554,-0.003904,-0.045462,-0.812058,-0.001593,-0.040004,-0.812058,0.972994,0.442899,0.947180,1.987063,2.575631,-10.530539
1790542580.6695,-0.006658,-0.058142,-0.801068,-0.005138,-0.052701,-0.801068,0.975422,0.209784,0.771129,-1.079176,1.534591,-6.610609
1790542580.6833,-0.020289,-0.067082,-0.795661,-0.015744,-0.062767,-0.795661,0.728951,0.739150,0.633931,3.596838,2.649991,-10.491728
1790542580.6970,-0.038333,-0.072966,-0.788697,-0.031556,-0.069906,-0.788697,0.506763,1.127675,0.741990,2.446998,2.352551,-9.599070
1790542580.7105,-0.053222,-0.078857,-0.781100,-0.046723,-0.076172,-0.781100,0.514048,0.892132,0.779628,2.293686,2.017931,-7.619700
1790542580.7242,-0.059913,-0.083135,-0.771404,-0.055956,-0.081046,-0.771404,0.323428,0.396762,0.820909,1.067191,1.720491,-10.530539
1790542580.7384,-0.067873,-0.085961,-0.763293,-0.064298,-0.084487,-0.763293,0.212941,0.532746,0.717707,0.223975,1.423051,-8.628791
1790542580.7525,-0.064239,-0.092095,-0.758015,-0.064257,-0.089813,-0.758015,0.470339,-0.239449,0.495519,-0.312616,1.832031,-10.064805
1790542580.7665,-0.048987,-0.089623,-0.749594,-0.053568,-0.089680,-0.749594,-0.152516,-1.188908,0.536800,1.833751,1.943571,-11.733686
1790542580.7806,-0.034463,-0.079807,-0.737531,-0.040195,-0.082769,-0.737531,-0.785084,-1.194979,0.530729,2.715294,-0.287229,-12.005364
1790542580.7947,-0.020712,-0.073182,-0.717060,-0.026557,-0.076058,-0.717060,-0.734090,-1.270255,0.592650,3.251886,-2.629568,-6.727042
1790542580.8093,-0.007527,-0.055949,-0.710313,-0.013236,-0.061982,-0.710313,-1.235530,-1.221690,0.378961,2.715294,0.047391,-5.058161
1790542580.8234,-0.001684,-0.037273,-0.702549,-0.005150,-0.044686,-0.702549,-1.506284,-0.700823,0.054785,3.481854,-1.476988,-6.571797
1790542580.8375,0.009470,-0.019888,-0.697976,0.005084,-0.027327,-0.697976,-1.303522,-0.914512,0.031716,1.872079,0.233291,-10.685784
1790542580.8516,-0.008391,-0.022772,-0.701536,-0.004349,-0.024139,-0.701536,0.047818,1.176241,-0.468510,6.279797,-2.555208,-21.048371
1790542580.8655,-0.013721,-0.032179,-0.723420,-0.010910,-0.029767,-0.723420,0.793301,0.672372,-1.020945,-2.305671,2.873071,-9.094525
1790542580.8796,-0.002726,-0.035256,-0.760175,-0.005181,-0.033609,-0.760175,0.492194,-0.725106,-1.170284,0.837223,3.282051,-5.252217
1790542580.8935,-0.012682,-0.045370,-0.769312,-0.010431,-0.041842,-0.769312,0.708311,0.686942,-0.687056,1.297159,0.530731,-6.338930
1790542580.9074,-0.000615,-0.063290,-0.777688,-0.003560,-0.056856,-0.777688,1.288671,-0.597621,-0.734407,-3.608823,1.088431,-10.685784
1790542580.9214,0.015992,-0.081316,-0.793207,0.010126,-0.073978,-0.793207,1.348164,-1.109989,-0.926242,-0.274288,1.757671,-9.676693
1790542580.9350,0.025937,-0.091645,-0.812912,0.021194,-0.086345,-0.812912,0.849152,-0.726320,-1.008803,0.837223,2.426911,-9.443825
1790542580.9488,0.031115,-0.089938,-0.831714,0.028139,-0.088860,-0.831714,0.016250,-0.479849,-0.876462,2.063719,2.910251,-8.085434
1790542580.9629,0.042871,-0.093691,-0.838847,0.038451,-0.092242,-0.838847,0.183802,-0.748174,-0.796328,-1.040848,-0.138509,-10.724595
1790542580.9770,0.050510,-0.096149,-0.851534,0.046892,-0.094977,-0.851534,0.225083,-0.546627,-0.617850,0.185647,1.757671,-9.016902
1790542580.9911,0.032369,-0.095096,-0.865183,0.036726,-0.095060,-0.865183,-0.032316,1.295227,-0.589924,0.300631,2.724351,-14.760958
1790542581.0051,0.019186,-0.079877,-0.871713,0.024448,-0.084432,-0.871713,-1.140827,1.217522,-0.487936,-6.713389,0.307651,-15.071448
1790542581.0191,0.016896,-0.065251,-0.865717,0.019162,-0.071005,-0.865717,-1.223389,0.439257,-0.407803,-4.682006,-2.183408,-10.025993
1790542581.0331,0.010534,-0.053313,-0.854305,0.013122,-0.058621,-0.854305,-1.116544,0.674800,-0.173474,-1.845736,-1.737248,-4.864105
1790542581.0474,0.000862,-0.037907,-0.856027,0.004540,-0.044121,-0.856027,-1.059480,0.748863,0.036573,-0.887536,1.125611,-7.076343
1790542581.0622,-0.010498,-0.025080,-0.851888,-0.005986,-0.030792,-0.851888,-0.946565,0.944340,0.207767,-2.573967,-0.064149,-7.270399
1790542581.0762,-0.014921,-0.017734,-0.847521,-0.012241,-0.021652,-0.847521,-0.571395,0.445327,0.268474,-3.072231,0.716631,-11.345574
1790542581.0904,0.009104,-0.032665,-0.832195,0.002701,-0.029361,-0.832195,1.008204,-1.810549,0.769915,-0.427600,0.976891,-18.680889
1790542581.1044,0.014222,-0.046443,-0.811254,0.010765,-0.041318,-0.811254,0.975422,-0.491990,1.380628,-0.810880,0.530731,-8.589979
1790542581.1184,-0.000656,-0.056347,-0.793759,0.002770,-0.051839,-0.793759,0.748378,0.804713,1.452263,1.450471,1.274331,-8.589979
1790542581.1325,-0.005839,-0.071732,-0.780729,-0.003256,-0.065764,-0.780729,1.117477,0.353052,0.967820,-1.194160,1.199971,-9.405014
1790542581.1465,-0.025736,-0.080373,-0.774733,-0.018992,-0.075990,-0.774733,0.731380,1.185954,0.813624,2.600310,2.501271,-8.201867
1790542581.1603,-0.045591,-0.087859,-0.765766,-0.037611,-0.084298,-0.765766,0.590539,1.274586,0.897400,1.910407,1.757671,-9.055714
1790542581.1740,-0.058614,-0.095415,-0.755454,-0.052313,-0.092080,-0.755454,0.582040,0.910344,0.988460,0.108991,1.980751,-10.491728
1790542581.1882,-0.058592,-0.102177,-0.744875,-0.056708,-0.099148,-0.744875,0.504335,-0.040330,0.910755,0.338959,2.501271,-13.596623
1790542581.2023,-0.049993,-0.100475,-0.731284,-0.052008,-0.100077,-0.731284,-0.161015,-0.711750,0.898614,1.565455,0.865351,-12.160609
1790542581.2163,-0.043436,-0.098605,-0.714386,-0.046008,-0.099046,-0.714386,-0.266645,-0.591550,0.918040,1.603783,-0.993649,-11.151518
1790542581.2302,-0.044109,-0.100988,-0.690131,-0.044679,-0.100405,-0.690131,-0.114877,-0.274659,0.996959,4.440053,-3.373168,-7.891378
1790542581.2442,-0.021095,-0.089154,-0.673736,-0.028170,-0.092530,-0.673736,-0.905284,-1.710989,0.977533,0.032335,0.307651,-9.909560
1790542581.2582,-0.018244,-0.073738,-0.661204,-0.021222,-0.079375,-0.661204,-1.199106,-0.533271,0.897400,4.363398,-0.696209,-8.978091
1790542581.2722,-0.011145,-0.049749,-0.657408,-0.014168,-0.058637,-0.657408,-1.762468,-0.821023,0.440882,3.175230,0.270471,-6.532986
1790542581.2862,-0.011762,-0.026031,-0.651524,-0.012484,-0.035813,-0.651524,-1.772181,-0.237021,0.375319,2.753622,0.010211,-6.494175
1790542581.3003,0.003465,-0.007772,-0.635178,-0.001319,-0.016184,-0.635178,-1.497785,-1.180409,0.079068,1.680439,-2.257768,-12.393476
1790542581.3146,-0.025811,-0.021219,-0.637293,-0.018463,-0.019709,-0.637293,0.875863,1.919296,0.123991,4.976645,0.493551,-19.728791
1790542581.3287,-0.014475,-0.044565,-0.637285,-0.015671,-0.037108,-0.637285,1.646843,-0.496847,-0.485508,-6.866701,1.571771,-15.770049
1790542581.3427,-0.015698,-0.046717,-0.670679,-0.015690,-0.043834,-0.670679,0.431487,0.181858,-0.773260,-0.044320,3.988471,-6.649420
1790542581.3567,-0.023297,-0.058057,-0.678194,-0.021015,-0.053790,-0.678194,0.869792,0.737936,-0.372593,-1.845736,1.497411,-7.580888
1790542581.3707,-0.016221,-0.065286,-0.685688,-0.017659,-0.061837,-0.685688,0.606323,-0.204239,-0.469724,-3.800463,2.017931,-8.201867
1790542581.3847,-0.004338,-0.081096,-0.689663,-0.008335,-0.075319,-0.689663,1.090766,-0.642544,-0.625134,-3.340527,0.158931,-12.898021
1790542581.3982,0.006300,-0.088401,-0.706896,0.001910,-0.084477,-0.706896,0.733808,-0.725106,-0.701625,-0.312616,3.802571,-9.482637
1790542581.4119,0.012800,-0.085703,-0.717221,0.009533,-0.085335,-0.717221,-0.141588,-0.546627,-0.588710,1.527127,1.608951,-8.978091
1790542581.4259,0.023090,-0.087651,-0.723463,0.019023,-0.086956,-0.723463,0.124309,-0.683825,-0.512219,-0.465928,0.642271,-9.560259
1790542581.4397,0.036323,-0.090691,-0.728150,0.031133,-0.089571,-0.728150,0.203228,-0.841663,-0.427229,-1.500784,0.530731,-8.240679
1790542581.4537,0.039625,-0.090281,-0.735604,0.037078,-0.090068,-0.735604,0.117024,-0.226093,-0.123694,-0.427600,2.835891,-8.667602
1790542581.4676,0.014601,-0.078807,-0.741682,0.021344,-0.082185,-0.741682,-0.799653,1.678896,-0.326455,3.213558,2.055111,-13.519000
1790542581.4816,0.013783,-0.060931,-0.741627,0.016052,-0.067307,-0.741627,-1.343589,0.337269,-0.234181,-5.946830,-0.212869,-12.160609
1790542581.4955,0.007990,-0.049127,-0.735126,0.010409,-0.054581,-0.735126,-1.057052,0.634733,-0.106696,-3.608823,-2.443668,-9.599070
1790542581.5095,0.000411,-0.036587,-0.725030,0.003411,-0.041985,-0.725030,-1.185751,0.730651,0.134919,-1.654096,-1.848788,-4.359560
1790542581.5233,-0.008799,-0.020240,-0.719769,-0.005136,-0.026763,-0.719769,-1.341161,0.790144,0.171343,-0.849208,-0.473129,-3.699769
