t,imu_roll,imu_pitch,imu_yaw,lpf_roll,lpf_pitch,lpf_yaw,gyro_x,gyro_y,gyro_z,acc_x,acc_y,acc_z
1790538640.0651,-0.027615,-0.038635,-0.016075,-0.019330,-0.027045,-0.016075,0.007106,-0.004144,-0.007217,0.338959,1.274331,-10.142427
1790538640.0807,-0.023718,-0.038413,-0.015337,-0.022402,-0.035003,-0.015337,0.003463,0.001926,0.007352,0.223975,1.237151,-9.715504
1790538640.0944,-0.023471,-0.038983,-0.014973,-0.023150,-0.037789,-0.014973,-0.014749,-0.000502,0.004924,0.262303,1.237151,-9.909560
1790538640.1080,-0.016624,-0.036393,-0.014212,-0.018582,-0.036812,-0.014212,-0.024462,-0.010215,0.006138,-0.005993,1.348691,-9.909560
1790538640.1219,-0.018452,-0.035285,-0.014513,-0.018491,-0.035743,-0.014513,-0.013535,-0.007787,-0.001147,0.300631,1.348691,-10.064805
1790538640.1359,-0.016680,-0.034337,-0.014557,-0.017223,-0.034759,-0.014557,0.008320,0.005569,-0.001147,0.108991,1.385871,-10.142427
1790538640.1501,-0.018678,-0.032536,-0.014616,-0.018241,-0.033203,-0.014616,0.004677,0.009211,0.007352,0.338959,1.460231,-10.103616
1790538640.1645,-0.017375,-0.031474,-0.014547,-0.017635,-0.031993,-0.014547,-0.034175,0.040779,0.030421,0.070663,1.385871,-10.025993
1790538640.1786,-0.016214,-0.025611,-0.013298,-0.016640,-0.027525,-0.013298,-0.114308,0.010425,0.115411,0.070663,1.683311,-9.599070
1790538640.1925,-0.016314,-0.020583,-0.010661,-0.016412,-0.022666,-0.010661,-0.155589,0.075989,0.231969,0.070663,1.720491,-9.987182
1790538640.2064,-0.020706,-0.014138,-0.002754,-0.019418,-0.016697,-0.002754,-0.156803,0.094201,0.397092,0.453943,1.869211,-9.482637
1790538640.2203,-0.030516,-0.015802,0.013644,-0.027186,-0.016071,0.013644,0.004677,0.063847,0.533076,1.182175,1.311511,-9.754315
1790538640.2343,-0.037627,-0.022743,0.032199,-0.034495,-0.020741,0.032199,0.110308,0.022567,0.647205,0.990535,0.753811,-9.249770
1790538640.2482,-0.030905,-0.024162,0.035855,-0.031982,-0.023136,0.035855,0.044744,0.119698,0.615637,-0.887536,1.311511,-9.676693
1790538640.2623,-0.022154,-0.032809,0.040973,-0.025102,-0.029907,0.040973,-0.015963,-0.124345,0.476011,-1.002520,0.121751,-11.578441
1790538640.2763,-0.022720,-0.040700,0.039871,-0.023435,-0.037462,0.039871,0.039888,0.029852,0.333956,0.223975,0.196111,-12.160609
1790538640.2903,-0.020111,-0.046019,0.046065,-0.021108,-0.043452,0.046065,0.173443,-0.069708,0.320601,-0.120976,0.790991,-10.608161
1790538640.3042,-0.020462,-0.046530,0.051802,-0.020656,-0.045607,0.051802,0.094524,0.033494,0.259894,0.147319,1.311511,-9.793126
1790538640.3176,-0.020395,-0.047280,0.058851,-0.020473,-0.046778,0.058851,0.044744,0.148837,0.195544,-0.159304,1.014071,-8.745224
1790538640.3312,-0.021383,-0.044270,0.066773,-0.021110,-0.045023,0.066773,0.066599,0.041993,0.159120,0.262303,1.794851,-9.094525
1790538640.3451,-0.024005,-0.042231,0.069987,-0.023136,-0.043068,0.069987,0.065385,0.023781,0.121482,0.683911,1.794851,-9.754315
1790538640.3590,-0.022572,-0.037571,0.075278,-0.022741,-0.039220,0.075278,-0.098525,-0.182623,0.142122,0.453943,2.055111,-10.297672
1790538640.3729,-0.018916,-0.030118,0.082549,-0.020063,-0.032849,0.082549,-0.223581,-0.402383,0.219827,0.568927,2.389731,-10.142427
1790538640.3868,-0.014139,-0.023172,0.090034,-0.015917,-0.026075,0.090034,-0.283074,-0.543224,0.235611,0.760567,2.315371,-10.763406
1790538640.4007,-0.017316,-0.013285,0.098650,-0.016896,-0.017122,0.098650,-0.264862,-0.249401,0.230754,1.527127,2.724351,-8.706413
1790538640.4151,-0.018698,-0.021414,0.091704,-0.018157,-0.020126,0.091704,0.599607,0.238684,-0.018145,-0.389272,2.315371,-14.760958
1790538640.4291,-0.013774,-0.012595,0.037833,-0.015089,-0.014854,0.037833,0.645745,0.092987,-0.319252,-1.117504,5.996190,-8.201867
1790538640.4429,0.000274,-0.002642,0.011464,-0.004335,-0.006306,0.011464,0.088453,-0.448520,-0.685923,-1.462456,4.062831,-8.046623
1790538640.4568,0.001355,-0.002237,0.019346,-0.000352,-0.003458,0.019346,0.094524,-0.075779,-0.980959,0.453943,1.906391,-9.094525
1790538640.4708,0.000408,0.003141,0.027056,0.000180,0.001161,0.027056,-0.007464,0.137910,-1.099945,0.262303,2.575631,-7.891378
1790538640.4846,-0.005759,0.003413,0.078871,-0.003978,0.002738,0.078871,-0.071813,0.071132,-1.052594,1.757095,1.311511,-8.900469
1790538640.4985,-0.002353,-0.004331,0.044149,-0.002840,-0.002211,0.044149,0.196512,0.057777,-1.084162,-0.389272,0.047391,-11.151518
1790538640.5125,-0.001611,-0.005168,0.019275,-0.001980,-0.004281,0.019275,0.001035,0.210759,-1.249285,-0.197632,1.423051,-10.802217
1790538640.5264,-0.002762,-0.000070,0.005564,-0.002528,-0.001333,0.005564,-0.247864,0.259324,-1.427764,0.300631,2.315371,-10.646972
1790538640.5400,-0.009622,0.003951,0.009030,-0.007494,0.002366,0.009030,-0.319498,0.504581,-1.367057,0.837223,1.199971,-7.774944
1790538640.5536,-0.006318,0.002004,-0.033447,-0.006671,0.002112,-0.033447,-0.107024,0.167050,-1.192220,-0.695896,0.419191,-9.443825
1790538640.5672,-0.004648,-0.003678,-0.054474,-0.005255,-0.001941,-0.054474,0.081168,0.041993,-0.893541,0.032335,-0.026969,-9.172147
1790538640.5812,-0.007000,-0.003350,-0.048774,-0.006476,-0.002927,-0.048774,0.058100,0.086916,-0.657998,0.837223,1.683311,-8.318301
1790538640.5951,-0.008121,0.000298,-0.052265,-0.007628,-0.000670,-0.052265,-0.036603,0.101486,-0.580293,0.415615,2.426911,-8.512357
1790538640.6090,-0.013164,0.005244,-0.058797,-0.011503,0.003470,-0.058797,-0.178658,0.424448,-0.654355,0.530599,3.207691,-12.160609
1790538640.6229,-0.018310,0.007885,-0.066570,-0.016268,0.006560,-0.066570,-0.198084,0.463300,-0.575436,0.300631,1.757671,-10.763406
1790538640.6368,-0.011450,0.002071,-0.078852,-0.012896,0.003418,-0.078852,0.251148,-0.364745,-0.310753,-0.389272,1.162791,-15.808861
1790538640.6510,-0.019012,-0.005148,-0.042819,-0.017177,-0.002578,-0.042819,0.606892,0.009211,0.140908,3.136902,2.278191,-10.025993
1790538640.6658,-0.025748,-0.009669,-0.034180,-0.023177,-0.007541,-0.034180,0.281502,0.362526,0.567072,0.338959,1.460231,-9.793126
1790538640.6803,-0.037114,-0.016582,-0.003634,-0.032933,-0.013870,-0.003634,0.338567,0.434161,1.001735,1.527127,0.828171,-9.637881
1790538640.6946,-0.037529,-0.028357,-0.005323,-0.036150,-0.024010,-0.005323,0.432055,0.058991,1.101294,-0.619240,-0.696209,-8.706413
1790538640.7086,-0.024362,-0.032951,-0.080296,-0.027898,-0.030269,-0.080296,0.016819,-0.317393,0.839040,-4.375383,-0.473129,-9.754315
1790538640.7224,-0.024021,-0.034561,-0.084825,-0.025184,-0.033274,-0.084825,-0.160446,0.262967,0.747979,-1.845736,-0.250049,-8.628791
1790538640.7364,-0.026721,-0.039685,-0.079622,-0.026260,-0.037761,-0.079622,0.137019,0.086916,0.763763,0.338959,-0.064149,-9.443825
1790538640.7504,-0.032333,-0.048445,-0.067776,-0.030511,-0.045240,-0.067776,0.524330,0.215615,0.921601,0.760567,0.642271,-9.055714
1790538640.7642,-0.040396,-0.061372,-0.058467,-0.037430,-0.056533,-0.058467,0.758660,0.454801,0.926458,0.607255,0.084571,-9.521448
1790538640.7777,-0.044737,-0.066491,-0.038036,-0.042545,-0.063503,-0.038036,0.507332,0.530078,0.820827,-1.155832,1.646131,-7.930189
1790538640.7913,-0.046218,-0.067800,-0.024052,-0.045116,-0.066511,-0.024052,0.175872,0.351599,0.659347,-1.385800,1.497411,-8.745224
1790538640.8051,-0.043136,-0.069352,-0.016688,-0.043730,-0.068499,-0.016688,0.139447,-0.074565,0.477225,-0.964192,1.423051,-10.879840
1790538640.8190,-0.038889,-0.070916,-0.007878,-0.040342,-0.070191,-0.007878,0.106665,-0.420595,0.384950,1.028863,1.088431,-10.685784
1790538640.8329,-0.036765,-0.070407,0.003080,-0.037838,-0.070342,0.003080,-0.076670,-0.406026,0.363096,2.561982,0.976891,-12.975644
1790538640.8468,-0.033976,-0.062900,0.020245,-0.035135,-0.065133,0.020245,-0.582967,-0.614858,0.357025,2.791950,0.679451,-8.628791
1790538640.8606,-0.035087,-0.056246,0.031121,-0.035101,-0.058912,0.031121,-0.706810,-0.420595,0.296318,3.826806,-0.584669,-9.366203
1790538640.8746,-0.026300,-0.044868,0.036255,-0.028940,-0.049081,0.036255,-0.871933,-0.905038,0.122696,1.642111,0.605091,-7.270399
1790538640.8885,-0.023898,-0.037369,0.042207,-0.025411,-0.040882,0.042207,-0.772373,-0.614858,0.025564,3.328542,-0.510309,-8.784035
1790538640.9022,-0.031273,-0.041503,0.048872,-0.029514,-0.041317,0.048872,-0.007464,0.312747,-0.185696,3.941790,-2.071868,-17.012007
1790538640.9168,-0.029923,-0.046662,0.044478,-0.029800,-0.045059,0.044478,0.340995,0.114841,-0.698064,-0.887536,1.199971,-13.402567
1790538640.9310,-0.025924,-0.047929,0.016390,-0.027087,-0.047068,0.016390,0.247506,-0.294324,-1.068378,1.297159,2.017931,-9.210958
1790538640.9450,-0.028117,-0.050531,-0.008239,-0.027808,-0.049492,-0.008239,0.309427,-0.039355,-0.704135,1.527127,1.125611,-5.756762
1790538640.9591,-0.019240,-0.055032,-0.021822,-0.021810,-0.053370,-0.021822,0.429627,-0.613644,-0.401814,0.300631,1.311511,-6.843476
1790538640.9731,-0.013396,-0.063827,-0.037352,-0.015920,-0.060690,-0.037352,0.731949,-0.334391,-0.627644,-0.005993,1.943571,-11.229140
1790538640.9872,-0.001450,-0.067803,-0.063695,-0.005791,-0.065669,-0.063695,0.481835,-0.686492,-0.920252,-0.619240,2.687171,-10.452916
1790538641.0008,0.003054,-0.070746,-0.082970,0.000400,-0.069223,-0.082970,0.317926,-0.214191,-0.904468,-0.235960,1.646131,-9.405014
1790538641.0144,0.011611,-0.080041,-0.083587,0.008248,-0.076795,-0.083587,0.570468,-0.526226,-0.673781,-0.465928,-0.026969,-10.530539
1790538641.0280,0.020521,-0.091189,-0.087214,0.016839,-0.086871,-0.087214,0.789013,-0.674351,-0.540226,0.300631,0.493551,-9.055714
1790538641.0419,0.014415,-0.100430,-0.100054,0.015142,-0.096362,-0.100054,0.875217,0.306676,-0.296183,1.182175,2.315371,-9.094525
1790538641.0562,0.001845,-0.094398,-0.114110,0.005834,-0.094987,-0.114110,-0.375349,1.061872,-0.432167,-1.654096,1.385871,-12.277042
1790538641.0701,0.004403,-0.084600,-0.107424,0.004832,-0.087716,-0.107424,-0.846436,0.214401,-0.508658,-4.528694,-0.696209,-13.208511
1790538641.0840,0.003761,-0.081071,-0.083713,0.004082,-0.083065,-0.083713,-0.638818,0.468157,-0.488018,-1.769080,-1.402628,-4.670049
1790538641.0980,-0.005669,-0.068137,-0.089899,-0.002744,-0.072615,-0.089899,-0.844008,0.916175,-0.337464,-1.232488,1.088431,-6.455364
1790538641.1120,-0.017788,-0.062812,-0.095793,-0.013274,-0.065753,-0.095793,-0.643674,1.071585,-0.246403,-1.424128,-1.514168,-9.948371
1790538641.1260,-0.024649,-0.053348,-0.098678,-0.021237,-0.057069,-0.098678,-0.763874,0.687917,-0.273115,-2.114032,0.344831,-16.701518
1790538641.1398,-0.018037,-0.060353,-0.099468,-0.018997,-0.059368,-0.099468,0.327639,-0.487373,0.222255,0.070663,-0.956469,-17.128441
1790538641.1539,-0.020462,-0.060421,-0.092516,-0.020022,-0.060105,-0.092516,0.031389,0.039565,0.621708,1.105519,1.757671,-12.199420
1790538641.1683,-0.026095,-0.066159,-0.089395,-0.024273,-0.064343,-0.089395,0.208653,0.242326,0.718840,0.722239,-0.510309,-7.076343
1790538641.1824,-0.022644,-0.070739,-0.071490,-0.023133,-0.068820,-0.071490,0.349494,-0.055138,0.295104,-1.539112,1.014071,-8.124245
1790538641.1964,-0.035027,-0.075636,-0.077774,-0.031459,-0.073591,-0.077774,0.354350,0.655135,0.325457,2.217030,0.939711,-9.133336
1790538641.2103,-0.045027,-0.082285,-0.073185,-0.040956,-0.079677,-0.073185,0.523116,0.668490,0.375237,0.722239,1.460231,-10.336483
1790538641.2243,-0.054200,-0.087897,-0.063297,-0.050227,-0.085431,-0.063297,0.532829,0.618710,0.519720,0.492271,2.055111,-8.628791
1790538641.2378,-0.063784,-0.092144,-0.054218,-0.059717,-0.090130,-0.054218,0.428413,0.661205,0.539146,0.683911,1.943571,-8.900469
1790538641.2515,-0.069515,-0.099699,-0.045732,-0.066575,-0.096829,-0.045732,0.552256,0.499724,0.486938,-0.350944,0.865351,-9.094525
1790538641.2653,-0.075839,-0.106131,-0.036857,-0.073060,-0.103340,-0.036857,0.534043,0.466943,0.449300,0.415615,1.571771,-9.715504
1790538641.2791,-0.074229,-0.106866,-0.025586,-0.073879,-0.105808,-0.025586,0.229294,-0.004144,0.408019,-0.810880,3.393591,-12.199420
1790538641.2930,-0.066236,-0.106021,-0.021683,-0.068529,-0.105957,-0.021683,-0.168945,-0.625785,0.449300,1.258831,-0.212869,-13.635434
1790538641.3069,-0.057924,-0.101616,-0.020216,-0.061106,-0.102918,-0.020216,-0.427557,-0.750842,0.282962,2.523654,-0.398769,-12.277042
1790538641.3209,-0.053102,-0.096344,-0.022072,-0.055503,-0.098316,-0.022072,-0.572040,-0.617286,0.279320,3.060246,-1.179549,-8.978091
1790538641.3357,-0.046396,-0.083431,-0.022519,-0.049128,-0.087897,-0.022519,-0.901073,-0.694991,0.161548,2.332014,0.419191,-7.231588
1790538641.3498,-0.036730,-0.071597,-0.022113,-0.040450,-0.076487,-0.022113,-0.926569,-0.958460,0.063203,2.715294,0.010211,-7.969000
1790538641.3639,-0.028558,-0.057619,-0.030221,-0.032125,-0.063280,-0.030221,-0.888931,-0.965745,0.027993,3.865134,1.794851,-7.619700
1790538641.3778,-0.031780,-0.057402,-0.015078,-0.031884,-0.059165,-0.015078,-0.217511,0.031066,-0.252474,4.286742,-1.737248,-14.334035
1790538641.3918,-0.038814,-0.061422,-0.020408,-0.036735,-0.060745,-0.020408,0.283930,0.689131,-0.787911,-1.002520,0.976891,-14.566903
1790538641.4066,-0.023539,-0.060866,-0.031200,-0.027498,-0.060830,-0.031200,0.016819,-0.824905,-0.917824,-1.385800,1.683311,-12.471098
1790538641.4211,-0.024422,-0.064296,-0.054198,-0.025345,-0.063256,-0.054198,0.343423,-0.103704,-0.464949,2.255358,1.646131,-7.930189
1790538641.4353,-0.016358,-0.078012,-0.054271,-0.019054,-0.073585,-0.054271,0.924997,-0.477660,-0.502587,-0.312616,0.270471,-9.599070
1790538641.4492,-0.000452,-0.082809,-0.084341,-0.006033,-0.080042,-0.084341,0.593536,-0.999741,-0.813408,-0.695896,2.873071,-7.930189
1790538641.4629,0.008349,-0.088039,-0.104677,0.004035,-0.085640,-0.104677,0.529187,-0.727773,-0.910539,1.373815,1.943571,-8.007811
1790538641.4766,0.008154,-0.093286,-0.114574,0.006918,-0.090992,-0.114574,0.461195,-0.129201,-0.727204,1.833751,1.385871,-8.163056
1790538641.4906,0.024958,-0.102420,-0.122101,0.019546,-0.098992,-0.122101,0.617819,-0.986385,-0.766056,-2.037376,0.307651,-9.405014
1790538641.5045,0.016973,-0.107002,-0.140901,0.017745,-0.104599,-0.140901,0.577753,0.446302,-0.495303,1.718767,3.393591,-9.172147
1790538641.5184,0.000765,-0.104892,-0.137801,0.005859,-0.104804,-0.137801,-0.153161,1.024234,-0.574222,3.213558,1.125611,-15.537182
1790538641.5324,0.001847,-0.090850,-0.137162,0.003051,-0.095036,-0.137162,-1.101406,0.300605,-0.609432,-4.567022,-0.510309,-10.608161
1790538641.5465,0.003228,-0.080880,-0.111763,0.003175,-0.085127,-0.111763,-1.039485,0.239898,-0.581507,-2.727279,-2.480848,-6.959909
1790538641.5609,-0.007709,-0.065030,-0.116667,-0.004444,-0.071059,-0.116667,-1.158471,0.873680,-0.474662,-0.389272,0.158931,-5.640329
1790538641.5747,-0.014275,-0.056163,-0.125378,-0.011326,-0.060632,-0.125378,-0.846436,0.844541,-0.488018,-2.765607,-1.179549,-7.309210
1790538641.5887,-0.024037,-0.043656,-0.135438,-0.020223,-0.048749,-0.135438,-0.773588,0.794761,-0.401814,-0.235960,2.129471,-8.240679
1790538641.6027,-0.015476,-0.053804,-0.134488,-0.016900,-0.052287,-0.134488,0.598393,-0.543224,-0.137131,-0.810880,-0.733389,-16.895574
1790538641.6166,-0.017588,-0.053504,-0.133317,-0.017381,-0.053139,-0.133317,0.059314,0.037136,0.393449,1.258831,2.538451,-11.462007
1790538641.6305,-0.020673,-0.053273,-0.127225,-0.019686,-0.053233,-0.127225,-0.009892,0.095415,0.574357,1.105519,1.460231,-10.802217
1790538641.6447,-0.011088,-0.058638,-0.120360,-0.013668,-0.057017,-0.120360,0.292429,-0.514084,0.265965,-2.037376,0.047391,-8.784035
1790538641.6588,-0.027949,-0.063420,-0.129296,-0.023664,-0.061499,-0.129296,0.337352,0.894321,0.263536,2.485326,0.642271,-6.222497
1790538641.6731,-0.040443,-0.072136,-0.124835,-0.035410,-0.068945,-0.124835,0.576538,0.845755,0.331528,0.492271,0.642271,-10.530539
1790538641.6870,-0.054371,-0.080009,-0.125793,-0.048683,-0.076690,-0.125793,0.687025,0.935602,0.473583,0.722239,2.129471,-7.969000
1790538641.7006,-0.064270,-0.084225,-0.125541,-0.059594,-0.081965,-0.125541,0.459981,0.700058,0.571928,0.415615,2.649991,-8.512357
1790538641.7142,-0.068834,-0.088232,-0.122871,-0.066062,-0.086352,-0.122871,0.398060,0.363741,0.598639,-0.159304,2.315371,-9.055714
1790538641.7282,-0.067472,-0.093163,-0.121307,-0.067049,-0.091119,-0.121307,0.476979,0.005569,0.496651,-1.194160,3.058971,-10.802217
1790538641.7421,-0.063874,-0.097041,-0.112262,-0.064827,-0.095265,-0.112262,0.184371,-0.289468,0.581641,0.683911,0.010211,-12.820399
1790538641.7560,-0.055469,-0.093188,-0.101987,-0.058276,-0.093811,-0.101987,-0.355923,-0.692563,0.463870,1.450471,0.121751,-11.151518
1790538641.7699,-0.051780,-0.089466,-0.075350,-0.053729,-0.090769,-0.075350,-0.488264,-0.569935,0.471155,4.248414,-1.848788,-9.987182
1790538641.7838,-0.050246,-0.081778,-0.063624,-0.051291,-0.084476,-0.063624,-0.711666,-0.425452,0.331528,3.443526,-0.844929,-7.464455
1790538641.7978,-0.042116,-0.070670,-0.059875,-0.044869,-0.074811,-0.059875,-0.844008,-0.790909,0.235611,2.676966,0.382011,-8.939280
1790538641.8117,-0.036573,-0.057146,-0.067047,-0.039062,-0.062446,-0.067047,-0.989705,-0.742343,0.058346,4.286742,0.753811,-8.240679
1790538641.8255,-0.024794,-0.043173,-0.067774,-0.029074,-0.048955,-0.067774,-1.018844,-1.095658,0.006138,2.791950,0.902531,-7.930189
1790538641.8393,-0.029490,-0.042304,-0.051119,-0.029365,-0.044299,-0.051119,-0.211440,0.255682,-0.296183,3.443526,-1.142369,-17.477742
1790538641.8531,-0.037865,-0.049529,-0.064621,-0.035315,-0.047960,-0.064621,0.576538,0.870038,-0.821907,-1.922392,1.571771,-11.500819
1790538641.8669,-0.029351,-0.061140,-0.072804,-0.031140,-0.057186,-0.072804,0.855791,-0.438807,-0.868044,-0.657568,0.753811,-8.512357
1790538641.8808,-0.028451,-0.063638,-0.073683,-0.029258,-0.061702,-0.073683,0.150375,-0.068494,-0.369032,0.530599,0.307651,-6.144874
1790538641.8945,-0.020553,-0.071542,-0.074599,-0.023165,-0.068590,-0.074599,0.565611,-0.389028,-0.364175,-1.769080,0.716631,-9.987182
1790538641.9084,-0.003968,-0.081062,-0.087160,-0.009727,-0.077320,-0.087160,0.731949,-0.951175,-0.672567,-2.497311,1.274331,-9.831937
1790538641.9225,0.007658,-0.087891,-0.111777,0.002443,-0.084720,-0.111777,0.612963,-0.753270,-0.781840,-0.197632,2.055111,-8.434735
1790538641.9372,0.013153,-0.092248,-0.145022,0.009940,-0.089990,-0.145022,0.475765,-0.412096,-0.755129,1.067191,2.687171,-7.969000
1790538641.9515,0.021255,-0.099078,-0.159268,0.017860,-0.096352,-0.159268,0.497619,-0.565078,-0.881400,0.492271,0.865351,-8.046623
1790538641.9655,0.025680,-0.108320,-0.182282,0.023334,-0.104729,-0.182282,0.821795,-0.324678,-0.505016,0.415615,3.393591,-11.927742
1790538641.9798,0.006408,-0.108609,-0.182793,0.011486,-0.107445,-0.182793,-0.028104,1.336268,-0.421240,0.645583,0.047391,-15.381938
1790538641.9942,0.008092,-0.096058,-0.180215,0.009110,-0.099474,-0.180215,-0.926569,0.241112,-0.472234,-5.180270,-0.026969,-9.909560
1790538642.0081,0.006854,-0.083760,-0.167990,0.007531,-0.088474,-0.167990,-1.100192,0.347957,-0.449165,-2.267343,-1.551348,-6.843476
1790538642.0219,-0.000248,-0.072217,-0.163106,0.002086,-0.077094,-0.163106,-1.056483,0.701272,-0.330179,-1.462456,-1.476988,-6.882287
1790538642.0360,-0.011389,-0.059118,-0.165990,-0.007346,-0.064510,-0.165990,-1.017630,0.962313,-0.417597,-0.964192,-0.175689,-5.834385
1790538642.0500,-0.028381,-0.046197,-0.174784,-0.022071,-0.051691,-0.174784,-0.801513,1.338697,-0.282828,-0.619240,1.832031,-6.610609
1790538642.0641,-0.016930,-0.052982,-0.177364,-0.018472,-0.052595,-0.177364,0.337352,-0.540795,-0.122561,-5.563550,-1.588528,-15.110259
1790538642.0781,-0.010534,-0.054444,-0.168696,-0.012915,-0.053890,-0.168696,0.195298,-0.386599,0.371595,-1.462456,2.426911,-9.637881
1790538642.0920,-0.015240,-0.054060,-0.158410,-0.014543,-0.054009,-0.158410,-0.018391,0.224114,0.783189,0.492271,1.162791,-8.240679
1790538642.1060,-0.010072,-0.056917,-0.156999,-0.011413,-0.056044,-0.156999,0.107880,-0.151056,0.451728,-3.148887,-0.175689,-8.085434
1790538642.1201,-0.025553,-0.064159,-0.160447,-0.021311,-0.061725,-0.160447,0.538900,0.828757,0.451728,2.830278,1.088431,-7.425644
1790538642.1339,-0.038175,-0.073762,-0.156217,-0.033116,-0.070150,-0.156217,0.694310,0.780191,0.503936,1.680439,1.199971,-10.375294
1790538642.1478,-0.051548,-0.081382,-0.147451,-0.046018,-0.078012,-0.147451,0.616605,0.935602,0.591355,0.262303,2.166651,-10.025993
1790538642.1617,-0.059319,-0.087055,-0.137082,-0.055329,-0.084342,-0.137082,0.432055,0.547076,0.690914,0.032335,1.794851,-10.763406
1790538642.1759,-0.064546,-0.092800,-0.126056,-0.061781,-0.090263,-0.126056,0.436912,0.341886,0.696985,0.338959,1.794851,-9.909560
1790538642.1900,-0.066202,-0.103171,-0.118261,-0.064876,-0.099298,-0.118261,0.718593,0.131839,0.553716,-0.044320,1.125611,-12.160609
1790538642.2042,-0.064217,-0.106519,-0.109048,-0.064414,-0.104353,-0.109048,0.203797,-0.228761,0.590140,1.987063,0.976891,-13.635434
1790538642.2183,-0.056847,-0.101694,-0.100944,-0.059117,-0.102492,-0.100944,-0.434842,-0.648854,0.590140,2.178703,-0.138509,-11.656063
1790538642.2323,-0.055801,-0.096890,-0.096441,-0.056796,-0.098571,-0.096441,-0.545329,-0.311322,0.574357,3.366870,-1.774428,-9.249770
1790538642.2461,-0.051600,-0.089158,-0.093483,-0.053159,-0.091982,-0.093483,-0.732307,-0.534725,0.347312,2.753622,-1.179549,-7.542077
1790538642.2599,-0.044777,-0.077692,-0.093225,-0.047292,-0.081979,-0.093225,-0.875576,-0.692563,0.293890,2.638638,0.382011,-8.706413
1790538642.2737,-0.036720,-0.065836,-0.095481,-0.039891,-0.070679,-0.095481,-0.880432,-0.810335,0.149407,2.945262,0.642271,-8.279490
1790538642.2877,-0.029070,-0.053090,-0.098787,-0.032316,-0.058367,-0.098787,-0.898644,-0.813977,0.167619,2.945262,1.051251,-7.153965
1790538642.3015,-0.041196,-0.058962,-0.086185,-0.038532,-0.058783,-0.086185,0.269360,0.760765,-0.190553,3.443526,-1.700068,-13.208511
1790538642.3154,-0.049698,-0.065351,-0.097676,-0.046348,-0.063381,-0.097676,0.564397,0.837256,-0.747844,-2.343999,2.835891,-14.722147
1790538642.3295,-0.036685,-0.068465,-0.108739,-0.039584,-0.066939,-0.108739,0.274217,-0.841903,-0.744202,0.223975,1.311511,-10.142427
1790538642.3434,-0.035978,-0.069580,-0.132283,-0.037060,-0.068788,-0.132283,0.230508,-0.214191,-0.298612,2.906934,2.575631,-8.512357
1790538642.3574,-0.027469,-0.081412,-0.133133,-0.030346,-0.077625,-0.133133,0.864290,-0.432737,-0.416383,-1.884064,1.051251,-10.763406
1790538642.3714,-0.011592,-0.089824,-0.149963,-0.017218,-0.086164,-0.149963,0.734377,-1.024024,-0.638571,-0.772552,2.352551,-9.366203
1790538642.3849,-0.002143,-0.094483,-0.170451,-0.006665,-0.091988,-0.170451,0.512189,-0.681636,-0.783054,0.415615,2.129471,-7.115154
1790538642.3986,0.002966,-0.099553,-0.182773,0.000077,-0.097283,-0.182773,0.415058,-0.352603,-0.702921,0.338959,1.125611,-9.016902
1790538642.4126,0.013798,-0.107310,-0.194275,0.009682,-0.104302,-0.194275,0.570468,-0.635498,-0.744202,-1.385800,0.790991,-9.210958
1790538642.4268,0.014689,-0.120227,-0.203473,0.013187,-0.115449,-0.203473,0.951708,-0.036926,-0.378745,-0.312616,1.794851,-15.265504
1790538642.4409,0.000952,-0.118242,-0.215664,0.004622,-0.117404,-0.215664,-0.059672,1.088583,-0.422454,-2.229015,2.835891,-16.623896
1790538642.4549,-0.002880,-0.106245,-0.212237,-0.000629,-0.109593,-0.212237,-0.868291,0.545862,-0.479519,-4.758662,0.530731,-12.354665
1790538642.4686,-0.002161,-0.097500,-0.184631,-0.001702,-0.101128,-0.184631,-0.820939,0.320031,-0.506230,-3.187215,-1.402628,-5.446273
1790538642.4824,-0.012575,-0.086928,-0.189143,-0.009313,-0.091188,-0.189143,-0.874361,0.832399,-0.284042,-0.465928,-0.621849,-6.727042
1790538642.4963,-0.017560,-0.079637,-0.192232,-0.015086,-0.083102,-0.192232,-0.703167,0.676989,-0.353248,-3.263871,-1.625708,-7.153965
1790538642.5101,-0.027419,-0.070556,-0.197303,-0.023719,-0.074320,-0.197303,-0.731093,0.925888,-0.360533,-2.267343,-0.324409,-9.754315
1790538642.5244,-0.018366,-0.072512,-0.200643,-0.019972,-0.073054,-0.200643,-0.009892,-0.449735,-0.103135,-4.720334,-2.592388,-18.059910
1790538642.5385,-0.018169,-0.075033,-0.197893,-0.018710,-0.074439,-0.197893,0.144304,-0.073351,0.393449,0.798895,0.753811,-14.295224
1790538642.5525,-0.026132,-0.076153,-0.183677,-0.023905,-0.075639,-0.183677,0.157659,0.502153,0.631421,0.453943,1.980751,-8.667602
1790538642.5665,-0.025993,-0.078641,-0.166525,-0.025366,-0.077741,-0.166525,0.269360,0.145195,0.301175,-1.730752,1.608951,-6.804665
1790538642.5804,-0.034722,-0.084749,-0.165351,-0.031915,-0.082646,-0.165351,0.452696,0.514294,0.227112,1.450471,0.865351,-7.813756
1790538642.5942,-0.047608,-0.093569,-0.162410,-0.042900,-0.090292,-0.162410,0.667599,0.834828,0.233183,2.063719,1.534591,-11.850119
1790538642.6082,-0.059455,-0.102057,-0.152962,-0.054488,-0.098527,-0.152962,0.651815,0.863967,0.398306,-0.044320,1.534591,-9.443825
1790538642.6219,-0.067353,-0.106610,-0.139955,-0.063493,-0.104185,-0.139955,0.462409,0.652706,0.406805,-0.619240,2.278191,-7.852567
1790538642.6354,-0.074201,-0.111848,-0.130681,-0.070989,-0.109549,-0.130681,0.418700,0.500939,0.418946,0.453943,1.237151,-8.784035
1790538642.6494,-0.076573,-0.116917,-0.122793,-0.074898,-0.114706,-0.122793,0.418700,0.228971,0.357025,-0.350944,1.608951,-9.327392
1790538642.6635,-0.063959,-0.122006,-0.123903,-0.067241,-0.119816,-0.123903,0.299714,-0.788480,0.488153,-1.539112,0.196111,-12.082986
1790538642.6779,-0.060497,-0.118138,-0.118325,-0.062520,-0.118642,-0.118325,-0.321927,-0.344104,0.461441,2.408670,0.158931,-12.354665
1790538642.6920,-0.054012,-0.113539,-0.126623,-0.056565,-0.115070,-0.126623,-0.484622,-0.596646,0.384950,2.561982,-1.625708,-10.336483
1790538642.7062,-0.052289,-0.108002,-0.142888,-0.053572,-0.110122,-0.142888,-0.608464,-0.372030,0.206472,3.021918,-1.885968,-6.416553
1790538642.7200,-0.046965,-0.096902,-0.143732,-0.048947,-0.100868,-0.143732,-0.854935,-0.539581,0.119053,2.523654,0.010211,-9.094525
1790538642.7338,-0.037965,-0.084399,-0.144261,-0.041260,-0.089340,-0.144261,-0.938711,-0.881969,-0.036357,3.903462,0.196111,-9.172147
1790538642.7476,-0.031680,-0.070525,-0.140597,-0.034554,-0.076170,-0.140597,-1.004275,-0.781195,-0.010860,5.014973,0.828171,-8.201867
1790538642.7615,-0.035126,-0.069521,-0.141041,-0.034954,-0.071516,-0.141041,-0.198084,0.191332,-0.322894,2.485326,-1.662888,-14.023546
1790538642.7753,-0.043291,-0.077658,-0.145793,-0.040790,-0.075815,-0.145793,0.643316,0.839684,-0.835262,-2.880591,1.497411,-13.208511
1790538642.7892,-0.029106,-0.084432,-0.147849,-0.032611,-0.081847,-0.147849,0.643316,-0.705919,-0.756343,-3.263871,2.389731,-8.085434
1790538642.8031,-0.034816,-0.089220,-0.158085,-0.034154,-0.087008,-0.158085,0.368920,0.286035,-0.379959,2.676966,0.865351,-9.366203
1790538642.8170,-0.026649,-0.093658,-0.163422,-0.028900,-0.091663,-0.163422,0.404130,-0.477660,-0.483161,-0.964192,1.906391,-10.685784
1790538642.8309,-0.010707,-0.100778,-0.170013,-0.016165,-0.098043,-0.170013,0.575324,-0.940248,-0.660426,-2.382327,1.348691,-9.521448
1790538642.8444,-0.004474,-0.109727,-0.178533,-0.007981,-0.106222,-0.178533,0.741662,-0.503157,-0.681066,1.067191,1.348691,-7.852567
1790538642.8583,-0.000372,-0.113534,-0.186992,-0.002655,-0.111340,-0.186992,0.445411,-0.322250,-0.661640,0.683911,2.203831,-6.882287
1790538642.8722,0.012983,-0.120237,-0.197004,0.008291,-0.117568,-0.197004,0.527973,-0.851616,-0.637357,-1.347472,1.274331,-10.452916
1790538642.8863,0.020688,-0.128610,-0.201724,0.016969,-0.125297,-0.201724,0.728306,-0.535939,-0.445523,-0.082648,2.687171,-10.258860
1790538642.9003,0.009906,-0.127581,-0.206805,0.012025,-0.126896,-0.206805,-0.032961,0.754694,-0.457664,0.683911,1.757671,-16.002917
1790538642.9142,0.006161,-0.116151,-0.226486,0.007920,-0.119374,-0.226486,-0.835509,0.531292,-0.375103,-5.218598,0.382011,-12.742777
1790538642.9286,0.004435,-0.107544,-0.242495,0.005481,-0.111093,-0.242495,-0.717737,0.349171,-0.354462,-3.033903,-1.179549,-8.512357
1790538642.9427,0.000061,-0.099012,-0.253729,0.001687,-0.102636,-0.253729,-0.752947,0.496082,-0.224549,-1.462456,-0.919289,-5.252217
1790538642.9566,-0.004643,-0.090513,-0.250170,-0.002744,-0.094150,-0.250170,-0.546543,0.386809,-0.111634,-0.427600,1.311511,-7.658511
1790538642.9704,-0.015990,-0.080902,-0.253787,-0.012016,-0.084877,-0.253787,-0.681313,0.974454,-0.235476,-1.960720,0.976891,-10.181238
1790538642.9846,-0.013358,-0.074862,-0.256939,-0.012955,-0.077866,-0.256939,-0.425129,0.009211,-0.258545,-5.141942,1.608951,-19.263056
1790538642.9985,-0.006487,-0.076195,-0.259895,-0.008427,-0.076696,-0.259895,0.026532,-0.500729,0.261108,-0.274288,-0.101329,-13.945924
1790538643.0124,-0.008160,-0.078331,-0.261428,-0.008240,-0.077841,-0.261428,0.070241,0.003140,0.327886,1.527127,-0.361589,-10.142427
1790538643.0263,-0.014498,-0.080698,-0.230672,-0.012621,-0.079841,-0.230672,0.266932,0.180405,0.433516,3.481854,2.017931,-8.085434
1790538643.0402,-0.021019,-0.092416,-0.230295,-0.018499,-0.088644,-0.230295,0.796298,0.460872,0.319387,0.032335,0.047391,-8.745224
1790538643.0541,-0.034286,-0.100463,-0.221159,-0.029550,-0.096917,-0.221159,0.610534,0.868824,0.400734,1.182175,1.237151,-9.288581
1790538643.0682,-0.047380,-0.107448,-0.204742,-0.042031,-0.104289,-0.204742,0.606892,0.907676,0.513649,0.338959,2.352551,-8.822846
1790538643.0817,-0.058212,-0.115452,-0.191415,-0.053358,-0.112103,-0.191415,0.676098,0.826329,0.599854,-0.197632,1.720491,-7.619700
1790538643.0954,-0.062889,-0.121950,-0.181211,-0.060030,-0.118996,-0.181211,0.547399,0.396522,0.524577,-0.542584,1.943571,-9.443825
1790538643.1094,-0.056357,-0.127870,-0.167657,-0.057459,-0.125208,-0.167657,0.439340,-0.489801,0.647205,0.760567,1.832031,-14.566903
1790538643.1232,-0.049612,-0.128431,-0.160096,-0.051966,-0.127464,-0.160096,-0.014749,-0.542009,0.529433,1.373815,-0.026969,-12.859210
1790538643.1370,-0.040502,-0.125625,-0.152693,-0.043941,-0.126177,-0.152693,-0.327997,-0.838260,0.621708,3.175230,-1.216729,-10.841028
1790538643.1507,-0.036025,-0.120900,-0.150429,-0.038400,-0.122483,-0.150429,-0.536830,-0.552937,0.652062,3.136902,-1.960328,-8.240679
1790538643.1648,-0.030904,-0.111881,-0.143417,-0.033152,-0.115061,-0.143417,-0.763874,-0.559007,0.533076,2.293686,-0.882109,-7.192776
1790538643.1793,-0.029055,-0.098117,-0.137451,-0.030284,-0.103200,-0.137451,-1.032200,-0.363531,0.378880,3.060246,-0.398769,-7.503266
1790538643.1935,-0.025836,-0.079831,-0.134724,-0.027170,-0.086841,-0.134724,-1.363661,-0.419381,0.125124,3.098574,-0.287229,-9.210958
1790538643.2074,-0.014597,-0.063681,-0.130971,-0.018369,-0.070629,-0.130971,-1.271386,-0.990028,0.081415,3.175230,-0.770569,-10.724595
1790538643.2213,-0.031904,-0.062407,-0.132552,-0.027844,-0.064873,-0.132552,-0.181086,1.076442,-0.030286,4.478381,-0.733389,-13.829490
1790538643.2352,-0.038621,-0.068687,-0.142927,-0.035388,-0.067543,-0.142927,0.492763,0.628424,-0.716276,-1.117504,1.794851,-15.925294
1790538643.2491,-0.025743,-0.064018,-0.160518,-0.028637,-0.065076,-0.160518,-0.149519,-0.773911,-0.540226,-1.424128,3.839751,-9.909560
1790538643.2630,-0.028899,-0.069039,-0.160333,-0.028820,-0.067850,-0.160333,0.357993,0.029852,-0.041213,2.830278,0.679451,-7.580888
1790538643.2770,-0.013245,-0.082607,-0.163366,-0.017917,-0.078180,-0.163366,0.966278,-0.883183,-0.362961,-3.877119,0.642271,-11.423196
1790538643.2909,0.002960,-0.091971,-0.174758,-0.003303,-0.087834,-0.174758,0.801155,-1.158794,-0.483161,0.415615,2.426911,-8.745224
1790538643.3045,0.010280,-0.099021,-0.185272,0.006205,-0.095665,-0.185272,0.617819,-0.600288,-0.624002,1.220503,1.757671,-7.774944
1790538643.3180,0.017593,-0.105913,-0.192201,0.014176,-0.102838,-0.192201,0.558326,-0.599074,-0.526870,1.028863,1.162791,-7.891378
1790538643.3319,0.024479,-0.114934,-0.201377,0.021388,-0.111306,-0.201377,0.662742,-0.478874,-0.607004,0.032335,0.642271,-7.270399
1790538643.3458,0.023730,-0.120617,-0.218044,0.023027,-0.117823,-0.218044,0.553470,0.103914,-0.461307,-0.619240,2.835891,-9.676693
1790538643.3597,0.013884,-0.119749,-0.230768,0.016627,-0.119171,-0.230768,-0.048745,0.882179,-0.409098,-4.298727,1.274331,-16.701518
1790538643.3736,0.013627,-0.106720,-0.239339,0.014527,-0.110455,-0.239339,-0.938711,0.253254,-0.326537,-4.835318,0.716631,-12.703965
1790538643.3875,0.015014,-0.093908,-0.234467,0.014868,-0.098872,-0.234467,-1.056483,0.188904,-0.190553,-2.957247,-0.993649,-5.756762
1790538643.4016,0.008596,-0.081352,-0.237715,0.010478,-0.086608,-0.237715,-1.011559,0.571359,-0.065496,-1.385800,-0.844929,-7.542077
1790538643.4156,0.002461,-0.074029,-0.239155,0.004866,-0.077803,-0.239155,-0.646103,0.679418,-0.203908,-3.225543,-1.030829,-8.512357
1790538643.4300,-0.007570,-0.064657,-0.231781,-0.003839,-0.068601,-0.231781,-0.623034,0.995094,-0.171127,-3.877119,1.014071,-7.464455
1790538643.4441,-0.004556,-0.055101,-0.237279,-0.004341,-0.059151,-0.237279,-0.743234,0.022567,-0.076424,-3.800463,-0.026969,-9.793126
1790538643.4581,0.000083,-0.058829,-0.240800,-0.001244,-0.058925,-0.240800,0.161302,-0.334391,0.423803,-1.194160,-0.882109,-16.779140
1790538643.4721,-0.005676,-0.061945,-0.226424,-0.004346,-0.061039,-0.226424,0.213510,0.157336,0.834183,3.175230,1.014071,-10.918651
1790538643.4860,-0.015159,-0.065484,-0.205867,-0.011915,-0.064151,-0.205867,0.361635,0.650278,0.659347,-0.274288,2.315371,-8.163056
1790538643.5000,-0.020443,-0.070864,-0.196937,-0.017885,-0.068850,-0.196937,0.405344,0.355242,0.484510,-0.082648,0.939711,-6.649420
1790538643.5141,-0.028912,-0.078444,-0.187363,-0.025604,-0.075566,-0.187363,0.569254,0.559217,0.444443,0.377287,1.423051,-9.366203
1790538643.5281,-0.041347,-0.085741,-0.170175,-0.036624,-0.082689,-0.170175,0.594751,0.811759,0.605924,0.722239,2.055111,-8.706413
1790538643.5417,-0.049640,-0.090362,-0.153361,-0.045735,-0.088060,-0.153361,0.422342,0.594428,0.700627,-0.005993,2.203831,-8.822846
1790538643.5553,-0.058960,-0.097680,-0.140442,-0.054993,-0.094794,-0.140442,0.541328,0.653921,0.788046,0.223975,1.274331,-9.133336
1790538643.5692,-0.063165,-0.106462,-0.133072,-0.060713,-0.102962,-0.133072,0.604464,0.326102,0.705484,-0.389272,0.828171,-9.016902
1790538643.5830,-0.054015,-0.110463,-0.109946,-0.056025,-0.108213,-0.109946,0.385918,-0.737486,0.690914,1.335487,3.430771,-12.315854
1790538643.5969,-0.041755,-0.105913,-0.099244,-0.046036,-0.106603,-0.099244,-0.376563,-0.979101,0.579213,1.795423,0.382011,-12.432287
1790538643.6108,-0.040246,-0.098021,-0.097068,-0.041983,-0.100596,-0.097068,-0.693454,-0.342890,0.561001,4.286742,-1.179549,-10.996273
1790538643.6247,-0.038167,-0.088756,-0.100570,-0.039312,-0.092308,-0.100570,-0.833081,-0.404811,0.383736,3.635166,-1.476988,-8.201867
1790538643.6386,-0.032165,-0.077090,-0.095112,-0.034309,-0.081656,-0.095112,-0.882860,-0.669494,0.213756,3.520182,0.233291,-8.473546
1790538643.6525,-0.023319,-0.061960,-0.091107,-0.026616,-0.067869,-0.091107,-1.066196,-0.907466,0.146979,3.481854,1.088431,-7.153965
1790538643.6665,-0.015141,-0.049998,-0.084872,-0.018583,-0.055360,-0.084872,-0.870719,-0.713203,0.173690,2.178703,1.051251,-11.112707
1790538643.6811,-0.030527,-0.057330,-0.087925,-0.026944,-0.056739,-0.087925,0.491548,1.057016,-0.189339,1.258831,1.237151,-16.352217
1790538643.6951,-0.026202,-0.065325,-0.106578,-0.026424,-0.062749,-0.106578,0.649387,-0.107347,-0.683495,-2.497311,2.538451,-13.208511
1790538643.7090,-0.019307,-0.069012,-0.119316,-0.021442,-0.067133,-0.119316,0.248720,-0.322250,-0.557224,-1.807408,0.493551,-10.530539
1790538643.7230,-0.016585,-0.076218,-0.122405,-0.018042,-0.073492,-0.122405,0.500047,-0.215405,-0.372674,0.990535,0.456371,-9.327392
1790538643.7369,-0.004275,-0.083426,-0.133037,-0.008405,-0.080446,-0.133037,0.504904,-0.755698,-0.642214,-0.887536,0.382011,-7.813756
1790538643.7509,0.010026,-0.090188,-0.143449,0.004497,-0.087265,-0.143449,0.571682,-0.924464,-0.674996,-0.734224,1.720491,-7.891378
1790538643.7645,0.018457,-0.097124,-0.152530,0.014269,-0.094167,-0.152530,0.605678,-0.594218,-0.819479,0.262303,1.869211,-7.891378
1790538643.7780,0.027895,-0.103982,-0.161818,0.023807,-0.101037,-0.161818,0.598393,-0.664638,-0.785483,0.032335,2.055111,-8.706413
1790538643.7919,0.035848,-0.112267,-0.170243,0.032236,-0.108898,-0.170243,0.608106,-0.559007,-0.759986,0.108991,1.088431,-10.569350
1790538643.8058,0.026226,-0.120184,-0.173807,0.028029,-0.116798,-0.173807,0.602035,0.653921,-0.492874,1.182175,1.832031,-15.110259
1790538643.8197,0.015204,-0.114826,-0.185435,0.019052,-0.115418,-0.185435,-0.359565,0.882179,-0.396957,-2.152360,1.832031,-17.516553
1790538643.8335,0.014365,-0.103168,-0.214245,0.015771,-0.106843,-0.214245,-0.970279,0.345528,-0.443094,-4.107087,-1.365448,-8.822846
1790538643.8474,0.013002,-0.095978,-0.227244,0.013833,-0.099237,-0.227244,-0.785729,0.324888,-0.403028,-2.075704,-2.294948,-5.523895
1790538643.8613,0.001073,-0.084699,-0.237442,0.004901,-0.089061,-0.237442,-0.975135,0.923460,-0.275543,-0.350944,-0.993649,-5.368651
1790538643.8752,-0.005850,-0.074800,-0.244935,-0.002625,-0.079078,-0.244935,-0.810012,0.618710,-0.285256,-1.155832,-0.584669,-7.930189
1790538643.8890,-0.022078,-0.060954,-0.250321,-0.016242,-0.066391,-0.250321,-1.015202,1.270705,-0.267044,-0.657568,0.679451,-8.939280
1790538643.9028,-0.012542,-0.054839,-0.243331,-0.013652,-0.058305,-0.243331,-0.539258,-0.437593,-0.155343,-4.720334,-0.882109,-12.005364
1790538643.9167,-0.010842,-0.059372,-0.237606,-0.011685,-0.059052,-0.237606,0.305785,-0.212977,0.522148,0.837223,1.051251,-12.587532
1790538643.9311,-0.013580,-0.056464,-0.234461,-0.013012,-0.057241,-0.234461,-0.268504,0.170692,0.528219,-0.427600,0.121751,-9.560259
1790538643.9451,-0.012326,-0.058925,-0.221506,-0.012532,-0.058419,-0.221506,0.222009,-0.175339,0.520934,0.607255,1.794851,-9.133336
1790538643.9591,-0.017214,-0.068136,-0.220670,-0.015809,-0.065221,-0.220670,0.609320,0.213187,0.377666,1.833751,0.233291,-9.870749
1790538643.9730,-0.031068,-0.072831,-0.211904,-0.026490,-0.070548,-0.211904,0.356779,0.848183,0.545217,2.102047,1.460231,-10.220049
1790538643.9868,-0.042895,-0.078286,-0.198373,-0.037973,-0.075964,-0.198373,0.446625,0.797189,0.630207,0.453943,1.646131,-7.969000
1790538644.0005,-0.050913,-0.084147,-0.185385,-0.047031,-0.081692,-0.185385,0.440554,0.590785,0.690914,-0.389272,1.311511,-8.589979
1790538644.0159,-0.057470,-0.090157,-0.170559,-0.054338,-0.087617,-0.170559,0.406559,0.391666,0.681201,0.300631,1.794851,-10.491728
1790538644.0302,-0.061511,-0.094529,-0.153771,-0.059359,-0.092455,-0.153771,0.364064,0.286035,0.641134,-0.197632,2.464091,-10.608161
1790538644.0445,-0.049659,-0.097972,-0.147658,-0.052569,-0.096317,-0.147658,0.152803,-0.810335,0.701842,-0.810880,-0.026969,-13.053266
1790538644.0593,-0.042379,-0.091761,-0.132021,-0.045436,-0.093128,-0.132021,-0.404488,-0.643997,0.582856,2.868606,1.794851,-11.850119
1790538644.0733,-0.037900,-0.085587,-0.128181,-0.040160,-0.087850,-0.128181,-0.555042,-0.542009,0.472369,3.481854,-0.770569,-9.637881
1790538644.0872,-0.034911,-0.076780,-0.125675,-0.036486,-0.080101,-0.125675,-0.732307,-0.444878,0.267179,3.098574,-0.510309,-7.774944
1790538644.1013,-0.026096,-0.064669,-0.123069,-0.029213,-0.069298,-0.123069,-0.890145,-0.794551,0.111768,2.446998,0.493551,-8.318301
1790538644.1154,-0.017390,-0.052804,-0.120790,-0.020937,-0.057752,-0.120790,-0.867077,-0.858901,0.013423,3.941790,0.642271,-8.900469
1790538644.1295,-0.024643,-0.051615,-0.124686,-0.023531,-0.053456,-0.124686,-0.100953,0.396522,-0.241547,3.865134,1.014071,-13.713056
1790538644.1433,-0.032851,-0.054032,-0.138492,-0.030055,-0.053859,-0.138492,0.259647,0.639351,-0.776984,1.642111,3.096151,-14.916203
1790538644.1572,-0.025215,-0.057043,-0.152463,-0.026667,-0.056088,-0.152463,0.241435,-0.373244,-1.087804,-0.734224,1.014071,-10.841028
1790538644.1715,-0.023085,-0.058668,-0.162818,-0.024159,-0.057894,-0.162818,0.224437,-0.151056,-0.559652,1.028863,2.129471,-7.774944
1790538644.1860,-0.020093,-0.066793,-0.167561,-0.021313,-0.064123,-0.167561,0.559540,-0.093991,-0.333822,-1.232488,0.902531,-11.073895
1790538644.2002,-0.005911,-0.074411,-0.177072,-0.010531,-0.071325,-0.177072,0.564397,-0.851616,-0.684709,-1.309144,1.274331,-10.181238
1790538644.2143,0.003536,-0.078925,-0.189851,-0.000684,-0.076645,-0.189851,0.418700,-0.611216,-0.900826,0.223975,2.166651,-8.861658
1790538644.2278,0.006981,-0.081095,-0.200352,0.004682,-0.079760,-0.200352,0.294857,-0.245759,-0.812194,0.683911,2.278191,-7.309210
1790538644.2415,0.011788,-0.084452,-0.211359,0.009656,-0.083045,-0.211359,0.291215,-0.295539,-0.772127,-0.005993,1.125611,-7.037532
1790538644.2555,0.022064,-0.093339,-0.222371,0.018342,-0.090250,-0.222371,0.608106,-0.610001,-0.664068,-1.424128,0.493551,-10.491728
1790538644.2694,0.029209,-0.102245,-0.230034,0.025949,-0.098646,-0.230034,0.685811,-0.499514,-0.615503,0.108991,1.646131,-10.879840
1790538644.2832,0.016058,-0.099777,-0.232210,0.019025,-0.099438,-0.232210,-0.039032,0.870038,-0.496517,2.063719,3.802571,-11.656063
1790538644.2972,0.006740,-0.092092,-0.244621,0.010425,-0.094296,-0.244621,-0.533187,0.789904,-0.405456,-2.190688,1.534591,-14.295224
1790538644.3110,0.005032,-0.081265,-0.259022,0.006650,-0.085174,-0.259022,-0.864648,0.423234,-0.359319,-3.953775,-0.510309,-8.163056
1790538644.3248,0.001774,-0.075240,-0.255805,0.003237,-0.078220,-0.255805,-0.681313,0.568931,-0.165056,-3.033903,-1.960328,-4.670049
1790538644.3387,-0.013481,-0.062215,-0.260109,-0.008466,-0.067016,-0.260109,-0.956923,1.106796,-0.167484,0.262303,0.456371,-6.532986
1790538644.3527,-0.031489,-0.052116,-0.259633,-0.024582,-0.056586,-0.259633,-0.624248,1.379978,-0.107991,-0.619240,2.055111,-7.580888
1790538644.3664,-0.026129,-0.057604,-0.265992,-0.025665,-0.057299,-0.265992,0.300928,-0.176553,0.080201,-5.755190,-0.807749,-16.429840
1790538644.3803,-0.020902,-0.060286,-0.252074,-0.022331,-0.059390,-0.252074,0.224437,-0.288254,0.695771,-2.688951,2.017931,-10.569350
1790538644.3943,-0.026817,-0.058971,-0.244802,-0.025471,-0.059097,-0.244802,-0.150733,0.337029,0.777118,0.453943,0.530731,-11.112707
1790538644.4083,-0.025459,-0.067115,-0.249802,-0.025462,-0.064710,-0.249802,0.374991,-0.073351,0.648419,-1.117504,-1.885968,-8.939280
1790538644.4222,-0.036065,-0.076448,-0.242266,-0.032885,-0.072927,-0.242266,0.657886,0.687917,0.561001,0.645583,0.753811,-7.969000
1790538644.4366,-0.048110,-0.088579,-0.235779,-0.043542,-0.083883,-0.235779,0.799941,0.795975,0.636278,0.453943,0.567911,-11.966553
1790538644.4502,-0.060117,-0.097441,-0.217192,-0.055145,-0.093374,-0.217192,0.685811,0.855468,0.813543,0.147319,1.832031,-9.715504
1790538644.4638,-0.068438,-0.103783,-0.198547,-0.064450,-0.100660,-0.198547,0.489120,0.690345,0.784403,-1.347472,1.683311,-9.521448
1790538644.4774,-0.068326,-0.111528,-0.179693,-0.067163,-0.108268,-0.179693,0.597179,0.021353,0.792902,-0.542584,1.943571,-10.724595
1790538644.4913,-0.064710,-0.113894,-0.173496,-0.065446,-0.112206,-0.173496,0.075098,-0.323464,0.713983,1.297159,-0.212869,-11.733686
1790538644.5052,-0.059435,-0.114844,-0.170952,-0.061238,-0.114053,-0.170952,-0.075456,-0.510442,0.636278,2.561982,-1.291089,-11.267951
1790538644.5190,-0.054122,-0.114195,-0.163838,-0.056257,-0.114153,-0.163838,-0.232080,-0.607573,0.744336,3.290214,-1.662888,-8.589979
1790538644.5328,-0.056578,-0.108957,-0.152648,-0.056481,-0.110516,-0.152648,-0.524688,-0.079421,0.672702,3.980118,-1.179549,-8.706413
1790538644.5467,-0.050870,-0.097187,-0.145667,-0.052553,-0.101186,-0.145667,-0.956923,-0.616072,0.488153,3.251886,-0.659029,-9.133336
1790538644.5605,-0.044463,-0.084926,-0.139602,-0.046890,-0.089804,-0.139602,-1.018844,-0.679207,0.387379,3.788478,-1.142369,-10.258860
1790538644.5744,-0.036391,-0.070234,-0.134790,-0.039541,-0.076105,-0.134790,-1.123261,-0.822476,0.216185,3.980118,0.010211,-9.288581
1790538644.5883,-0.025084,-0.053122,-0.130031,-0.029421,-0.060017,-0.130031,-1.211893,-1.067733,0.257466,3.060246,1.237151,-7.192776
1790538644.6021,-0.033749,-0.053341,-0.125224,-0.032450,-0.055343,-0.125224,-0.116737,0.515508,0.003710,3.481854,-1.700068,-15.071448
1790538644.6159,-0.041801,-0.066039,-0.121559,-0.038996,-0.062830,-0.121559,0.969920,0.891892,-0.670139,-4.988630,1.906391,-13.713056
1790538644.6298,-0.022015,-0.064190,-0.132937,-0.027109,-0.063782,-0.132937,0.201369,-1.333630,-0.639785,-0.312616,4.992331,-6.649420
1790538644.6436,-0.027705,-0.066609,-0.133185,-0.027526,-0.065761,-0.133185,0.181942,0.150052,-0.121347,4.516709,0.865351,-8.318301
1790538644.6575,-0.012989,-0.076768,-0.135759,-0.017350,-0.073466,-0.135759,0.741662,-0.897753,-0.307111,-2.382327,1.088431,-11.190329
1790538644.6715,0.003400,-0.088511,-0.143205,-0.002825,-0.083997,-0.143205,0.910427,-1.090802,-0.479519,-0.619240,1.869211,-9.405014
1790538644.6856,0.014964,-0.099089,-0.151870,0.009627,-0.094562,-0.151870,0.841221,-0.813977,-0.546297,0.262303,1.720491,-7.852567
1790538644.6993,0.021401,-0.103480,-0.161539,0.017869,-0.100805,-0.161539,0.473336,-0.526226,-0.647070,1.067191,2.464091,-7.192776
1790538644.7133,0.029701,-0.111088,-0.168975,0.026151,-0.108003,-0.168975,0.554684,-0.617286,-0.670139,0.645583,0.828171,-8.628791
1790538644.7271,0.020744,-0.112804,-0.179579,0.022366,-0.111363,-0.179579,0.209867,0.639351,-0.564509,0.645583,2.947431,-13.596623
1790538644.7410,0.005154,-0.105666,-0.188175,0.010318,-0.107375,-0.188175,-0.502834,1.168717,-0.432167,-0.465928,1.088431,-12.936833
1790538644.7550,0.009912,-0.094016,-0.196188,0.010034,-0.098024,-0.196188,-0.950852,-0.051496,-0.420026,-4.605350,-1.328269,-9.405014
1790538644.7688,0.003824,-0.081471,-0.198192,0.005687,-0.086437,-0.198192,-1.118404,0.696416,-0.322894,-1.769080,-1.291089,-4.165504
1790538644.7827,-0.005206,-0.067843,-0.202866,-0.001938,-0.073421,-0.202866,-1.153614,0.865181,-0.251260,-1.845736,-1.216729,-5.640329
1790538644.7966,-0.014358,-0.057030,-0.207488,-0.010632,-0.061947,-0.207488,-0.881646,0.873680,-0.288898,-2.305671,-0.621849,-7.930189
1790538644.8104,-0.023016,-0.045841,-0.208286,-0.019301,-0.050673,-0.208286,-0.776016,0.761979,-0.256117,-1.232488,1.460231,-8.861658
1790538644.8243,-0.014060,-0.052566,-0.207169,-0.015632,-0.051999,-0.207169,0.395631,-0.449735,0.061989,-5.026958,-0.547489,-14.838581
1790538644.8382,-0.014081,-0.049753,-0.195548,-0.014546,-0.050427,-0.195548,-0.142234,-0.015072,0.383736,-0.274288,2.315371,-10.297672
1790538644.8521,-0.018613,-0.047075,-0.185664,-0.017393,-0.048081,-0.185664,-0.168945,0.265395,0.541575,0.223975,1.683311,-9.715504
1790538644.8659,-0.017828,-0.051409,-0.177602,-0.017698,-0.050411,-0.177602,0.320354,0.088130,0.405591,-1.730752,0.790991,-5.601518
1790538644.8798,-0.026649,-0.055787,-0.169794,-0.023964,-0.054174,-0.169794,0.355565,0.462086,0.399520,2.063719,1.534591,-8.007811
1790538644.8937,-0.036979,-0.061881,-0.161456,-0.033075,-0.059569,-0.161456,0.456338,0.632066,0.505150,1.527127,1.608951,-10.375294
1790538644.9075,-0.046464,-0.068840,-0.149669,-0.042447,-0.066058,-0.149669,0.546185,0.655135,0.571928,0.147319,2.017931,-10.025993
1790538644.9210,-0.052417,-0.072365,-0.135824,-0.049426,-0.070473,-0.135824,0.325211,0.432947,0.625351,-0.235960,2.426911,-9.909560
1790538644.9349,-0.057391,-0.076283,-0.126549,-0.055001,-0.074540,-0.126549,0.275431,0.327316,0.581641,0.262303,1.274331,-9.793126
1790538644.9490,-0.057960,-0.081070,-0.117586,-0.057072,-0.079111,-0.117586,0.334924,0.028637,0.540361,0.032335,1.311511,-9.987182
1790538644.9630,-0.059745,-0.083054,-0.107504,-0.058943,-0.081871,-0.107504,0.155231,0.099058,0.497866,0.377287,1.348691,-8.822846
1790538644.9769,-0.049634,-0.083116,-0.092468,-0.052427,-0.082742,-0.092468,0.009534,-0.810335,0.684844,1.182175,1.980751,-12.393476
1790538644.9908,-0.040396,-0.080358,-0.085475,-0.044005,-0.081073,-0.085475,-0.261220,-0.795765,0.542789,2.217030,0.344831,-12.044175
1790538645.0047,-0.037188,-0.071970,-0.088342,-0.039233,-0.074701,-0.088342,-0.708024,-0.466733,0.431088,3.635166,-0.510309,-9.366203
1790538645.0188,-0.030540,-0.063163,-0.096014,-0.033148,-0.066625,-0.096014,-0.774802,-0.657353,0.177332,2.370342,-1.068009,-7.231588
1790538645.0327,-0.021378,-0.051369,-0.095909,-0.024909,-0.055946,-0.095909,-0.876790,-0.918393,0.131195,3.290214,0.530731,-7.153965
1790538645.0469,-0.016311,-0.041124,-0.094924,-0.018890,-0.045571,-0.094924,-0.663101,-0.523797,0.004924,2.561982,1.943571,-8.240679
1790538645.0610,-0.032294,-0.048642,-0.100075,-0.028273,-0.047720,-0.100075,0.429627,1.030305,-0.308325,3.941790,-1.142369,-13.402567
1790538645.0750,-0.036520,-0.049632,-0.116397,-0.034046,-0.049059,-0.116397,0.179514,0.510652,-0.917824,-1.654096,2.984611,-12.471098
1790538645.0889,-0.027703,-0.050316,-0.127468,-0.029605,-0.049939,-0.127468,0.044744,-0.498300,-0.854689,-0.350944,0.605091,-9.948371
1790538645.1029,-0.022048,-0.050900,-0.134040,-0.024316,-0.050612,-0.134040,0.140661,-0.402383,-0.457664,0.683911,1.720491,-6.494175
1790538645.1169,-0.015718,-0.062047,-0.141028,-0.018297,-0.058616,-0.141028,0.769587,-0.363531,-0.534155,-0.350944,0.456371,-10.414105
1790538645.1308,-0.001410,-0.072660,-0.152446,-0.006476,-0.068447,-0.152446,0.790227,-0.872256,-0.819479,-1.424128,1.348691,-10.957462
1790538645.1444,0.010219,-0.078258,-0.165397,0.005210,-0.075314,-0.165397,0.535258,-0.779981,-1.010099,0.108991,2.612811,-8.784035
1790538645.1581,0.011852,-0.082873,-0.173819,0.009860,-0.080606,-0.173819,0.342209,-0.185052,-0.857117,2.255358,1.051251,-10.336483
1790538645.1721,0.022696,-0.088969,-0.187307,0.018845,-0.086460,-0.187307,0.468480,-0.647640,-0.827978,-1.194160,1.460231,-9.637881
1790538645.1869,0.030615,-0.100622,-0.194651,0.027084,-0.096373,-0.194651,0.835151,-0.538367,-0.588792,0.645583,2.352551,-13.868301
1790538645.2010,0.025939,-0.099550,-0.200065,0.026282,-0.098597,-0.200065,-0.073028,0.321246,-0.461307,0.683911,1.348691,-14.799770
1790538645.2149,0.023080,-0.088093,-0.216391,0.024041,-0.091244,-0.216391,-0.874361,0.451159,-0.445523,-4.643678,0.047391,-11.811308
1790538645.2289,0.021712,-0.077256,-0.227104,0.022411,-0.081452,-0.227104,-1.022487,0.304248,-0.330179,-1.999048,-2.109048,-5.717951
1790538645.2428,0.015122,-0.066164,-0.233923,0.017309,-0.070750,-0.233923,-1.021273,0.685488,-0.282828,-1.960720,-1.700068,-5.834385
1790538645.2567,0.004051,-0.049461,-0.235614,0.008028,-0.055848,-0.235614,-1.160899,0.938030,-0.345963,-1.040848,1.162791,-6.183686
1790538645.2705,-0.006984,-0.035463,-0.233842,-0.002481,-0.041578,-0.233842,-0.944782,0.964741,-0.201480,-1.845736,1.980751,-8.279490
1790538645.2844,0.000217,-0.043715,-0.241434,-0.000593,-0.043074,-0.241434,0.432055,-0.420595,0.153049,-4.337055,-3.112908,-21.281238
1790538645.2984,-0.003090,-0.045631,-0.238198,-0.002341,-0.044864,-0.238198,0.098166,0.117270,0.529433,1.565455,0.939711,-15.614805
1790538645.3123,-0.006497,-0.045376,-0.222824,-0.005250,-0.045222,-0.222824,0.020461,0.114841,0.904603,0.377287,1.460231,-7.464455
1790538645.3260,-0.004394,-0.047553,-0.211981,-0.004651,-0.046854,-0.211981,0.195298,-0.170482,0.488153,-0.465928,1.423051,-7.736133
1790538645.3399,-0.009708,-0.051779,-0.207660,-0.008191,-0.050302,-0.207660,0.293643,0.208330,0.439587,2.217030,1.014071,-9.870749
1790538645.3538,-0.019419,-0.059634,-0.201953,-0.016050,-0.056834,-0.201953,0.534043,0.602927,0.594997,0.913879,0.865351,-11.927742
1790538645.3676,-0.030701,-0.067858,-0.187264,-0.026306,-0.064551,-0.187264,0.670027,0.815401,0.664203,-0.542584,2.129471,-8.745224
1790538645.3811,-0.038377,-0.070021,-0.169651,-0.034756,-0.068380,-0.169651,0.248720,0.591999,0.756478,-0.964192,2.352551,-8.240679
1790538645.3947,-0.044327,-0.075097,-0.158209,-0.041456,-0.073082,-0.158209,0.360421,0.391666,0.791688,0.070663,1.088431,-8.900469
1790538645.4086,-0.050111,-0.081636,-0.145983,-0.047514,-0.079070,-0.145983,0.468480,0.343100,0.730981,0.683911,1.274331,-9.327392
1790538645.4225,-0.054738,-0.085010,-0.134718,-0.052571,-0.083228,-0.134718,0.259647,0.276322,0.585284,0.683911,1.423051,-9.016902
1790538645.4367,-0.037662,-0.089741,-0.127615,-0.042135,-0.087787,-0.127615,0.223223,-1.255925,0.757692,0.530599,-0.473129,-14.101168
1790538645.4508,-0.032322,-0.084175,-0.122159,-0.035266,-0.085258,-0.122159,-0.462767,-0.508013,0.517292,2.332014,0.084571,-13.014455
1790538645.4646,-0.031216,-0.075164,-0.118716,-0.032431,-0.078192,-0.118716,-0.731093,-0.344104,0.460227,3.903462,-0.250049,-8.939280
1790538645.4785,-0.022363,-0.064361,-0.116090,-0.025383,-0.068510,-0.116090,-0.824582,-0.823690,0.189474,1.910407,0.233291,-6.261308
1790538645.4923,-0.012858,-0.052305,-0.112230,-0.016616,-0.057167,-0.112230,-0.846436,-0.920822,0.154263,2.370342,1.014071,-6.028441
1790538645.5062,-0.002580,-0.041741,-0.109153,-0.006790,-0.046369,-0.109153,-0.688598,-0.900181,0.120267,2.715294,2.724351,-10.763406
1790538645.5201,-0.013756,-0.048277,-0.111552,-0.011666,-0.047705,-0.111552,0.381062,0.776549,-0.259759,2.255358,-0.696209,-18.137532
1790538645.5341,-0.022705,-0.055122,-0.125000,-0.019394,-0.052897,-0.125000,0.549827,0.800832,-0.797624,-1.002520,2.166651,-12.238231
1790538645.5478,-0.017306,-0.055007,-0.138196,-0.017932,-0.054374,-0.138196,-0.043888,-0.140128,-1.004028,-1.769080,0.084571,-8.124245
1790538645.5618,-0.010515,-0.055671,-0.143607,-0.012740,-0.055282,-0.143607,0.104237,-0.537153,-0.413955,1.182175,1.348691,-6.843476
1790538645.5756,-0.002728,-0.066044,-0.147973,-0.005732,-0.062815,-0.147973,0.718593,-0.444878,-0.375103,-0.925864,0.270471,-7.076343
1790538645.5894,0.010149,-0.078910,-0.155556,0.005385,-0.074082,-0.155556,1.016058,-0.798193,-0.594862,-1.309144,1.943571,-8.628791
1790538645.6029,0.025243,-0.086654,-0.163065,0.019285,-0.082882,-0.163065,0.695524,-1.116299,-0.724775,0.530599,2.389731,-8.007811
1790538645.6165,0.028426,-0.093354,-0.170535,0.025684,-0.090212,-0.170535,0.564397,-0.318607,-0.779412,1.948735,2.055111,-9.172147
1790538645.6303,0.034663,-0.100453,-0.177937,0.031969,-0.097381,-0.177937,0.526759,-0.504371,-0.744202,1.412143,1.237151,-10.064805
1790538645.6442,0.026126,-0.106949,-0.184836,0.027879,-0.104078,-0.184836,0.345851,0.598070,-0.764842,1.220503,-1.551348,-14.489280
1790538645.6581,0.012911,-0.101512,-0.194876,0.017401,-0.102282,-0.194876,-0.358351,0.985381,-0.552367,-0.197632,2.092291,-15.770049
1790538645.6721,0.016874,-0.094522,-0.213729,0.017032,-0.096850,-0.213729,-0.636390,0.039565,-0.574222,-5.371910,-1.774428,-9.599070
1790538645.6868,0.013531,-0.084754,-0.223041,0.014581,-0.088383,-0.223041,-0.882860,0.441446,-0.472234,-1.922392,-1.811608,-5.485084
1790538645.7010,0.006292,-0.073928,-0.230031,0.008779,-0.078264,-0.230031,-0.960565,0.667276,-0.333822,-1.500784,-1.700068,-6.649420
1790538645.7150,-0.002238,-0.064034,-0.233066,0.001067,-0.068303,-0.233066,-0.831866,0.816616,-0.330179,-2.727279,-1.105189,-9.443825
1790538645.7289,-0.013223,-0.053056,-0.232378,-0.008936,-0.057630,-0.232378,-0.840365,1.053373,-0.377531,-3.455511,0.010211,-9.366203
1790538645.7428,-0.003423,-0.057092,-0.231698,-0.005077,-0.057253,-0.231698,0.228080,-0.525011,-0.182054,-4.260399,-0.064149,-15.614805
1790538645.7566,-0.004987,-0.059482,-0.235871,-0.005014,-0.058814,-0.235871,0.126092,-0.028427,0.401948,2.140375,0.493551,-12.781588
1790538645.7705,-0.011555,-0.060334,-0.231220,-0.009593,-0.059878,-0.231220,0.070241,0.358884,0.548860,1.412143,1.608951,-12.354665
1790538645.7845,-0.009505,-0.066351,-0.219913,-0.009532,-0.064409,-0.219913,0.231722,0.107557,0.365524,-2.842263,-1.476988,-5.135783
1790538645.7982,-0.022415,-0.071429,-0.229507,-0.018550,-0.069323,-0.229507,0.353136,0.759551,0.303603,2.063719,0.605091,-7.386832
1790538645.8121,-0.034257,-0.080881,-0.229700,-0.029545,-0.077414,-0.229700,0.654243,0.782620,0.354597,1.182175,0.716631,-11.772497
1790538645.8260,-0.047838,-0.088604,-0.213898,-0.042350,-0.085247,-0.213898,0.678526,0.912533,0.493009,0.875551,2.315371,-7.503266
1790538645.8394,-0.057076,-0.094127,-0.192512,-0.052658,-0.091463,-0.192512,0.540114,0.679418,0.581641,0.108991,2.687171,-8.201867
1790538645.8530,-0.065925,-0.098621,-0.176897,-0.061945,-0.096474,-0.176897,0.407773,0.604141,0.611995,0.760567,2.278191,-9.055714
1790538645.8669,-0.071909,-0.107293,-0.167757,-0.068920,-0.104047,-0.167757,0.594751,0.419591,0.561001,0.338959,0.753811,-9.793126
1790538645.8808,-0.063717,-0.117441,-0.163980,-0.065278,-0.113423,-0.163980,0.620248,-0.574791,0.598639,-0.235960,-0.844929,-13.557812
1790538645.8946,-0.051435,-0.114243,-0.155249,-0.055588,-0.113997,-0.155249,-0.252721,-0.952389,0.581641,1.373815,0.939711,-12.082986
1790538645.9085,-0.047557,-0.107081,-0.156669,-0.049967,-0.109156,-0.156669,-0.584181,-0.450949,0.563429,2.715294,-0.026969,-9.366203
1790538645.9223,-0.046845,-0.098990,-0.170249,-0.047781,-0.102040,-0.170249,-0.755375,-0.297967,0.425017,3.443526,-1.514168,-7.852567
1790538645.9365,-0.039330,-0.086635,-0.173586,-0.041865,-0.091256,-0.173586,-0.927784,-0.722917,0.270821,3.136902,0.010211,-9.016902
1790538645.9507,-0.032987,-0.073402,-0.175484,-0.035651,-0.078759,-0.175484,-0.992133,-0.699848,0.201615,3.941790,0.010211,-8.473546
1790538645.9646,-0.020270,-0.060896,-0.176484,-0.024884,-0.066255,-0.176484,-0.903501,-1.100515,0.180975,2.178703,0.790991,-7.153965
1790538645.9785,-0.023537,-0.056212,-0.179332,-0.023941,-0.059225,-0.179332,-0.303715,0.065062,0.115411,3.213558,1.794851,-10.685784
1790538645.9925,-0.033231,-0.064306,-0.187713,-0.030444,-0.062782,-0.187713,0.585037,0.726769,-0.483161,1.067191,1.125611,-14.295224
1790538646.0064,-0.025370,-0.065541,-0.194364,-0.026893,-0.064713,-0.194364,0.177086,-0.413310,-0.796410,-0.925864,2.092291,-9.987182
1790538646.0206,-0.020659,-0.065687,-0.202055,-0.022529,-0.065395,-0.202055,0.081168,-0.410882,-0.331393,1.297159,1.274331,-6.067252
1790538646.0346,-0.012907,-0.073805,-0.198311,-0.015794,-0.071282,-0.198311,0.564397,-0.436379,-0.267044,-1.385800,0.567911,-9.870749
1790538646.0485,0.000658,-0.084997,-0.195230,-0.004277,-0.080882,-0.195230,0.835151,-0.772696,-0.588792,-2.573967,1.274331,-9.987182
1790538646.0621,0.012984,-0.092194,-0.203555,0.007806,-0.088800,-0.203555,0.668813,-0.875898,-0.672567,0.185647,2.575631,-8.163056
1790538646.0757,0.019684,-0.096749,-0.214480,0.016120,-0.094365,-0.214480,0.450268,-0.495872,-0.774555,0.683911,2.464091,-8.822846
1790538646.0909,0.028144,-0.104065,-0.226954,0.024537,-0.101155,-0.226954,0.510975,-0.527440,-0.803695,0.070663,1.311511,-9.482637
1790538646.1056,0.032881,-0.117003,-0.234046,0.030378,-0.112248,-0.234046,0.911642,-0.287040,-0.449165,-0.695896,1.794851,-14.217602
1790538646.1201,0.017043,-0.117417,-0.240523,0.021043,-0.115867,-0.240523,0.032603,1.128650,-0.377531,-0.772552,1.348691,-19.224245
1790538646.1345,0.017779,-0.104568,-0.240294,0.018758,-0.107958,-0.240294,-0.875576,0.185262,-0.439452,-5.640206,1.311511,-13.790679
1790538646.1492,0.019330,-0.092438,-0.230677,0.019158,-0.097094,-0.230677,-1.100192,0.182833,-0.444309,-2.458983,-2.220588,-4.243126
1790538646.1632,0.008210,-0.079901,-0.240537,0.011494,-0.085059,-0.240537,-1.097764,0.851826,-0.258545,-0.312616,-1.253909,-4.980539
1790538646.1770,-0.003523,-0.064141,-0.240205,0.000982,-0.070417,-0.240205,-1.095335,1.008450,-0.417597,-1.194160,1.088431,-6.338930
1790538646.1914,-0.018243,-0.051574,-0.241824,-0.012476,-0.057227,-0.241824,-0.880432,1.241565,-0.407884,-2.037376,0.567911,-7.270399
1790538646.2055,-0.009581,-0.058625,-0.242398,-0.010449,-0.058206,-0.242398,0.481835,-0.429094,-0.358105,-3.148887,0.828171,-13.092077
1790538646.2194,-0.005053,-0.064227,-0.231295,-0.006672,-0.062421,-0.231295,0.466051,-0.278541,0.235611,-1.155832,2.055111,-10.103616
1790538646.2333,-0.010736,-0.061065,-0.222776,-0.009517,-0.061472,-0.222776,-0.199298,0.305462,0.585284,0.952207,1.720491,-10.763406
1790538646.2471,-0.010181,-0.063030,-0.220320,-0.009982,-0.062563,-0.220320,0.059314,-0.050282,0.556144,-0.657568,-0.175689,-9.948371
1790538646.2611,-0.018232,-0.070318,-0.212772,-0.015757,-0.067991,-0.212772,0.555898,0.514294,0.435944,0.415615,1.088431,-6.804665
1790538646.2749,-0.032919,-0.081604,-0.211779,-0.027770,-0.077520,-0.211779,0.795084,0.934387,0.473583,1.795423,0.716631,-9.948371
1790538646.2885,-0.044723,-0.090014,-0.198039,-0.039637,-0.086266,-0.198039,0.685811,0.863967,0.582856,-0.120976,2.055111,-9.482637
1790538646.3021,-0.056836,-0.095909,-0.183798,-0.051676,-0.093016,-0.183798,0.490334,0.859111,0.675130,0.415615,2.241011,-10.530539
1790538646.3157,-0.061919,-0.101196,-0.169860,-0.058846,-0.098742,-0.169860,0.429627,0.371025,0.667846,0.032335,2.092291,-10.996273
1790538646.3296,-0.060204,-0.108739,-0.154296,-0.059796,-0.105740,-0.154296,0.643316,-0.130415,0.586498,0.147319,2.612811,-9.016902
1790538646.3439,-0.053980,-0.110464,-0.146816,-0.055725,-0.109047,-0.146816,0.078740,-0.466733,0.537932,0.722239,0.493551,-11.772497
1790538646.3580,-0.046727,-0.105912,-0.147034,-0.049426,-0.106853,-0.147034,-0.422701,-0.677993,0.586498,3.060246,-0.584669,-11.151518
1790538646.3720,-0.046218,-0.100298,-0.156002,-0.047181,-0.102265,-0.156002,-0.563541,-0.270042,0.610781,3.865134,-1.588528,-9.715504
1790538646.3859,-0.040568,-0.091461,-0.156889,-0.042552,-0.094702,-0.156889,-0.738377,-0.593003,0.438373,2.485326,-0.547489,-7.930189
1790538646.3998,-0.038157,-0.081249,-0.157016,-0.039476,-0.085285,-0.157016,-0.752947,-0.426666,0.346098,3.596838,0.642271,-8.046623
1790538646.4137,-0.029137,-0.070310,-0.157819,-0.032239,-0.074802,-0.157819,-0.836723,-0.890468,0.137265,3.711822,0.196111,-8.589979
1790538646.4276,-0.020808,-0.056497,-0.160143,-0.024237,-0.061989,-0.160143,-0.922927,-0.835832,0.054704,3.750150,2.055111,-8.434735
1790538646.4419,-0.033030,-0.059656,-0.161342,-0.030392,-0.060356,-0.161342,0.113950,0.746195,-0.371460,4.708349,-1.625708,-15.149070
1790538646.4558,-0.036280,-0.067451,-0.168148,-0.034514,-0.065323,-0.168148,0.608106,0.542219,-0.928751,-3.762135,1.348691,-11.345574
1790538646.4698,-0.022551,-0.066278,-0.185558,-0.026140,-0.065992,-0.185558,0.236579,-0.764197,-0.801266,-1.500784,3.914111,-5.446273
1790538646.4837,-0.022470,-0.071417,-0.185692,-0.023571,-0.069789,-0.185692,0.376205,-0.198407,-0.225763,3.290214,0.790991,-8.085434
1790538646.4976,-0.013601,-0.084599,-0.191283,-0.016592,-0.080156,-0.191283,0.955351,-0.511656,-0.426096,-1.385800,0.828171,-10.336483
1790538646.5115,0.000486,-0.093424,-0.202726,-0.004637,-0.089443,-0.202726,0.770801,-0.983957,-0.641000,0.300631,2.649991,-8.900469
1790538646.5251,0.012417,-0.101381,-0.215049,0.007301,-0.097799,-0.215049,0.661528,-0.845545,-0.836477,0.223975,1.720491,-9.016902
1790538646.5387,0.015634,-0.106207,-0.220211,0.013134,-0.103684,-0.220211,0.463623,-0.379314,-0.664068,2.370342,2.055111,-7.891378
1790538646.5526,0.029581,-0.117923,-0.228021,0.024647,-0.113652,-0.228021,0.804797,-0.947533,-0.647070,-0.657568,0.047391,-10.530539
1790538646.5665,0.022091,-0.129334,-0.233925,0.022857,-0.124629,-0.233925,0.809654,0.481512,-0.613074,1.757095,0.679451,-15.071448
1790538646.5804,0.011010,-0.118847,-0.246933,0.014564,-0.120581,-0.246933,-0.694668,0.921032,-0.372674,-2.343999,1.906391,-12.432287
1790538646.5943,0.018934,-0.109493,-0.252346,0.017623,-0.112820,-0.252346,-0.813654,-0.296753,-0.399385,-4.643678,-1.885968,-9.521448
1790538646.6082,0.017769,-0.099764,-0.252536,0.017725,-0.103680,-0.252536,-0.977563,0.312747,-0.434595,-1.960720,-2.257768,-4.825294
1790538646.6222,0.010449,-0.083592,-0.256773,0.012632,-0.089618,-0.256773,-1.147543,0.783834,-0.316824,-1.922392,0.493551,-4.475993
1790538646.6361,-0.001148,-0.072986,-0.267376,0.002986,-0.077975,-0.267376,-0.915642,1.049731,-0.396957,-2.382327,-1.365448,-7.774944
1790538646.6500,-0.016102,-0.061716,-0.273620,-0.010376,-0.066594,-0.273620,-0.830652,1.281632,-0.458878,-2.037376,0.456371,-8.318301
1790538646.6639,-0.014796,-0.064772,-0.281205,-0.013470,-0.065319,-0.281205,0.066599,0.017710,-0.070353,-3.417183,-3.373168,-21.281238
1790538646.6777,-0.012008,-0.070079,-0.278062,-0.012446,-0.068651,-0.278062,0.364064,-0.246973,0.304817,0.645583,1.199971,-16.468651
1790538646.6925,-0.018518,-0.065331,-0.267759,-0.016696,-0.066327,-0.267759,-0.278218,0.341886,0.558573,0.990535,1.794851,-9.249770
1790538646.7064,-0.019592,-0.066771,-0.258315,-0.018724,-0.066638,-0.258315,0.151589,0.112413,0.303603,-0.619240,1.385871,-7.425644
1790538646.7203,-0.029486,-0.071690,-0.254088,-0.026257,-0.070175,-0.254088,0.418700,0.452373,0.231969,3.558510,1.683311,-7.464455
1790538646.7342,-0.040459,-0.081406,-0.250271,-0.036199,-0.078036,-0.250271,0.758660,0.668490,0.212542,2.140375,1.832031,-9.443825
1790538646.7481,-0.050063,-0.089933,-0.243169,-0.045904,-0.086364,-0.243169,0.671241,0.771692,0.355811,-1.002520,1.571771,-8.085434
1790538646.7616,-0.055777,-0.094193,-0.233279,-0.052815,-0.091844,-0.233279,0.389561,0.448731,0.474797,-0.427600,2.501271,-10.646972
1790538646.7750,-0.058918,-0.097668,-0.222705,-0.057087,-0.095921,-0.222705,0.315498,0.219258,0.537932,0.300631,2.278191,-10.879840
1790538646.7890,-0.062207,-0.101506,-0.212942,-0.060671,-0.099830,-0.212942,0.314284,0.213187,0.500294,0.415615,1.497411,-8.318301
1790538646.8028,-0.063885,-0.106052,-0.204593,-0.062921,-0.104186,-0.204593,0.371348,0.096629,0.391021,0.607255,1.497411,-8.784035
1790538646.8167,-0.047544,-0.107810,-0.196519,-0.052157,-0.106722,-0.196519,0.139447,-1.153937,0.511221,-0.389272,1.534591,-11.267951
1790538646.8306,-0.043350,-0.101601,-0.188349,-0.045992,-0.103137,-0.188349,-0.487050,-0.450949,0.392235,3.405198,0.382011,-13.208511
1790538646.8445,-0.040518,-0.092091,-0.183727,-0.042161,-0.095405,-0.183727,-0.769945,-0.413310,0.326672,3.865134,-0.510309,-10.414105
1790538646.8583,-0.035804,-0.081289,-0.186417,-0.037711,-0.085524,-0.186417,-0.910786,-0.608787,0.093556,3.635166,-1.068009,-6.882287
1790538646.8722,-0.025451,-0.068105,-0.184973,-0.029129,-0.073331,-0.184973,-0.905929,-0.977886,0.071702,2.676966,1.199971,-6.261308
1790538646.8860,-0.011900,-0.058572,-0.179535,-0.017069,-0.063000,-0.179535,-0.728664,-1.157579,0.106912,1.718767,0.307651,-6.028441
1790538646.8999,-0.009972,-0.056123,-0.178669,-0.012101,-0.058186,-0.178669,-0.154375,-0.211763,0.055918,2.178703,2.612811,-17.632987
1790538646.9137,-0.017385,-0.062277,-0.189010,-0.015800,-0.061050,-0.189010,0.491548,0.611426,-0.502587,-0.197632,2.278191,-13.635434
1790538646.9276,-0.009015,-0.063829,-0.204922,-0.011050,-0.062995,-0.204922,0.166158,-0.425452,-0.826763,-2.190688,2.501271,-14.760958
1790538646.9418,-0.004995,-0.066691,-0.213232,-0.006812,-0.065582,-0.213232,0.237793,-0.214191,-0.478305,-0.235960,1.125611,-7.503266
1790538646.9558,-0.000570,-0.075909,-0.219755,-0.002443,-0.072811,-0.219755,0.636031,-0.205692,-0.333822,-0.925864,0.382011,-7.231588
1790538646.9698,0.012604,-0.088945,-0.231364,0.008090,-0.084105,-0.231364,0.923783,-0.761769,-0.587577,-1.960720,0.456371,-8.046623
1790538646.9835,0.028672,-0.098085,-0.242193,0.022497,-0.093891,-0.242193,0.745304,-1.070161,-0.698064,-1.117504,2.017931,-9.366203
1790538646.9971,0.035395,-0.105823,-0.249490,0.031526,-0.102244,-0.249490,0.637246,-0.531082,-0.813408,1.028863,1.980751,-9.405014
1790538647.0110,0.044306,-0.112147,-0.257253,0.040472,-0.109176,-0.257253,0.500047,-0.657353,-0.732060,0.453943,1.460231,-8.395923
1790538647.0249,0.037848,-0.121561,-0.262313,0.038635,-0.117845,-0.262313,0.535258,0.474228,-0.525656,-0.159304,-2.443668,-15.692427
1790538647.0388,0.023603,-0.120909,-0.271686,0.028113,-0.119990,-0.271686,0.011962,1.063086,-0.480733,-0.772552,2.798711,-16.817952
1790538647.0528,0.022858,-0.109231,-0.292429,0.024435,-0.112458,-0.292429,-0.852507,0.330959,-0.546297,-6.215126,0.567911,-13.092077
1790538647.0668,0.024005,-0.099940,-0.306671,0.024134,-0.103695,-0.306671,-0.878004,0.176763,-0.556010,-2.995575,-2.183408,-6.727042
1790538647.0808,0.017963,-0.087243,-0.316116,0.019815,-0.092179,-0.316116,-1.074695,0.604141,-0.341107,-1.730752,-1.253909,-6.571797
1790538647.0946,0.008814,-0.070346,-0.320009,0.012114,-0.076896,-0.320009,-1.188824,0.833614,-0.432167,-1.654096,1.125611,-7.153965
1790538647.1086,-0.003732,-0.056716,-0.328143,0.001022,-0.062770,-0.328143,-1.010345,1.122579,-0.422454,-3.148887,0.456371,-10.452916
1790538647.1225,-0.000862,-0.047077,-0.330591,-0.000297,-0.051785,-0.330591,-0.694668,0.071132,-0.445523,-3.800463,0.976891,-9.443825
1790538647.1364,0.006321,-0.058119,-0.340364,0.004335,-0.056219,-0.340364,0.666385,-0.503157,0.047419,-0.810880,-1.923148,-19.495924
1790538647.1503,-0.000629,-0.062405,-0.325066,0.000860,-0.060549,-0.325066,0.404130,0.420805,0.370381,0.530599,1.832031,-7.037532
1790538647.1642,-0.004297,-0.060701,-0.309283,-0.002750,-0.060655,-0.309283,-0.043888,0.187690,0.562215,0.262303,1.497411,-6.300119
1790538647.1782,-0.004643,-0.067228,-0.310520,-0.004075,-0.065256,-0.310520,0.423557,0.116056,0.245324,-1.462456,0.270471,-7.774944
1790538647.1928,-0.015833,-0.073900,-0.297085,-0.012306,-0.071307,-0.297085,0.517045,0.588357,0.287819,2.523654,1.646131,-8.318301
1790538647.2068,-0.030266,-0.081189,-0.289276,-0.024878,-0.078224,-0.289276,0.552256,0.975668,0.367952,0.798895,1.608951,-10.763406
1790538647.2205,-0.038396,-0.088681,-0.282088,-0.034340,-0.085544,-0.282088,0.591108,0.657563,0.399520,-1.155832,1.720491,-10.142427
1790538647.2341,-0.045012,-0.093652,-0.265696,-0.041810,-0.091219,-0.265696,0.461195,0.442660,0.506365,0.568927,2.538451,-9.754315
1790538647.2482,-0.049422,-0.100725,-0.256965,-0.047139,-0.097873,-0.256965,0.502476,0.295749,0.546431,0.223975,0.976891,-9.405014
1790538647.2620,-0.049777,-0.108974,-0.246748,-0.048985,-0.105644,-0.246748,0.612963,0.003140,0.503936,0.530599,1.683311,-13.402567
1790538647.2758,-0.043628,-0.109023,-0.233598,-0.045235,-0.108009,-0.233598,0.011962,-0.527440,0.553716,1.833751,1.608951,-14.062357
1790538647.2898,-0.040555,-0.102332,-0.226050,-0.041959,-0.104035,-0.226050,-0.546543,-0.375672,0.511221,3.213558,-0.175689,-12.432287
1790538647.3036,-0.039132,-0.094742,-0.227633,-0.039980,-0.097530,-0.227633,-0.695883,-0.365959,0.465084,3.673494,-1.216729,-7.891378
1790538647.3175,-0.031178,-0.083570,-0.222263,-0.033818,-0.087758,-0.222263,-0.839151,-0.743557,0.216185,2.255358,0.270471,-7.542077
1790538647.3314,-0.022933,-0.070628,-0.218841,-0.026199,-0.075767,-0.218841,-0.954495,-0.826119,0.119053,3.290214,0.456371,-7.774944
1790538647.3453,-0.011177,-0.057317,-0.216460,-0.015684,-0.062852,-0.216460,-0.907143,-1.088373,0.027993,3.443526,1.683311,-7.891378
1790538647.3591,-0.013907,-0.056117,-0.215749,-0.014440,-0.058137,-0.215749,-0.194442,0.052920,-0.134702,3.865134,-1.068009,-13.324944
1790538647.3729,-0.023484,-0.062028,-0.228979,-0.020771,-0.060861,-0.228979,0.434484,0.854254,-0.690779,-1.577440,1.199971,-14.178791
1790538647.3868,-0.014427,-0.065956,-0.241952,-0.016330,-0.064427,-0.241952,0.332496,-0.531082,-0.865616,-0.657568,1.980751,-13.324944
1790538647.4007,-0.012559,-0.069225,-0.247490,-0.013691,-0.067785,-0.247490,0.294857,-0.277326,-0.406670,3.021918,1.720491,-8.939280
1790538647.4145,-0.006827,-0.079787,-0.249321,-0.008886,-0.076187,-0.249321,0.724664,-0.419381,-0.328965,0.530599,0.121751,-8.357112
1790538647.4283,0.006525,-0.086876,-0.269684,0.001902,-0.083669,-0.269684,0.667599,-0.806692,-0.639785,-1.500784,2.612811,-7.619700
1790538647.4424,0.018720,-0.095169,-0.280984,0.013675,-0.091719,-0.280984,0.623890,-0.812763,-0.790339,-0.120976,1.385871,-9.948371
1790538647.4562,0.020430,-0.101860,-0.290675,0.018403,-0.098818,-0.290675,0.566825,-0.154698,-0.766056,0.952207,1.794851,-7.969000
1790538647.4702,0.031140,-0.108493,-0.304632,0.027319,-0.105590,-0.304632,0.464837,-0.664638,-0.807337,-1.155832,0.716631,-10.142427
1790538647.4841,0.031918,-0.117856,-0.306639,0.030538,-0.114176,-0.306639,0.741662,-0.144985,-0.413955,1.680439,1.943571,-10.841028
1790538647.4979,0.015442,-0.118552,-0.302568,0.019971,-0.117239,-0.302568,0.003463,1.050945,-0.388458,3.558510,-0.175689,-13.829490
1790538647.5117,0.015709,-0.106969,-0.318948,0.016988,-0.110050,-0.318948,-0.874361,0.162193,-0.475876,-3.493839,-0.026969,-12.703965
1790538647.5256,0.015226,-0.092317,-0.333341,0.015755,-0.097637,-0.333341,-1.154828,0.236256,-0.481947,-2.152360,-0.621849,-7.153965
1790538647.5394,0.009524,-0.079422,-0.342518,0.011393,-0.084886,-0.342518,-1.154828,0.608997,-0.379959,-1.922392,-1.960328,-6.494175
1790538647.5533,-0.000965,-0.067339,-0.353515,0.002743,-0.072603,-0.353515,-0.948424,0.957456,-0.495303,-2.152360,-0.361589,-8.163056
1790538647.5673,-0.018272,-0.058162,-0.361382,-0.011967,-0.062494,-0.361382,-0.621820,1.370264,-0.384816,-0.925864,1.199971,-7.697322
1790538647.5811,-0.007591,-0.061018,-0.366843,-0.008904,-0.061461,-0.366843,0.191655,-0.634284,-0.331393,-2.612295,1.125611,-15.614805
1790538647.5950,-0.008684,-0.062380,-0.360782,-0.008750,-0.062104,-0.360782,0.117593,0.024995,0.361882,0.453943,1.646131,-11.539630
1790538647.6090,-0.013347,-0.060610,-0.351381,-0.011968,-0.061058,-0.351381,-0.147090,0.198617,0.607138,1.833751,1.088431,-13.092077
1790538647.6229,-0.012457,-0.069173,-0.346163,-0.012310,-0.066739,-0.346163,0.542542,-0.089134,0.493009,-0.197632,-0.101329,-7.891378
1790538647.6367,-0.024397,-0.074032,-0.338580,-0.020771,-0.071844,-0.338580,0.385918,0.678203,0.323029,2.676966,1.423051,-8.861658
1790538647.6506,-0.039918,-0.082544,-0.333303,-0.034174,-0.079334,-0.333303,0.625104,1.027876,0.384950,1.680439,1.423051,-11.733686
1790538647.6644,-0.050568,-0.092770,-0.326756,-0.045649,-0.088739,-0.326756,0.767159,0.829971,0.638706,-0.964192,1.311511,-8.124245
1790538647.6781,-0.058906,-0.096268,-0.315166,-0.054929,-0.094009,-0.315166,0.385918,0.604141,0.749193,-0.159304,3.244871,-8.822846
1790538647.6922,-0.062908,-0.099948,-0.305700,-0.060514,-0.098166,-0.305700,0.268146,0.298177,0.803829,-0.389272,1.423051,-8.822846
1790538647.7062,-0.065910,-0.106190,-0.297217,-0.064291,-0.103783,-0.297217,0.425985,0.224114,0.741908,-0.197632,1.014071,-9.482637
1790538647.7202,-0.060629,-0.109967,-0.291388,-0.061728,-0.108112,-0.291388,0.151589,-0.376886,0.644777,0.032335,-0.882109,-13.247322
1790538647.7341,-0.052200,-0.105423,-0.279141,-0.055058,-0.106230,-0.279141,-0.352280,-0.705919,0.616852,2.140375,1.088431,-13.324944
1790538647.7478,-0.045462,-0.096990,-0.267723,-0.048341,-0.099762,-0.267723,-0.686169,-0.610001,0.602282,2.063719,0.010211,-11.345574
1790538647.7618,-0.044245,-0.087911,-0.253497,-0.045474,-0.091467,-0.253497,-0.806369,-0.322250,0.539146,3.021918,-1.179549,-7.619700
1790538647.7757,-0.036965,-0.075960,-0.244396,-0.039517,-0.080612,-0.244396,-0.988491,-0.738700,0.297532,3.021918,-0.919289,-8.085434
1790538647.7896,-0.029072,-0.063477,-0.239879,-0.032206,-0.068618,-0.239879,-0.935068,-0.805478,0.162762,3.060246,0.344831,-7.153965
1790538647.8034,-0.016903,-0.052606,-0.237836,-0.021494,-0.057410,-0.237836,-0.749305,-1.067733,0.174904,2.255358,1.385871,-7.348021
1790538647.8173,-0.023854,-0.054497,-0.234548,-0.023146,-0.055371,-0.234548,0.083597,0.358884,-0.023001,3.635166,0.270471,-13.130889
1790538647.8311,-0.027070,-0.061164,-0.247040,-0.025893,-0.059426,-0.247040,0.531615,0.315175,-0.750272,0.530599,2.389731,-16.701518
1790538647.8450,-0.018722,-0.063794,-0.258038,-0.020873,-0.062484,-0.258038,0.219581,-0.542009,-0.804909,0.760567,1.534591,-12.781588
1790538647.8589,-0.014979,-0.062767,-0.271617,-0.016748,-0.062682,-0.271617,0.056886,-0.321036,-0.358105,1.335487,2.464091,-7.813756
1790538647.8728,-0.009598,-0.071738,-0.274831,-0.011743,-0.069021,-0.274831,0.620248,-0.288254,-0.313181,-1.002520,0.419191,-9.676693
1790538647.8866,0.003011,-0.082472,-0.290612,-0.001415,-0.078437,-0.290612,0.842436,-0.718060,-0.645856,-2.497311,2.017931,-10.646972
1790538647.9002,0.014663,-0.090304,-0.305923,0.009840,-0.086744,-0.305923,0.689454,-0.824905,-0.807337,0.262303,2.241011,-8.473546
1790538647.9137,0.020996,-0.094592,-0.321093,0.017649,-0.092237,-0.321093,0.452696,-0.471589,-0.851046,0.683911,2.426911,-7.619700
1790538647.9272,0.024391,-0.099695,-0.333177,0.022368,-0.097458,-0.333177,0.415058,-0.221476,-0.783054,0.147319,1.385871,-9.288581
1790538647.9416,0.034897,-0.109643,-0.345102,0.031138,-0.105988,-0.345102,0.691882,-0.667066,-0.699278,-0.657568,0.790991,-9.443825
1790538647.9556,0.024546,-0.117324,-0.348991,0.026524,-0.113923,-0.348991,0.525544,0.709771,-0.546297,1.028863,0.567911,-14.334035
1790538647.9695,0.018652,-0.108683,-0.362307,0.021014,-0.110255,-0.362307,-0.650959,0.653921,-0.441880,-4.873646,0.196111,-12.936833
1790538647.9834,0.022355,-0.095287,-0.371421,0.021953,-0.099778,-0.371421,-1.035842,-0.009001,-0.480733,-4.643678,-0.473129,-10.879840
1790538647.9972,0.017760,-0.084343,-0.373583,0.019018,-0.088973,-0.373583,-0.969064,0.479084,-0.447951,-1.270816,-1.291089,-6.183686
1790538648.0111,0.003231,-0.071172,-0.376151,0.007967,-0.076513,-0.376151,-1.032200,1.063086,-0.250046,0.070663,-0.250049,-5.756762
1790538648.0250,-0.007846,-0.059267,-0.381561,-0.003102,-0.064441,-0.381561,-0.925355,1.067943,-0.383602,-2.382327,-0.101329,-6.183686
1790538648.0388,-0.012128,-0.053774,-0.383046,-0.009420,-0.056974,-0.383046,-0.565969,0.582286,-0.299826,-7.134997,-3.559068,-17.283686
1790538648.0528,-0.007637,-0.061544,-0.380147,-0.008172,-0.060173,-0.380147,0.531615,-0.322250,0.219827,-0.504256,1.199971,-17.206063
1790538648.0666,-0.013304,-0.059804,-0.372670,-0.011764,-0.059915,-0.372670,-0.100953,0.406236,0.494223,-0.580912,1.534591,-9.754315
1790538648.0804,-0.014634,-0.062561,-0.367229,-0.013773,-0.061767,-0.367229,0.103023,0.162193,0.556144,-1.577440,-0.361589,-8.395923
1790538648.0943,-0.020110,-0.068929,-0.361541,-0.018209,-0.066780,-0.361541,0.480621,0.305462,0.331528,0.453943,0.530731,-3.738581
1790538648.1081,-0.033361,-0.079119,-0.354190,-0.028815,-0.075418,-0.354190,0.731949,0.757123,0.415304,2.446998,0.753811,-7.619700
1790538648.1220,-0.043877,-0.090156,-0.344789,-0.039358,-0.085734,-0.344789,0.825438,0.719484,0.616852,0.300631,1.534591,-9.288581
1790538648.1356,-0.054845,-0.096892,-0.332531,-0.050199,-0.093545,-0.332531,0.569254,0.810545,0.716411,-0.197632,2.055111,-8.395923
1790538648.1491,-0.062195,-0.100722,-0.319817,-0.058596,-0.098569,-0.319817,0.328853,0.553147,0.806258,-0.350944,2.278191,-10.530539
1790538648.1635,-0.067990,-0.105762,-0.308116,-0.065172,-0.103604,-0.308116,0.389561,0.405021,0.677559,-0.044320,1.832031,-8.861658
1790538648.1789,-0.060299,-0.114427,-0.302779,-0.061761,-0.111180,-0.302779,0.485478,-0.463090,0.590140,-0.810880,-0.175689,-12.665154
1790538648.1937,-0.055530,-0.112473,-0.292487,-0.057399,-0.112085,-0.292487,-0.205369,-0.448520,0.557359,2.791950,-0.212869,-11.850119
1790538648.2084,-0.054297,-0.107386,-0.283825,-0.055227,-0.108796,-0.283825,-0.511333,-0.265185,0.553716,3.635166,-2.034688,-10.802217
1790538648.2231,-0.050869,-0.097305,-0.276793,-0.052177,-0.100752,-0.276793,-0.820939,-0.430308,0.374023,2.983590,-1.179549,-7.813756
1790538648.2370,-0.043817,-0.084742,-0.271390,-0.046325,-0.089545,-0.271390,-0.972707,-0.705919,0.289033,2.868606,-0.064149,-8.163056
1790538648.2506,-0.032886,-0.073639,-0.266610,-0.036918,-0.078411,-0.266610,-0.912000,-0.993670,0.185831,2.983590,-0.510309,-9.055714
1790538648.2648,-0.020172,-0.062260,-0.265535,-0.025196,-0.067105,-0.265535,-0.782087,-1.124798,0.185831,2.906934,1.162791,-7.386832
1790538648.2788,-0.019675,-0.058438,-0.264077,-0.021331,-0.061038,-0.264077,-0.264862,-0.219048,0.180975,4.440053,1.832031,-14.334035
1790538648.2927,-0.030937,-0.066357,-0.265497,-0.028056,-0.064762,-0.265497,0.501262,0.834828,-0.403028,1.258831,-0.621849,-18.758511
1790538648.3065,-0.029584,-0.061248,-0.282291,-0.029126,-0.062302,-0.282291,-0.232080,0.021353,-0.729632,-0.465928,3.021791,-10.297672
1790538648.3204,-0.023163,-0.061307,-0.283238,-0.024952,-0.061605,-0.283238,-0.060886,-0.522583,-0.498945,1.488799,-0.175689,-7.037532
1790538648.3342,-0.016583,-0.066411,-0.288844,-0.019094,-0.064970,-0.288844,0.435698,-0.379314,-0.206337,-0.734224,1.274331,-6.416553
1790538648.3481,-0.008616,-0.079180,-0.294103,-0.011759,-0.074917,-0.294103,0.968706,-0.389028,-0.304682,-2.229015,1.460231,-8.628791
1790538648.3616,0.004017,-0.086486,-0.304963,-0.000716,-0.083015,-0.304963,0.683383,-0.884397,-0.458878,-0.274288,2.501271,-8.124245
1790538648.3752,0.009281,-0.089867,-0.315327,0.006282,-0.087812,-0.315327,0.368920,-0.418167,-0.576650,1.105519,2.575631,-9.094525
1790538648.3893,0.011603,-0.096160,-0.320753,0.010007,-0.093656,-0.320753,0.458767,-0.195979,-0.503802,0.913879,0.828171,-8.939280
1790538648.4033,0.018981,-0.105523,-0.334342,0.016289,-0.101963,-0.334342,0.806011,-0.385385,-0.384816,-1.999048,2.761531,-8.978091
1790538648.4171,0.001214,-0.109209,-0.327256,0.005737,-0.107035,-0.327256,0.143090,1.195428,-0.413955,2.293686,-1.625708,-11.539630
1790538648.4310,0.003441,-0.100099,-0.336694,0.004130,-0.102180,-0.336694,-0.683741,0.090559,-0.529299,-4.183743,0.047391,-10.802217
1790538648.4451,0.004181,-0.088770,-0.339839,0.004165,-0.092793,-0.339839,-0.950852,0.126983,-0.491660,-2.267343,-1.551348,-8.978091
1790538648.4594,0.003996,-0.078187,-0.337923,0.004046,-0.082569,-0.337923,-0.977563,0.259324,-0.349606,-2.152360,-1.960328,-5.058161
1790538648.4733,-0.003248,-0.063507,-0.343105,-0.001060,-0.069225,-0.343105,-1.103834,0.638137,-0.376317,-1.040848,0.196111,-8.512357
1790538648.4872,-0.013715,-0.050253,-0.348286,-0.009918,-0.055945,-0.348286,-1.109905,0.948957,-0.326537,-2.535639,-1.700068,-10.025993
1790538648.5010,-0.008087,-0.050490,-0.347803,-0.008637,-0.052126,-0.347803,-0.029318,-0.240902,-0.220906,-2.612295,0.344831,-11.500819
1790538648.5148,-0.007304,-0.055775,-0.350712,-0.007704,-0.054681,-0.350712,0.347066,-0.187480,0.178546,2.523654,0.679451,-13.247322
1790538648.5286,-0.014001,-0.052350,-0.343064,-0.012112,-0.053049,-0.343064,-0.131306,0.373454,0.513649,1.028863,2.910251,-8.900469
1790538648.5424,-0.014389,-0.050218,-0.330636,-0.013706,-0.051068,-0.330636,-0.020820,0.142767,0.399520,-1.539112,2.129471,-5.795574
1790538648.5561,-0.019788,-0.055289,-0.327993,-0.017963,-0.054022,-0.327993,0.373777,0.273894,0.306031,1.335487,1.014071,-7.969000
1790538648.5701,-0.029277,-0.062288,-0.324798,-0.025883,-0.059808,-0.324798,0.504904,0.545862,0.378880,2.063719,1.274331,-10.375294
1790538648.5839,-0.041280,-0.066917,-0.318027,-0.036661,-0.064785,-0.318027,0.453910,0.853040,0.429874,0.070663,2.389731,-7.348021
1790538648.5973,-0.048551,-0.071266,-0.311222,-0.044984,-0.069322,-0.311222,0.378633,0.548290,0.484510,-0.274288,1.943571,-8.900469
1790538648.6108,-0.056542,-0.074924,-0.302801,-0.053075,-0.073244,-0.302801,0.345851,0.526436,0.522148,0.875551,2.315371,-9.016902
1790538648.6248,-0.062816,-0.081729,-0.296410,-0.059894,-0.079183,-0.296410,0.480621,0.431733,0.496651,0.223975,1.125611,-9.133336
1790538648.6388,-0.069208,-0.087325,-0.288192,-0.066414,-0.084882,-0.288192,0.444197,0.430518,0.540361,0.453943,2.017931,-9.521448
1790538648.6527,-0.064685,-0.089508,-0.281540,-0.065204,-0.088120,-0.281540,0.277859,-0.280969,0.514864,-1.040848,4.732071,-13.324944
1790538648.6666,-0.057460,-0.089200,-0.275173,-0.059783,-0.088876,-0.275173,-0.093668,-0.573577,0.457799,1.067191,0.121751,-11.772497
1790538648.6804,-0.054958,-0.082603,-0.267408,-0.056406,-0.084485,-0.267408,-0.557470,-0.382957,0.308459,3.558510,-0.212869,-9.754315
1790538648.6946,-0.048852,-0.072891,-0.262497,-0.051118,-0.076369,-0.262497,-0.767517,-0.631856,0.144550,2.868606,-0.324409,-7.270399
1790538648.7091,-0.039856,-0.059707,-0.260468,-0.043235,-0.064705,-0.260468,-0.865862,-0.818834,-0.006003,2.830278,1.311511,-6.804665
1790538648.7231,-0.026219,-0.047280,-0.257124,-0.031324,-0.052508,-0.257124,-0.881646,-1.187933,-0.015716,2.868606,0.976891,-7.076343
1790538648.7369,-0.027026,-0.045398,-0.260821,-0.028316,-0.047531,-0.260821,-0.041460,-0.084278,-0.067925,3.290214,3.133331,-10.996273
1790538648.7509,-0.035132,-0.051018,-0.275549,-0.033087,-0.049972,-0.275549,0.478193,0.696416,-0.607004,-0.389272,2.575631,-12.742777
1790538648.7647,-0.028289,-0.051029,-0.295550,-0.029729,-0.050712,-0.295550,0.061742,-0.271256,-0.905683,-2.114032,1.980751,-12.238231
1790538648.7785,-0.023689,-0.053781,-0.300205,-0.025501,-0.052861,-0.300205,0.214724,-0.344104,-0.671353,1.488799,0.976891,-9.055714
1790538648.7925,-0.019219,-0.062558,-0.308185,-0.021104,-0.059649,-0.308185,0.609320,-0.211763,-0.501373,-0.542584,0.382011,-7.697322
1790538648.8063,-0.004607,-0.072194,-0.323901,-0.009556,-0.068430,-0.323901,0.716165,-0.857686,-0.735703,-1.692424,0.790991,-7.774944
1790538648.8198,0.008630,-0.080753,-0.335491,0.003175,-0.077056,-0.335491,0.711308,-0.915965,-0.812194,0.070663,1.720491,-7.969000
1790538648.8334,0.013620,-0.087210,-0.344676,0.010486,-0.084164,-0.344676,0.543757,-0.391456,-0.966390,1.488799,1.980751,-9.560259
1790538648.8469,0.019501,-0.091907,-0.353894,0.016796,-0.089584,-0.353894,0.390775,-0.435165,-0.842547,0.645583,1.274331,-7.930189
1790538648.8608,0.023976,-0.102306,-0.361998,0.021822,-0.098490,-0.361998,0.762302,-0.278541,-0.484375,-0.389272,1.014071,-10.103616
1790538648.8748,0.009701,-0.103169,-0.366857,0.013338,-0.101765,-0.366857,0.090882,0.992666,-0.444309,1.450471,2.129471,-17.167252
1790538648.8887,0.008561,-0.093545,-0.387907,0.009994,-0.096011,-0.387907,-0.725022,0.332173,-0.462521,-4.835318,0.270471,-12.703965
1790538648.9025,0.007984,-0.081300,-0.399660,0.008587,-0.085714,-0.399660,-1.022487,0.256896,-0.447951,-3.148887,-1.588528,-9.948371
1790538648.9164,0.005005,-0.069838,-0.405426,0.006079,-0.074601,-0.405426,-1.044341,0.426876,-0.378745,-2.075704,-1.960328,-6.455364
1790538648.9302,-0.001794,-0.055467,-0.414507,0.000568,-0.061207,-0.414507,-1.079551,0.646636,-0.406670,-1.347472,0.344831,-7.658511
1790538648.9442,-0.011459,-0.043859,-0.422463,-0.007851,-0.049063,-0.422463,-0.995776,0.912533,-0.355676,-2.650623,-1.625708,-9.172147
1790538648.9587,-0.018744,-0.029210,-0.423675,-0.015476,-0.035166,-0.423675,-1.028557,0.803260,-0.348391,-3.838791,0.679451,-8.473546
1790538648.9728,-0.008389,-0.035446,-0.428532,-0.010515,-0.035362,-0.428532,0.297286,-0.696205,0.087486,-1.654096,-2.071868,-19.030189
1790538648.9867,-0.016285,-0.046616,-0.425187,-0.014554,-0.043240,-0.425187,0.717379,0.367383,0.465084,2.485326,-0.101329,-9.405014
1790538649.0006,-0.019964,-0.043488,-0.390370,-0.018341,-0.043413,-0.390370,0.004677,0.174334,0.888819,-0.005993,3.021791,-5.135783
1790538649.0144,-0.015148,-0.045823,-0.388265,-0.016106,-0.045100,-0.388265,0.111522,-0.219048,0.423803,-1.960720,0.270471,-6.688231
1790538649.0282,-0.023421,-0.052684,-0.378220,-0.021227,-0.050409,-0.378220,0.507332,0.361312,0.469940,2.906934,1.162791,-8.163056
1790538649.0421,-0.036897,-0.061647,-0.371970,-0.032196,-0.058276,-0.371970,0.631175,0.888250,0.518506,0.990535,1.199971,-11.267951
1790538649.0557,-0.047877,-0.069094,-0.360149,-0.043172,-0.065849,-0.360149,0.672456,0.842113,0.476011,-0.542584,2.352551,-7.037532
1790538649.0692,-0.057082,-0.073975,-0.352098,-0.052909,-0.071537,-0.352098,0.399274,0.684274,0.500294,-0.120976,1.943571,-10.220049
1790538649.0829,-0.062939,-0.081221,-0.345168,-0.059930,-0.078316,-0.345168,0.506118,0.409878,0.554930,0.147319,1.014071,-9.676693
1790538649.0968,-0.065347,-0.086985,-0.332325,-0.063722,-0.084385,-0.332325,0.500047,0.159765,0.508793,0.185647,2.426911,-8.667602
1790538649.1107,-0.055023,-0.090137,-0.328093,-0.057633,-0.088411,-0.328093,0.139447,-0.754484,0.602282,-0.120976,0.010211,-14.101168
1790538649.1244,-0.049631,-0.085056,-0.319040,-0.052032,-0.086063,-0.319040,-0.439699,-0.573577,0.485724,3.520182,0.084571,-11.850119
1790538649.1382,-0.049167,-0.078645,-0.315032,-0.050026,-0.080870,-0.315032,-0.613321,-0.287040,0.439587,4.056774,-1.291089,-9.133336
1790538649.1521,-0.041055,-0.070921,-0.315318,-0.043747,-0.073906,-0.315318,-0.748091,-0.786052,0.197973,2.523654,-1.551348,-6.959909
1790538649.1659,-0.034122,-0.059571,-0.312466,-0.037010,-0.063872,-0.312466,-0.853721,-0.755698,0.117839,3.290214,0.419191,-6.959909
1790538649.1799,-0.024275,-0.047617,-0.310225,-0.028095,-0.052494,-0.310225,-0.864648,-0.902610,0.051061,3.098574,0.902531,-8.512357
1790538649.1939,-0.027218,-0.042893,-0.312797,-0.027481,-0.045773,-0.312797,-0.340139,0.147623,-0.190553,3.443526,2.092291,-19.340679
1790538649.2079,-0.032922,-0.045520,-0.323858,-0.031290,-0.045596,-0.323858,0.208653,0.576215,-0.717491,-1.117504,1.274331,-11.462007
1790538649.2223,-0.023819,-0.048349,-0.336633,-0.026060,-0.047523,-0.336633,0.218366,-0.427880,-0.931180,-1.615768,1.199971,-11.345574
1790538649.2363,-0.015366,-0.052351,-0.343383,-0.018574,-0.050903,-0.343383,0.287573,-0.346533,-0.472234,-2.497311,0.679451,-7.153965
1790538649.2502,-0.008184,-0.062355,-0.348088,-0.011301,-0.058919,-0.348088,0.710094,-0.432737,-0.379959,-0.619240,0.790991,-9.831937
1790538649.2641,0.003973,-0.070602,-0.356810,-0.000609,-0.067097,-0.356810,0.671241,-0.707133,-0.741773,-1.500784,2.055111,-9.094525
1790538649.2779,0.016665,-0.077177,-0.367067,0.011482,-0.074153,-0.367067,0.525544,-0.890468,-0.915396,0.683911,1.794851,-9.987182
1790538649.2915,0.016632,-0.081740,-0.375880,0.015087,-0.079464,-0.375880,0.433270,-0.108561,-0.846190,2.561982,2.315371,-8.434735
1790538649.3050,0.025386,-0.088371,-0.385018,0.022296,-0.085699,-0.385018,0.552256,-0.594218,-0.691994,-0.159304,1.497411,-7.542077
1790538649.3188,0.038173,-0.097276,-0.395131,0.033410,-0.093803,-0.395131,0.745304,-0.820048,-0.590006,-1.385800,2.464091,-9.288581
1790538649.3326,0.029218,-0.103963,-0.399210,0.030476,-0.100915,-0.399210,0.423557,0.579858,-0.522014,1.872079,-0.138509,-12.936833
1790538649.3465,0.022763,-0.094023,-0.411969,0.025077,-0.096090,-0.411969,-0.738377,0.640565,-0.486804,-3.072231,0.679451,-11.927742
1790538649.3605,0.026595,-0.081508,-0.424840,0.026139,-0.085883,-0.424840,-1.049198,-0.091563,-0.490446,-2.420655,-1.551348,-8.822846
1790538649.3745,0.023255,-0.072457,-0.436795,0.024120,-0.076484,-0.436795,-0.896216,0.426876,-0.440666,-1.730752,-2.071868,-5.989630
1790538649.3885,0.012885,-0.061171,-0.446259,0.016256,-0.065765,-0.446259,-0.935068,0.866395,-0.412741,-1.002520,-0.696209,-6.921098
1790538649.4023,0.003010,-0.050679,-0.450878,0.006984,-0.055205,-0.450878,-0.811226,0.884608,-0.345963,-1.807408,0.233291,-8.434735
1790538649.4162,0.001474,-0.038497,-0.448851,0.003127,-0.043509,-0.448851,-0.833081,0.284821,-0.297397,-2.343999,1.980751,-10.025993
1790538649.4302,0.012909,-0.044164,-0.450691,0.009974,-0.043968,-0.450691,0.306999,-0.753270,0.104484,-3.263871,-0.956469,-21.164805
1790538649.4439,0.009075,-0.048576,-0.444561,0.009345,-0.047194,-0.444561,0.319140,0.128197,0.627779,1.220503,1.051251,-9.948371
1790538649.4576,0.007398,-0.051544,-0.435043,0.007982,-0.050239,-0.435043,0.197726,0.027423,0.807472,-0.005993,0.605091,-7.774944
1790538649.4720,0.005465,-0.058590,-0.427340,0.006220,-0.056085,-0.427340,0.449053,0.272680,0.270821,-1.309144,0.121751,-4.398371
1790538649.4859,-0.009815,-0.067541,-0.428645,-0.005004,-0.064104,-0.428645,0.642102,0.978096,0.197973,1.987063,1.051251,-10.569350
1790538649.4998,-0.022512,-0.080672,-0.425231,-0.017260,-0.075702,-0.425231,0.940781,0.854254,0.383736,0.952207,1.088431,-12.742777
1790538649.5134,-0.031893,-0.085296,-0.405059,-0.027503,-0.082418,-0.405059,0.502476,0.655135,0.535504,0.223975,3.133331,-8.279490
1790538649.5269,-0.040322,-0.090290,-0.388783,-0.036477,-0.087929,-0.388783,0.462409,0.634494,0.664203,-0.389272,2.017931,-7.697322
1790538649.5407,-0.043862,-0.097403,-0.378337,-0.041646,-0.094561,-0.378337,0.508546,0.231399,0.658132,0.108991,0.939711,-8.978091
1790538649.5546,-0.049274,-0.108109,-0.369033,-0.046986,-0.104044,-0.369033,0.797512,0.346743,0.443229,0.683911,1.199971,-8.706413
1790538649.5687,-0.043233,-0.110918,-0.356990,-0.044359,-0.108856,-0.356990,0.222009,-0.521369,0.571928,2.102047,1.980751,-14.062357
1790538649.5825,-0.036737,-0.104020,-0.350709,-0.039024,-0.105471,-0.350709,-0.542901,-0.623357,0.522148,3.021918,0.307651,-12.082986
1790538649.5964,-0.038929,-0.096815,-0.359880,-0.038958,-0.099412,-0.359880,-0.686169,-0.154698,0.442015,4.555037,-1.700068,-7.619700
1790538649.6102,-0.034505,-0.087058,-0.360250,-0.035841,-0.090764,-0.360250,-0.816083,-0.509228,0.188259,3.098574,-0.882109,-9.133336
1790538649.6242,-0.030224,-0.074673,-0.359572,-0.031909,-0.079500,-0.359572,-0.895002,-0.572363,0.177332,4.133430,0.753811,-8.318301
1790538649.6380,-0.025391,-0.063087,-0.358704,-0.027346,-0.068011,-0.358704,-0.893788,-0.639141,0.041348,4.899989,0.047391,-8.745224
1790538649.6519,-0.020772,-0.050582,-0.361231,-0.022744,-0.055811,-0.361231,-0.874361,-0.601502,0.001282,4.171758,1.274331,-7.891378
1790538649.6658,-0.038971,-0.054048,-0.359774,-0.034103,-0.054577,-0.359774,0.141876,1.214854,-0.310753,4.018446,-1.365448,-14.411658
1790538649.6797,-0.021817,-0.064191,-0.362394,-0.025503,-0.061307,-0.362394,0.744090,-0.903824,-0.827978,-3.570495,0.716631,-8.512357
1790538649.6936,-0.027375,-0.064446,-0.384890,-0.026813,-0.063504,-0.384890,0.168587,0.181619,-0.359319,3.941790,2.687171,-7.386832
1790538649.7075,-0.026495,-0.068762,-0.387875,-0.026590,-0.067185,-0.387875,0.298500,-0.032070,-0.344749,0.300631,0.530731,-8.861658
1790538649.7215,-0.012447,-0.073319,-0.396653,-0.016690,-0.071479,-0.396653,0.388346,-0.852830,-0.558438,-1.539112,1.794851,-9.909560
1790538649.7358,-0.006054,-0.082886,-0.406147,-0.009245,-0.079464,-0.406147,0.683383,-0.446092,-0.657998,0.952207,0.865351,-9.288581
1790538649.7495,0.000573,-0.090116,-0.420492,-0.002372,-0.086921,-0.420492,0.615391,-0.492230,-0.678638,0.837223,1.720491,-8.085434
1790538649.7631,0.008988,-0.096079,-0.433591,0.005580,-0.093331,-0.433591,0.495191,-0.568721,-0.706563,-0.044320,1.385871,-8.512357
1790538649.7770,0.017224,-0.104987,-0.440902,0.013731,-0.101490,-0.440902,0.640888,-0.599074,-0.590006,0.530599,0.642271,-9.793126
1790538649.7908,0.017601,-0.114280,-0.454551,0.016440,-0.110443,-0.454551,0.840007,-0.033284,-0.287684,0.262303,3.542311,-10.220049
1790538649.8047,0.003246,-0.110052,-0.467345,0.007204,-0.110170,-0.467345,-0.228438,1.236709,-0.529299,-4.490366,2.910251,-15.071448
1790538649.8186,0.009131,-0.097056,-0.468063,0.008553,-0.100990,-0.468063,-0.949638,-0.129201,-0.529299,-5.371910,0.493551,-10.918651
1790538649.8324,0.006392,-0.089846,-0.464498,0.007040,-0.093189,-0.464498,-0.676456,0.398951,-0.393315,-2.650623,-1.700068,-8.628791
1790538649.8463,0.002565,-0.077527,-0.467325,0.003907,-0.082226,-0.467325,-0.835509,0.463300,-0.137131,-1.462456,0.865351,-4.786483
1790538649.8602,-0.002238,-0.068069,-0.465892,-0.000394,-0.072316,-0.465892,-0.807584,0.624781,-0.194195,-2.727279,-0.807749,-5.795574
1790538649.8740,-0.015236,-0.057597,-0.470694,-0.010784,-0.062013,-0.470694,-0.813654,1.131078,-0.224549,-2.037376,0.010211,-7.813756
1790538649.8879,-0.005850,-0.061668,-0.471678,-0.007330,-0.061771,-0.471678,0.162516,-0.590575,0.049847,-2.343999,-1.774428,-15.498371
1790538649.9018,-0.000221,-0.062431,-0.462172,-0.002354,-0.062233,-0.462172,0.067813,-0.491015,0.593783,0.530599,1.720491,-13.169700
1790538649.9156,-0.006261,-0.063608,-0.454582,-0.005089,-0.063196,-0.454582,0.044744,0.322460,0.688486,1.028863,0.493551,-11.927742
1790538649.9294,-0.009654,-0.069404,-0.447824,-0.008285,-0.067542,-0.447824,0.422342,0.174334,0.499080,0.338959,0.716631,-6.571797
1790538649.9433,-0.019194,-0.076084,-0.441730,-0.015922,-0.073521,-0.441730,0.526759,0.549504,0.327886,1.680439,1.385871,-7.930189
1790538649.9571,-0.029727,-0.085868,-0.435867,-0.025585,-0.082164,-0.435867,0.711308,0.690345,0.456585,0.913879,1.051251,-10.025993
1790538649.9706,-0.040381,-0.093198,-0.426115,-0.035942,-0.089888,-0.426115,0.626318,0.754694,0.577999,0.338959,2.241011,-9.327392
1790538649.9845,-0.048054,-0.098559,-0.414464,-0.044421,-0.095958,-0.414464,0.444197,0.538577,0.726124,-0.044320,2.166651,-9.909560
1790538649.9982,-0.053507,-0.106628,-0.405178,-0.050781,-0.103427,-0.405178,0.574110,0.402593,0.712769,-0.197632,0.865351,-9.094525
1790538650.0122,-0.061009,-0.113956,-0.395721,-0.057941,-0.110797,-0.395721,0.532829,0.508223,0.616852,0.492271,1.125611,-8.861658
1790538650.0263,-0.046138,-0.121725,-0.390576,-0.049679,-0.118447,-0.390576,0.378633,-0.948747,0.643563,-2.382327,-2.369308,-13.014455
1790538650.0402,-0.039289,-0.116667,-0.378520,-0.042406,-0.117201,-0.378520,-0.334068,-0.628214,0.517292,3.366870,2.017931,-14.372847
1790538650.0544,-0.039512,-0.109808,-0.368812,-0.040381,-0.112026,-0.368812,-0.610893,-0.211763,0.439587,4.248414,-1.439808,-10.142427
1790538650.0683,-0.038940,-0.101175,-0.361235,-0.039372,-0.104430,-0.361235,-0.767517,-0.312537,0.270821,4.171758,-1.588528,-7.852567
1790538650.0822,-0.034758,-0.087469,-0.360030,-0.036142,-0.092557,-0.360030,-1.010345,-0.531082,0.092342,3.673494,0.382011,-8.357112
1790538650.0960,-0.030097,-0.074371,-0.357236,-0.031910,-0.079827,-0.357236,-1.012774,-0.584504,0.061989,3.903462,-0.175689,-8.279490
1790538650.1099,-0.019302,-0.060308,-0.360125,-0.023085,-0.066164,-0.360125,-0.989705,-1.021596,-0.007217,3.366870,1.051251,-7.192776
1790538650.1237,-0.016739,-0.052475,-0.361426,-0.018642,-0.056581,-0.361426,-0.576897,-0.294324,-0.112848,3.136902,1.385871,-14.256413
1790538650.1376,-0.012989,-0.061253,-0.367098,-0.014685,-0.059851,-0.367098,0.665171,-0.009001,-0.552367,-4.413711,1.869211,-13.014455
1790538650.1515,-0.012263,-0.066997,-0.384202,-0.012989,-0.064853,-0.384202,0.560755,0.107557,-0.648284,-1.845736,4.100011,-12.238231
1790538650.1654,-0.013067,-0.070861,-0.390665,-0.013044,-0.069059,-0.390665,0.286358,0.040779,-0.492874,1.297159,1.014071,-10.414105
1790538650.1793,-0.005983,-0.073241,-0.397628,-0.008101,-0.071987,-0.397628,0.191655,-0.480088,-0.480733,0.262303,0.939711,-8.046623
1790538650.1933,0.002001,-0.082002,-0.401796,-0.001029,-0.078997,-0.401796,0.586252,-0.526226,-0.564509,0.032335,0.084571,-6.998721
1790538650.2069,0.009866,-0.092902,-0.409391,0.006597,-0.088731,-0.409391,0.802369,-0.574791,-0.611860,0.492271,0.605091,-8.085434
1790538650.2205,0.023824,-0.099567,-0.425591,0.018656,-0.096316,-0.425591,0.599607,-0.962103,-0.716276,-0.389272,2.129471,-8.163056
1790538650.2345,0.033033,-0.106674,-0.439340,0.028720,-0.103567,-0.439340,0.571682,-0.677993,-0.780626,0.760567,1.794851,-9.133336
1790538650.2494,0.038921,-0.115229,-0.454640,0.035861,-0.111730,-0.454640,0.721021,-0.420595,-0.564509,0.837223,4.323091,-12.238231
1790538650.2665,0.016831,-0.105918,-0.463524,0.022540,-0.107662,-0.463524,-0.545329,1.296202,-0.457664,0.530599,1.348691,-15.964105
1790538650.2806,0.013809,-0.091509,-0.464015,0.016428,-0.096355,-0.464015,-1.091693,0.493654,-0.429739,-5.256926,-0.584669,-10.957462
1790538650.2949,0.007874,-0.081116,-0.459443,0.010440,-0.085688,-0.459443,-0.901073,0.638137,-0.410313,-2.229015,-1.439808,-6.338930
1790538650.3096,0.001613,-0.069444,-0.461157,0.004261,-0.074317,-0.461157,-0.927784,0.601712,-0.379959,-1.884064,-1.068009,-7.658511
1790538650.3235,-0.010590,-0.060568,-0.465479,-0.006135,-0.064693,-0.465479,-0.657030,0.968383,-0.235476,-0.695896,0.530731,-7.736133
1790538650.3373,-0.008829,-0.059161,-0.468334,-0.008021,-0.060821,-0.468334,-0.161660,0.051706,-0.298612,-3.033903,-0.026969,-12.859210
1790538650.3513,-0.002954,-0.060233,-0.464021,-0.004474,-0.060409,-0.464021,0.110308,-0.265185,0.202829,-3.570495,1.980751,-11.733686
1790538650.3651,-0.008197,-0.058348,-0.457556,-0.007080,-0.058966,-0.457556,-0.166517,0.277536,0.517292,1.028863,0.716631,-11.306763
1790538650.3789,-0.008813,-0.060801,-0.450544,-0.008293,-0.060250,-0.450544,0.113950,-0.104918,0.530647,1.795423,0.084571,-10.802217
1790538650.3928,-0.012237,-0.070099,-0.445344,-0.011054,-0.067144,-0.445344,0.620248,0.338244,0.329100,-1.002520,0.084571,-5.329839
1790538650.4067,-0.022033,-0.077652,-0.440196,-0.018739,-0.074500,-0.440196,0.565611,0.623567,0.433516,0.798895,1.125611,-8.124245
1790538650.4206,-0.033203,-0.086388,-0.431815,-0.028864,-0.082821,-0.431815,0.614177,0.752266,0.667846,0.415615,0.902531,-10.879840
1790538650.4342,-0.042347,-0.094743,-0.420569,-0.038302,-0.091166,-0.420569,0.638460,0.647850,0.820827,-0.120976,1.534591,-9.327392
1790538650.4476,-0.049720,-0.100807,-0.408763,-0.046295,-0.097915,-0.408763,0.479407,0.542219,0.852395,-0.274288,1.832031,-10.452916
1790538650.4616,-0.056892,-0.105495,-0.397402,-0.053713,-0.103221,-0.397402,0.356779,0.498510,0.786831,0.070663,1.608951,-9.676693
1790538650.4755,-0.062261,-0.115809,-0.387290,-0.059696,-0.112033,-0.387290,0.717379,0.403807,0.763763,-0.350944,0.976891,-11.229140
1790538650.4894,-0.061641,-0.119353,-0.376548,-0.061058,-0.117157,-0.376548,0.235364,-0.153484,0.653276,2.600310,1.125611,-13.169700
1790538650.5038,-0.051704,-0.112051,-0.365947,-0.054510,-0.113583,-0.365947,-0.541686,-0.783624,0.632635,1.833751,0.790991,-11.850119
1790538650.5177,-0.051143,-0.106912,-0.353369,-0.052153,-0.108913,-0.353369,-0.513761,-0.329535,0.743122,4.056774,-1.068009,-7.852567
1790538650.5316,-0.048525,-0.097002,-0.345440,-0.049613,-0.100576,-0.345440,-0.836723,-0.470375,0.461441,4.018446,-0.956469,-7.580888
1790538650.5455,-0.041259,-0.083994,-0.340171,-0.043765,-0.088968,-0.340171,-1.011559,-0.724131,0.295104,2.983590,-0.175689,-8.434735
1790538650.5595,-0.033504,-0.069140,-0.339695,-0.036582,-0.075088,-0.339695,-1.105048,-0.784838,0.099627,3.520182,0.307651,-8.279490
1790538650.5734,-0.027198,-0.054330,-0.344354,-0.030013,-0.060558,-0.344354,-1.040699,-0.665852,-0.033929,3.366870,1.199971,-8.085434
1790538650.5872,-0.044510,-0.060674,-0.342823,-0.040161,-0.060639,-0.342823,0.377419,1.178430,-0.319252,3.405198,-0.770569,-14.217602
1790538650.6011,-0.041560,-0.066801,-0.357481,-0.041140,-0.064952,-0.357481,0.520688,0.062633,-0.943321,-3.148887,1.869211,-11.888930
1790538650.6151,-0.036608,-0.061273,-0.397454,-0.037967,-0.062377,-0.397454,-0.036603,-0.385385,-0.655569,1.182175,3.765391,-4.747672
1790538650.6289,-0.041276,-0.063038,-0.385506,-0.040283,-0.062839,-0.385506,0.150375,0.084488,-0.279185,4.286742,1.051251,-7.348021
1790538650.6427,-0.027491,-0.070559,-0.393444,-0.031329,-0.068243,-0.393444,0.558326,-0.745985,-0.566937,-2.995575,0.828171,-9.637881
1790538650.6565,-0.013623,-0.082539,-0.404661,-0.018935,-0.078250,-0.404661,0.915284,-0.931749,-0.681066,-0.159304,1.199971,-9.366203
1790538650.6699,-0.005660,-0.090546,-0.418501,-0.009642,-0.086857,-0.418501,0.700381,-0.635498,-0.713848,1.450471,1.943571,-8.279490
1790538650.6836,0.000878,-0.094207,-0.434525,-0.002278,-0.092002,-0.434525,0.368920,-0.476446,-0.741773,0.683911,1.757671,-7.736133
1790538650.6975,0.009800,-0.101769,-0.445881,0.006177,-0.098839,-0.445881,0.555898,-0.596646,-0.783054,0.032335,0.865351,-10.258860
1790538650.7114,0.005758,-0.114254,-0.457454,0.005884,-0.109629,-0.457454,0.938353,0.346743,-0.438238,-0.542584,1.237151,-10.414105
1790538650.7253,-0.011050,-0.113234,-0.474944,-0.005970,-0.112153,-0.474944,-0.009892,1.339911,-0.610646,-2.497311,2.464091,-17.050819
1790538650.7395,-0.009414,-0.100081,-0.482571,-0.008381,-0.103703,-0.482571,-0.928998,0.175549,-0.662854,-5.985158,0.605091,-13.169700
1790538650.7540,-0.005379,-0.092502,-0.468982,-0.006279,-0.095863,-0.468982,-0.688598,0.029852,-0.530513,-3.417183,-1.662888,-6.261308
1790538650.7680,-0.010307,-0.079918,-0.473321,-0.009099,-0.084701,-0.473321,-0.973921,0.555575,-0.273115,-1.999048,-0.361589,-6.649420
1790538650.7820,-0.013413,-0.061995,-0.482688,-0.012119,-0.068807,-0.482688,-1.236176,0.409878,-0.428525,-1.577440,1.051251,-6.649420
1790538650.7960,-0.021654,-0.049027,-0.488843,-0.018793,-0.054961,-0.488843,-1.009131,0.832399,-0.316824,-2.420655,-0.250049,-7.503266
1790538650.8101,-0.018108,-0.041777,-0.491601,-0.018314,-0.045732,-0.491601,-0.586610,0.006783,-0.239119,-4.567022,-0.212869,-11.656063
1790538650.8239,-0.014592,-0.050396,-0.489408,-0.015708,-0.048996,-0.489408,0.383490,-0.209334,0.285391,-1.347472,-3.187268,-11.151518
1790538650.8378,-0.018728,-0.054032,-0.481669,-0.017822,-0.052522,-0.481669,0.256005,0.176763,0.556144,1.450471,1.423051,-11.927742
1790538650.8516,-0.017492,-0.058018,-0.469605,-0.017591,-0.056369,-0.469605,0.266932,0.035922,0.561001,-2.190688,0.642271,-7.348021
1790538650.8654,-0.022575,-0.060058,-0.461427,-0.021080,-0.058951,-0.461427,0.235364,0.402593,0.222255,-0.427600,1.646131,-6.377742
1790538650.8792,-0.034425,-0.068232,-0.456488,-0.030421,-0.065448,-0.456488,0.594751,0.741339,0.330314,2.025391,1.311511,-11.190329
1790538650.8927,-0.048385,-0.078220,-0.446928,-0.042996,-0.074388,-0.446928,0.778086,0.899177,0.524577,1.603783,1.460231,-7.969000
1790538650.9064,-0.057194,-0.085600,-0.432953,-0.052935,-0.082237,-0.432953,0.694310,0.656349,0.561001,-0.235960,2.984611,-7.658511
1790538650.9201,-0.066657,-0.090863,-0.420777,-0.062541,-0.088275,-0.420777,0.458767,0.625995,0.576785,1.028863,2.612811,-10.025993
1790538650.9339,-0.073271,-0.095906,-0.408724,-0.070052,-0.093617,-0.408724,0.438126,0.405021,0.535504,1.373815,2.501271,-9.831937
1790538650.9479,-0.060663,-0.099577,-0.398215,-0.063480,-0.097789,-0.398215,0.279074,-0.946319,0.552502,0.875551,2.092291,-12.781588
1790538650.9616,-0.058124,-0.095862,-0.387894,-0.059731,-0.096440,-0.387894,-0.313428,-0.348961,0.360668,3.788478,0.419191,-12.665154
1790538650.9755,-0.053418,-0.090679,-0.381259,-0.055312,-0.092408,-0.381259,-0.479765,-0.493444,0.282962,3.213558,-0.844929,-11.462007
1790538650.9893,-0.050805,-0.084420,-0.382269,-0.052157,-0.086816,-0.382269,-0.612107,-0.441236,-0.013288,3.788478,-1.551348,-7.153965
1790538651.0034,-0.044832,-0.074723,-0.378801,-0.047030,-0.078351,-0.378801,-0.699525,-0.628214,0.105698,2.600310,0.530731,-6.494175
1790538651.0174,-0.036930,-0.066393,-0.375851,-0.039960,-0.069981,-0.375851,-0.683741,-0.709561,-0.088565,2.102047,-0.398769,-6.959909
1790538651.0313,-0.029006,-0.055048,-0.375760,-0.032292,-0.059528,-0.375760,-0.879218,-0.837046,0.075344,3.788478,0.010211,-7.503266
1790538651.0453,-0.041874,-0.055843,-0.375972,-0.038999,-0.056949,-0.375972,-0.018391,0.913747,-0.297397,2.370342,-0.807749,-20.427392
1790538651.0592,-0.043986,-0.059327,-0.387872,-0.042490,-0.058614,-0.387872,0.275431,0.340672,-0.704135,-1.999048,1.274331,-14.256413
1790538651.0731,-0.030237,-0.061454,-0.405047,-0.033913,-0.060602,-0.405047,0.279074,-0.800622,-0.554796,-1.692424,2.352551,-8.240679
1790538651.0869,-0.029611,-0.067885,-0.405269,-0.030902,-0.065700,-0.405269,0.424771,-0.096419,-0.214836,0.990535,0.121751,-6.494175
1790538651.1007,-0.019580,-0.080333,-0.409598,-0.022977,-0.075943,-0.409598,0.886145,-0.634284,-0.409098,-0.619240,0.307651,-8.124245
1790538651.1147,-0.006954,-0.096737,-0.415811,-0.011761,-0.090499,-0.415811,1.120474,-0.800622,-0.630072,-0.734224,-0.287229,-9.016902
1790538651.1283,0.005502,-0.109066,-0.431330,0.000323,-0.103496,-0.431330,1.006345,-0.920822,-0.842547,0.683911,1.646131,-7.658511
1790538651.1419,0.019621,-0.117999,-0.443193,0.013831,-0.113648,-0.443193,0.724664,-1.124798,-0.674996,1.565455,1.423051,-8.240679
1790538651.1558,0.022895,-0.134253,-0.452463,0.020176,-0.128072,-0.452463,1.224890,-0.267613,-0.469806,0.568927,1.199971,-8.861658
1790538651.1698,0.004979,-0.133637,-0.463510,0.009538,-0.131968,-0.463510,0.015605,1.318056,-0.432167,-0.695896,2.538451,-18.486833
