t,imu_roll,imu_pitch,imu_yaw,lpf_roll,lpf_pitch,lpf_yaw,gyro_x,gyro_y,gyro_z,acc_x,acc_y,acc_z
1790545849.7549,-0.039810,0.002205,-0.011979,-0.027867,0.001543,-0.011979,-0.008495,-0.001680,-0.005026,0.147319,1.497411,-9.793126
1790545849.7709,-0.029792,-0.006969,-0.006439,-0.029215,-0.004415,-0.006439,0.014573,0.003176,0.003473,-0.082648,1.348691,-9.987182
1790545849.7859,-0.031201,-0.009057,-0.006331,-0.030605,-0.007664,-0.006331,-0.012138,-0.011394,0.004687,0.070663,1.385871,-10.064805
1790545849.8006,-0.030862,-0.011597,-0.005586,-0.030785,-0.010417,-0.005586,0.010931,-0.017464,0.001045,0.032335,1.348691,-10.181238
1790545849.8145,-0.031826,-0.012404,-0.005934,-0.031514,-0.011808,-0.005934,0.025501,0.025031,-0.008668,0.070663,1.385871,-10.103616
1790545849.8285,-0.035045,-0.013872,-0.007237,-0.033986,-0.013253,-0.007237,-0.003639,-0.006537,-0.008668,0.262303,1.385871,-10.685784
1790545849.8427,-0.035173,-0.013536,-0.007712,-0.034817,-0.013451,-0.007712,-0.013352,-0.025963,-0.011097,0.108991,1.385871,-9.987182
1790545849.8570,-0.038329,-0.008264,-0.011862,-0.037275,-0.009820,-0.011862,-0.027922,-0.002895,0.013186,0.338959,1.794851,-10.064805
1790545849.8710,-0.036780,-0.001116,-0.014547,-0.036928,-0.003727,-0.014547,-0.117768,-0.067244,0.078750,0.032335,1.980751,-10.103616
1790545849.8852,-0.034738,0.007411,-0.015419,-0.035395,0.004070,-0.015419,-0.169976,-0.146163,0.214734,0.032335,2.055111,-9.482637
1790545849.8992,-0.038621,0.005616,-0.005212,-0.037653,0.005152,-0.005212,-0.059489,-0.062387,0.379857,0.492271,1.274331,-9.715504
1790545849.9132,-0.045683,0.001593,0.009232,-0.043274,0.002661,0.009232,0.020644,0.004390,0.552265,0.798895,1.088431,-9.637881
1790545849.9272,-0.052785,-0.004442,0.025184,-0.049931,-0.002311,0.025184,0.131131,0.117306,0.665180,0.683911,0.902531,-9.133336
1790545849.9412,-0.041947,0.000081,0.026680,-0.044342,-0.000637,0.026680,0.003646,-0.051460,0.593546,-1.232488,1.943571,-8.978091
1790545849.9552,-0.034336,-0.007409,0.037019,-0.037338,-0.005378,0.037019,0.001218,-0.170446,0.444207,-0.849208,0.419191,-10.646972
1790545849.9693,-0.029502,-0.014354,0.043625,-0.031853,-0.011661,0.043625,0.042499,-0.151020,0.343433,-0.542584,0.456371,-11.035084
1790545849.9832,-0.026259,-0.019302,0.049089,-0.027937,-0.017010,0.049089,0.069210,-0.114596,0.304580,-0.389272,0.716631,-10.569350
1790545849.9972,-0.024262,-0.022653,0.052825,-0.025364,-0.020960,0.052825,0.152986,-0.142521,0.258443,-0.120976,1.125611,-10.452916
1790545850.0107,-0.024512,-0.019829,0.059066,-0.024767,-0.020168,0.059066,-0.032778,0.069954,0.129744,-0.159304,1.460231,-8.357112
1790545850.0245,-0.022770,-0.019538,0.061583,-0.023369,-0.019727,0.061583,0.002432,-0.101240,0.071465,-0.120976,1.199971,-8.706413
1790545850.0385,-0.023431,-0.017976,0.061136,-0.023412,-0.018501,0.061136,-0.018208,-0.061173,0.044754,0.223975,1.460231,-9.133336
1790545850.0525,-0.023949,-0.013497,0.060297,-0.023788,-0.014998,0.060297,-0.128695,-0.172874,0.081178,0.568927,2.017931,-10.336483
1790545850.0664,-0.020406,-0.003934,0.063650,-0.021420,-0.007253,0.063650,-0.332671,-0.402347,0.181952,0.300631,2.612811,-10.064805
1790545850.0804,-0.016696,0.007515,0.067710,-0.018113,0.003085,0.067710,-0.489296,-0.539545,0.242659,0.645583,2.649991,-9.870749
1790545850.0946,-0.023103,0.004940,0.069768,-0.021606,0.004383,0.069768,-0.086200,0.301855,-0.041450,0.760567,1.014071,-15.459560
1790545850.1089,-0.020799,0.000048,0.056875,-0.021041,0.001349,0.056875,0.696921,0.445124,-0.368054,-2.497311,3.393591,-11.850119
1790545850.1230,-0.014417,0.009444,0.046956,-0.016404,0.007016,0.046956,0.677495,0.412342,-0.652164,-2.765607,5.884650,-7.076343
1790545850.1368,-0.007190,0.007599,0.020085,-0.009954,0.007424,0.020085,0.288969,-0.067244,-0.939915,-1.347472,2.315371,-10.142427
1790545850.1508,0.004704,0.011820,0.018195,0.000306,0.010501,0.018195,-0.046134,-0.620893,-1.107467,-0.657568,2.910251,-10.608161
1790545850.1649,-0.006357,0.015974,0.072359,-0.004358,0.014332,0.072359,-0.037635,0.352849,-1.247093,1.948735,2.575631,-9.016902
1790545850.1788,-0.011556,0.021325,0.070341,-0.009397,0.019227,0.070341,-0.156621,0.453623,-1.457140,0.377287,2.352551,-8.318301
1790545850.1928,-0.006471,0.021881,0.000741,-0.007349,0.021085,0.000741,-0.183332,0.273930,-1.429215,-1.424128,1.125611,-8.628791
1790545850.2066,-0.012808,0.018622,-0.030966,-0.011170,0.019361,-0.030966,-0.029136,0.706164,-1.460782,-0.044320,0.642271,-9.327392
1790545850.2206,-0.019222,0.023425,-0.043730,-0.016806,0.022206,-0.043730,-0.295033,0.646672,-1.563984,0.262303,1.943571,-9.443825
1790545850.2342,-0.026928,0.030066,-0.056934,-0.023892,0.027708,-0.056934,-0.550003,0.708593,-1.489922,0.607255,1.683311,-10.763406
1790545850.2477,-0.033306,0.030864,-0.075502,-0.030482,0.029917,-0.075502,-0.296247,0.579894,-1.283518,0.760567,0.790991,-11.112707
1790545850.2616,-0.034612,0.031723,-0.095869,-0.033373,0.031181,-0.095869,-0.196687,0.289714,-1.035833,0.070663,1.088431,-9.521448
1790545850.2756,-0.039015,0.033585,-0.103359,-0.037322,0.032864,-0.103359,-0.159049,0.375918,-0.799075,0.492271,1.460231,-8.667602
1790545850.2894,-0.047396,0.039921,-0.114409,-0.044374,0.037804,-0.114409,-0.411591,0.752302,-0.799075,0.300631,2.278191,-10.879840
1790545850.3033,-0.033138,0.026655,-0.140360,-0.036509,0.030000,-0.140360,0.619216,-0.841867,-0.633952,-0.580912,0.010211,-17.710609
1790545850.3172,-0.033207,0.013425,-0.126370,-0.034198,0.018397,-0.126370,1.039309,-0.287004,-0.034165,2.140375,2.761531,-12.936833
1790545850.3311,-0.039006,0.007427,-0.115905,-0.037564,0.010718,-0.115905,1.112158,-0.380493,0.304580,3.673494,4.397451,-6.727042
1790545850.3453,-0.035099,-0.002886,-0.113879,-0.035838,0.001195,-0.113879,1.202004,-0.611180,0.422352,1.067191,2.687171,-5.834385
1790545850.3601,-0.042325,0.000464,-0.082646,-0.040379,0.000683,-0.082646,-0.071631,0.082095,0.450277,2.753622,3.319231,-12.548721
1790545850.3742,-0.045685,-0.003222,-0.060986,-0.044093,-0.002050,-0.060986,-0.026707,0.133089,0.939577,-0.082648,-0.138509,-11.384385
1790545850.3884,-0.041257,-0.010592,-0.049366,-0.042108,-0.008030,-0.049366,0.262258,-0.333141,1.232185,-0.350944,-0.026969,-4.281937
1790545850.4023,-0.032396,-0.007662,-0.083330,-0.035310,-0.007773,-0.083330,-0.065560,-0.410846,1.309890,-1.462456,1.497411,-6.261308
1790545850.4163,-0.031271,-0.012613,-0.072369,-0.032483,-0.011161,-0.072369,-0.032778,-0.061173,1.048849,-1.117504,-1.142369,-10.957462
1790545850.4303,-0.036132,-0.020121,-0.049902,-0.035037,-0.017433,-0.049902,0.186982,0.198653,0.967502,0.223975,-1.105189,-12.393476
1790545850.4442,-0.038206,-0.026586,-0.038706,-0.037255,-0.023840,-0.038706,0.276828,0.153730,0.992999,-0.772552,0.084571,-10.646972
1790545850.4581,-0.039709,-0.030339,-0.036082,-0.038973,-0.028389,-0.036082,0.177268,0.277572,0.860657,-1.539112,0.605091,-9.133336
1790545850.4717,-0.037693,-0.030656,-0.037257,-0.038077,-0.029976,-0.037257,0.025501,0.122162,0.592332,-1.845736,1.088431,-8.473546
1790545850.4854,-0.039114,-0.032521,-0.038064,-0.038803,-0.031758,-0.038064,0.013359,0.215651,0.468489,-0.849208,0.344831,-8.589979
1790545850.4994,-0.040984,-0.035077,-0.039160,-0.040330,-0.034081,-0.039160,0.092278,0.258146,0.342219,-1.002520,0.567911,-10.025993
1790545850.5133,-0.041150,-0.037308,-0.041957,-0.040904,-0.036340,-0.041957,0.074066,0.161015,0.168596,-1.002520,0.530731,-9.560259
1790545850.5273,-0.037836,-0.032662,-0.024401,-0.038756,-0.033766,-0.024401,-0.126267,-0.215369,0.234160,-0.235960,2.241011,-8.279490
1790545850.5412,-0.026218,-0.028288,-0.023264,-0.029979,-0.029931,-0.023264,-0.295033,-0.693741,0.144314,-1.232488,1.423051,-10.297672
1790545850.5552,-0.018211,-0.021729,-0.017244,-0.021741,-0.024190,-0.017244,-0.456514,-0.711953,-0.012311,1.220503,1.832031,-13.363756
1790545850.5691,-0.009304,-0.015029,-0.018510,-0.013035,-0.017777,-0.018510,-0.607067,-0.846723,-0.201717,1.833751,0.493551,-11.966553
1790545850.5832,-0.016762,-0.013840,-0.023495,-0.015644,-0.015021,-0.023495,-0.363025,0.170728,-0.442117,3.788478,-0.956469,-11.423196
1790545850.5972,-0.014852,-0.015482,-0.036395,-0.015090,-0.015344,-0.036395,-0.033992,-0.166804,-0.852497,1.067191,0.270471,-10.685784
1790545850.6118,-0.012587,-0.014558,-0.054509,-0.013338,-0.014793,-0.054509,-0.089843,-0.123095,-1.169388,0.875551,1.274331,-9.909560
1790545850.6258,-0.007006,-0.013391,-0.074136,-0.008906,-0.013812,-0.074136,-0.149336,-0.327070,-1.397647,0.492271,0.716631,-6.843476
1790545850.6398,0.001202,-0.011679,-0.086726,-0.001831,-0.012319,-0.086726,-0.036421,-0.250580,-1.119608,-1.577440,2.017931,-8.628791
1790545850.6538,-0.005117,-0.015350,-0.101967,-0.004131,-0.014441,-0.101967,0.173626,0.385631,-1.020049,1.718767,0.976891,-11.384385
1790545850.6678,-0.003107,-0.019654,-0.120721,-0.003414,-0.018090,-0.120721,0.259830,0.032316,-1.368508,-0.235960,1.423051,-12.044175
1790545850.6818,0.001805,-0.021965,-0.140036,0.000239,-0.020803,-0.140036,0.093493,-0.236010,-1.423144,0.300631,1.125611,-11.229140
1790545850.6955,0.000486,-0.022020,-0.161695,0.000412,-0.021655,-0.161695,0.030357,0.071168,-1.307800,0.990535,1.348691,-7.309210
1790545850.7091,0.001735,-0.026483,-0.172625,0.001338,-0.025035,-0.172625,0.214907,-0.015036,-1.049188,0.147319,0.456371,-8.085434
1790545850.7231,0.005068,-0.031047,-0.186012,0.003949,-0.029243,-0.186012,0.337535,-0.081814,-0.904705,-0.657568,1.348691,-8.784035
1790545850.7369,0.001877,-0.033053,-0.202923,0.002498,-0.031910,-0.202923,0.239190,0.235077,-0.795432,0.492271,2.166651,-9.676693
1790545850.7509,-0.006168,-0.027727,-0.226130,-0.003568,-0.028982,-0.226130,-0.117768,0.595678,-0.835499,0.607255,4.062831,-10.258860
1790545850.7649,-0.019677,-0.019530,-0.243862,-0.014844,-0.022366,-0.243862,-0.500223,1.063122,-0.813645,0.108991,3.430771,-15.343126
1790545850.7789,-0.027320,-0.007964,-0.262707,-0.023577,-0.012285,-0.262707,-0.721197,0.817866,-0.631523,-1.654096,2.389731,-9.831937
1790545850.7928,-0.014063,-0.011230,-0.239689,-0.016917,-0.011547,-0.239689,-0.118982,-0.613608,-0.374125,-3.263871,-2.220588,-10.957462
1790545850.8068,-0.009506,-0.015059,-0.237194,-0.011729,-0.014006,-0.237194,0.190624,-0.329499,0.022899,-0.197632,0.567911,-9.831937
1790545850.8208,-0.020162,-0.019468,-0.226819,-0.017632,-0.017829,-0.226819,0.216121,0.668526,0.690677,-0.005993,0.270471,-8.628791
1790545850.8347,-0.017314,-0.025212,-0.210155,-0.017409,-0.022997,-0.210155,0.218549,-0.104882,0.733172,-1.500784,-0.510309,-7.619700
1790545850.8490,-0.018580,-0.031600,-0.197222,-0.018229,-0.029019,-0.197222,0.373959,0.084524,0.774453,-0.925864,0.382011,-9.599070
1790545850.8634,-0.020023,-0.033869,-0.185953,-0.019485,-0.032414,-0.185953,0.117775,0.082095,0.688249,-0.657568,0.679451,-9.405014
1790545850.8775,-0.026048,-0.036904,-0.181378,-0.024079,-0.035557,-0.181378,0.114133,0.288500,0.671251,0.683911,0.121751,-11.190329
1790545850.8914,-0.034954,-0.045586,-0.176199,-0.031691,-0.042577,-0.176199,0.475947,0.432982,0.891011,1.067191,-0.361589,-9.288581
1790545850.9054,-0.044912,-0.055357,-0.165908,-0.040946,-0.051523,-0.165908,0.667782,0.594463,0.915294,0.377287,0.642271,-8.434735
1790545850.9189,-0.055566,-0.061967,-0.154867,-0.051180,-0.058834,-0.154867,0.526941,0.719520,0.854587,0.185647,1.199971,-8.357112
1790545850.9326,-0.061149,-0.065442,-0.136451,-0.058158,-0.063459,-0.136451,0.346034,0.496118,0.723459,-1.002520,1.757671,-8.784035
1790545850.9463,-0.061374,-0.070841,-0.124509,-0.060409,-0.068626,-0.124509,0.418883,0.045671,0.588690,-0.504256,1.460231,-11.811308
1790545850.9603,-0.059705,-0.073484,-0.117666,-0.059917,-0.072027,-0.117666,0.244046,-0.210513,0.506128,0.990535,1.757671,-11.423196
1790545850.9744,-0.054678,-0.072620,-0.113443,-0.056250,-0.072442,-0.113443,-0.089843,-0.459412,0.438136,1.258831,0.828171,-13.130889
1790545850.9884,-0.052078,-0.068607,-0.118081,-0.053329,-0.069757,-0.118081,-0.398235,-0.473982,0.344647,3.443526,-0.361589,-11.229140
1790545851.0023,-0.047148,-0.060738,-0.119449,-0.049002,-0.063444,-0.119449,-0.727267,-0.658531,0.269370,2.791950,-0.696209,-8.667602
1790545851.0162,-0.043788,-0.045690,-0.125439,-0.045353,-0.051017,-0.125439,-1.165573,-0.704669,0.192879,3.903462,0.047391,-7.231588
1790545851.0300,-0.030753,-0.029373,-0.120437,-0.035133,-0.035866,-0.120437,-1.273631,-1.141760,0.167382,1.412143,0.121751,-7.231588
1790545851.0439,-0.022629,-0.016550,-0.113849,-0.026380,-0.022345,-0.113849,-1.073298,-0.966923,0.106675,3.596838,-0.324409,-8.706413
1790545851.0578,-0.010173,-0.003428,-0.121699,-0.015035,-0.009103,-0.121699,-0.971310,-1.140546,0.048396,2.332014,1.125611,-10.375294
1790545851.0717,-0.015671,-0.007130,-0.086474,-0.015480,-0.007722,-0.086474,-0.040063,0.190154,-0.215073,4.593365,-2.629568,-15.964105
1790545851.0857,-0.017704,-0.015402,-0.079250,-0.017037,-0.013098,-0.079250,0.474733,0.305498,-0.860996,-0.504256,0.493551,-13.829490
1790545851.0995,-0.012853,-0.006742,-0.283557,-0.014108,-0.008649,-0.283557,0.207622,-0.329499,-0.937487,0.300631,4.285911,-2.962357
1790545851.1139,-0.003191,-0.009761,-0.291994,-0.006466,-0.009428,-0.291994,0.307182,-0.443628,-0.756580,-0.810880,1.274331,-4.592427
1790545851.1279,-0.002091,-0.022306,-0.300398,-0.003404,-0.018442,-0.300398,0.882685,0.095451,-0.757794,-0.695896,0.902531,-6.494175
1790545851.1419,0.011176,-0.034023,-0.317618,0.006802,-0.029348,-0.317618,0.953105,-0.781160,-0.922917,-1.117504,2.761531,-9.909560
1790545851.1555,0.016998,-0.038970,-0.325516,0.013939,-0.036084,-0.325516,0.512372,-0.437557,-1.095326,0.952207,3.133331,-9.094525
1790545851.1692,0.022510,-0.044004,-0.340015,0.019939,-0.041628,-0.340015,0.393386,-0.379279,-1.108681,0.645583,2.203831,-11.345574
1790545851.1832,0.033598,-0.050928,-0.356570,0.029500,-0.048138,-0.356570,0.542725,-0.557757,-1.023691,-1.692424,1.683311,-7.658511
1790545851.1972,0.025925,-0.061445,-0.356051,0.026998,-0.057453,-0.356051,0.630143,0.548326,-0.845212,0.415615,0.233291,-10.841028
1790545851.2111,0.000618,-0.050383,-0.364334,0.008532,-0.052504,-0.364334,-0.794045,1.787965,-0.693445,1.488799,2.389731,-16.313406
1790545851.2251,0.003555,-0.038855,-0.327114,0.005048,-0.042949,-0.327114,-1.055086,0.140374,-0.820929,-3.762135,-1.105189,-10.220049
1790545851.2390,-0.003411,-0.026180,-0.296099,-0.000874,-0.031211,-0.296099,-1.189856,0.843363,-0.790576,-2.573967,-1.328269,-7.852567
1790545851.2530,-0.018062,-0.008165,-0.304919,-0.012905,-0.015079,-0.304919,-1.331910,1.241601,-0.675232,-0.734224,0.716631,-6.300119
1790545851.2669,-0.024733,0.006344,-0.314601,-0.021185,-0.000083,-0.314601,-0.940956,0.817866,-0.620596,-1.769080,1.720491,-5.756762
1790545851.2812,-0.015199,-0.000103,-0.309249,-0.016995,-0.000097,-0.309249,0.342392,-0.431487,-0.349842,-3.608823,0.270471,-14.566903
1790545851.2951,-0.019417,-0.001375,-0.306110,-0.018691,-0.000992,-0.306110,0.205194,0.077239,0.341005,2.408670,3.244871,-11.112707
1790545851.3090,-0.022693,-0.004051,-0.291637,-0.021492,-0.003133,-0.291637,0.121418,0.067526,0.736815,0.760567,0.642271,-11.267951
1790545851.3229,-0.020087,-0.012546,-0.271039,-0.020508,-0.009722,-0.271039,0.437095,-0.270006,0.660324,-0.197632,-0.621849,-8.318301
1790545851.3369,-0.027436,-0.022732,-0.254453,-0.025358,-0.018829,-0.254453,0.545153,0.398987,0.560764,0.530599,-0.733389,-7.580888
1790545851.3510,-0.046192,-0.033679,-0.253085,-0.039941,-0.029224,-0.253085,0.819550,1.118973,0.667609,2.140375,1.943571,-11.035084
1790545851.3656,-0.059438,-0.041013,-0.250626,-0.053589,-0.037476,-0.250626,0.596147,0.800868,0.763526,0.683911,2.426911,-9.676693
1790545851.3795,-0.066660,-0.047906,-0.244600,-0.062739,-0.044777,-0.244600,0.576721,0.447552,0.918936,0.108991,2.464091,-10.142427
1790545851.3932,-0.074170,-0.052445,-0.237683,-0.070741,-0.050145,-0.237683,0.398242,0.487619,0.942005,0.070663,2.055111,-8.978091
1790545851.4070,-0.072712,-0.058608,-0.228142,-0.072121,-0.056069,-0.228142,0.480804,-0.069672,0.864300,-1.002520,1.794851,-9.676693
1790545851.4210,-0.064339,-0.061339,-0.212708,-0.066673,-0.059758,-0.212708,0.105634,-0.640319,0.836375,-0.082648,0.307651,-12.471098
1790545851.4350,-0.058941,-0.061794,-0.196214,-0.061260,-0.061183,-0.196214,-0.097128,-0.562614,0.671251,2.063719,-0.510309,-11.578441
1790545851.4488,-0.053964,-0.059341,-0.176160,-0.056153,-0.059893,-0.176160,-0.341170,-0.657317,0.717389,3.021918,-0.844929,-8.978091
1790545851.4628,-0.050075,-0.053388,-0.159946,-0.051898,-0.055340,-0.159946,-0.573071,-0.583254,0.685821,3.213558,-0.696209,-9.288581
1790545851.4769,-0.041967,-0.041735,-0.151467,-0.044946,-0.045817,-0.151467,-0.916674,-0.852794,0.486702,2.715294,0.010211,-8.589979
1790545851.4907,-0.030529,-0.027745,-0.146313,-0.034854,-0.033167,-0.146313,-1.100009,-1.104121,0.251158,3.750150,0.158931,-11.733686
1790545851.5046,-0.018862,-0.009044,-0.151731,-0.023660,-0.016281,-0.151731,-1.375619,-1.196396,0.076322,3.635166,0.679451,-7.813756
1790545851.5185,-0.008740,0.011364,-0.155524,-0.013216,0.003071,-0.155524,-1.488535,-1.157544,0.010758,3.481854,0.605091,-5.640329
1790545851.5325,-0.009412,0.018914,-0.163729,-0.010553,0.014161,-0.163729,-0.533005,-0.087884,-0.164079,1.642111,1.460231,-8.318301
1790545851.5464,-0.025142,0.008944,-0.169832,-0.020765,0.010509,-0.169832,0.701778,1.358159,-0.599956,-2.267343,2.389731,-14.605714
1790545851.5603,-0.010324,-0.000474,-0.185052,-0.013457,0.002821,-0.185052,0.733345,-0.708311,-1.194885,-3.877119,3.282051,-13.907112
1790545851.5743,-0.010051,-0.001790,-0.227330,-0.011072,-0.000407,-0.227330,0.288969,-0.059959,-0.976340,1.642111,2.761531,-6.649420
1790545851.5883,-0.006653,-0.007175,-0.222962,-0.007979,-0.005144,-0.222962,0.304753,-0.046604,-0.598741,-1.692424,0.716631,-10.220049
1790545851.6022,0.005719,-0.015679,-0.233368,0.001609,-0.012519,-0.233368,0.610717,-0.595396,-0.972697,-2.650623,1.757671,-10.220049
1790545851.6164,0.018718,-0.029030,-0.251650,0.013585,-0.024077,-0.251650,0.951891,-0.704669,-1.111109,-1.539112,1.757671,-9.715504
1790545851.6301,0.026529,-0.035715,-0.289045,0.022646,-0.032223,-0.289045,0.685994,-0.537117,-1.105039,0.568927,3.207691,-7.231588
1790545851.6441,0.033828,-0.042509,-0.319516,0.030473,-0.039423,-0.319516,0.576721,-0.426630,-1.170602,-0.082648,2.092291,-6.727042
1790545851.6580,0.022439,-0.052733,-0.341658,0.024849,-0.048740,-0.341658,0.727275,0.931995,-1.051616,-0.887536,2.910251,-17.400119
1790545851.6720,0.008726,-0.044095,-0.355444,0.013563,-0.045488,-0.355444,-0.667775,1.236745,-0.972697,-4.145415,1.720491,-16.701518
1790545851.6860,0.009120,-0.028872,-0.345468,0.010453,-0.033857,-0.345468,-1.262704,0.254504,-0.843998,-4.145415,-0.770569,-13.674245
1790545851.6999,0.011096,-0.016865,-0.295902,0.010903,-0.021963,-0.295902,-1.182571,0.290928,-0.601170,-3.570495,-1.737248,-5.756762
1790545851.7138,-0.005373,0.002623,-0.308992,-0.000490,-0.004753,-0.308992,-1.397474,1.178466,-0.575673,0.683911,1.088431,-5.446273
1790545851.7276,-0.009661,0.017689,-0.317212,-0.006910,0.010957,-0.317212,-1.178928,0.891928,-0.750509,-2.765607,0.121751,-3.428091
1790545851.7415,-0.006839,0.018009,-0.321737,-0.006860,0.015893,-0.321737,-0.089843,-0.075743,-0.574459,-1.155832,1.683311,-18.059910
1790545851.7555,-0.005022,0.010373,-0.321457,-0.005574,0.012029,-0.321457,0.530584,-0.219012,-0.026880,1.757095,2.352551,-16.895574
1790545851.7695,-0.012723,0.009987,-0.316314,-0.010578,0.010599,-0.316314,0.038856,0.355277,0.527982,1.948735,2.129471,-12.975644
1790545851.7834,-0.014158,0.004498,-0.295281,-0.013084,0.006328,-0.295281,0.218549,-0.059959,0.713746,0.415615,-0.696209,-7.192776
1790545851.7975,-0.010543,-0.001649,-0.284834,-0.011305,0.000744,-0.284834,0.384887,-0.119452,0.344647,-2.497311,0.567911,-8.434735
1790545851.8117,-0.024694,-0.008427,-0.282610,-0.020677,-0.005676,-0.282610,0.472305,0.842148,0.466061,0.607255,0.605091,-4.631238
1790545851.8271,-0.042779,-0.020075,-0.275053,-0.036148,-0.015755,-0.275053,0.762485,1.049767,0.748956,0.645583,1.571771,-10.569350
1790545851.8415,-0.053676,-0.028385,-0.273997,-0.048418,-0.024596,-0.273997,0.699349,0.655170,0.869156,0.223975,3.096151,-9.482637
1790545851.8560,-0.062845,-0.030758,-0.269969,-0.058517,-0.028910,-0.269969,0.269543,0.554397,0.955360,-0.120976,2.687171,-8.395923
1790545851.8707,-0.058945,-0.033931,-0.256700,-0.058817,-0.032425,-0.256700,0.216121,-0.336784,0.996641,-0.465928,1.869211,-11.151518
1790545851.8856,-0.051544,-0.034045,-0.240774,-0.053726,-0.033559,-0.240774,-0.047348,-0.673101,0.905581,1.565455,0.939711,-12.587532
1790545851.8995,-0.046861,-0.032151,-0.222803,-0.048921,-0.032573,-0.222803,-0.264679,-0.567471,0.829090,2.255358,-0.398769,-10.918651
1790545851.9132,-0.040961,-0.027952,-0.204445,-0.043349,-0.029338,-0.204445,-0.449229,-0.714382,0.894653,2.063719,-0.473129,-7.852567
1790545851.9272,-0.035818,-0.021350,-0.189011,-0.038077,-0.023746,-0.189011,-0.607067,-0.656103,0.798736,2.102047,-0.398769,-7.619700
1790545851.9412,-0.027870,-0.009931,-0.182963,-0.030932,-0.014076,-0.182963,-0.862037,-0.856436,0.648183,3.213558,0.790991,-11.229140
1790545851.9552,-0.020972,0.003921,-0.179130,-0.023960,-0.001478,-0.179130,-1.075726,-0.804228,0.350718,4.593365,0.158931,-12.160609
1790545851.9691,-0.009156,0.022573,-0.186134,-0.013597,0.015358,-0.186134,-1.295486,-1.093194,0.234160,2.217030,1.832031,-8.434735
1790545851.9830,-0.016822,0.027187,-0.178266,-0.015855,0.023638,-0.178266,-0.482011,0.381989,-0.158008,4.095102,-0.361589,-13.751868
1790545851.9970,-0.025932,0.021263,-0.184311,-0.022909,0.021976,-0.184311,0.406741,0.870074,-0.671590,-1.385800,1.757671,-10.802217
1790545852.0109,-0.005721,0.011536,-0.184343,-0.010878,0.014668,-0.184343,0.684780,-0.929285,-1.071043,-5.371910,1.423051,-8.473546
1790545852.0248,-0.010197,0.006748,-0.215282,-0.010401,0.009124,-0.215282,0.389743,0.191368,-0.691016,2.906934,1.869211,-8.318301
1790545852.0386,-0.011870,-0.001356,-0.216576,-0.011429,0.001788,-0.216576,0.514800,0.178013,-0.524679,0.262303,0.716631,-10.763406
1790545852.0526,0.001966,-0.011418,-0.211566,-0.002053,-0.007456,-0.211566,0.608289,-0.715596,-0.909562,-2.382327,0.196111,-9.793126
1790545852.0666,0.009637,-0.019780,-0.234336,0.006130,-0.016083,-0.234336,0.607075,-0.401133,-1.262877,-0.120976,1.571771,-8.046623
1790545852.0802,0.014921,-0.024538,-0.273341,0.012284,-0.022001,-0.273341,0.503873,-0.291860,-1.131750,0.108991,2.761531,-6.959909
1790545852.0938,0.017954,-0.029625,-0.300609,0.016253,-0.027338,-0.300609,0.444380,-0.174089,-1.010336,0.530599,2.389731,-8.706413
1790545852.1080,0.027427,-0.039718,-0.314710,0.024075,-0.036004,-0.314710,0.700564,-0.500693,-0.924132,-1.347472,1.311511,-8.589979
1790545852.1224,0.015760,-0.044932,-0.349533,0.018255,-0.042254,-0.349533,0.554867,0.893142,-0.754152,-0.350944,4.100011,-8.784035
1790545852.1365,-0.007909,-0.038105,-0.355180,-0.000060,-0.039350,-0.355180,-0.524506,1.602201,-0.681303,3.596838,1.646131,-16.119350
1790545852.1505,-0.007271,-0.022513,-0.347556,-0.005108,-0.027564,-0.347556,-1.238421,0.254504,-0.749295,-4.911974,-0.250049,-14.295224
1790545852.1645,-0.012115,-0.010434,-0.330999,-0.010013,-0.015573,-0.330999,-1.090296,0.581108,-0.675232,-1.577440,-1.142369,-7.076343
1790545852.1785,-0.024607,0.008624,-0.369762,-0.020229,0.001364,-0.369762,-1.085439,0.902855,-0.511323,0.453943,2.241011,-3.660958
1790545852.1924,-0.020817,0.017418,-0.363977,-0.020640,0.012602,-0.363977,-0.718768,0.096665,-0.575673,-2.727279,0.270471,-6.067252
1790545852.2064,-0.012869,0.006800,-0.358564,-0.015201,0.008540,-0.358564,0.699349,-0.512834,-0.068161,-1.270816,1.051251,-14.178791
1790545852.2202,-0.022485,0.007160,-0.354240,-0.020300,0.007574,-0.354240,0.013359,0.604177,0.612972,-0.005993,2.612811,-12.509909
1790545852.2342,-0.025424,0.003879,-0.335762,-0.023887,0.004988,-0.335762,0.166341,0.023817,0.929863,0.798895,0.679451,-13.053266
1790545852.2482,-0.026382,-0.005409,-0.317046,-0.025633,-0.002290,-0.317046,0.550010,-0.096383,0.694320,0.722239,-0.175689,-8.007811
1790545852.2619,-0.043118,-0.011918,-0.326417,-0.037872,-0.009030,-0.326417,0.568222,0.890714,0.534053,2.791950,1.757671,-6.222497
1790545852.2758,-0.061141,-0.021216,-0.320857,-0.054160,-0.017561,-0.320857,0.664139,1.128686,0.662752,1.910407,1.497411,-10.918651
1790545852.2898,-0.073115,-0.029874,-0.313598,-0.067428,-0.026180,-0.313598,0.628929,0.819080,0.858229,-0.504256,1.757671,-9.793126
1790545852.3034,-0.080392,-0.035124,-0.309595,-0.076503,-0.032441,-0.309595,0.432238,0.504617,0.895867,-0.580912,2.575631,-10.685784
1790545852.3170,-0.082652,-0.038046,-0.302913,-0.080808,-0.036365,-0.302913,0.231905,0.113663,0.900724,-0.159304,1.943571,-9.482637
1790545852.3309,-0.081441,-0.042074,-0.293532,-0.081251,-0.040361,-0.293532,0.274400,-0.157091,0.859443,0.147319,1.460231,-9.366203
1790545852.3449,-0.074906,-0.043474,-0.276501,-0.076809,-0.042540,-0.276501,-0.002425,-0.537117,0.742886,0.338959,0.233291,-12.238231
1790545852.3589,-0.071868,-0.042187,-0.257869,-0.073350,-0.042293,-0.257869,-0.210043,-0.412060,0.721031,2.370342,-0.138509,-10.608161
1790545852.3734,-0.063898,-0.036685,-0.244186,-0.066734,-0.038367,-0.244186,-0.438302,-0.739879,0.735601,1.680439,0.567911,-8.046623
1790545852.3875,-0.060072,-0.029820,-0.223490,-0.062071,-0.032384,-0.223490,-0.631350,-0.592968,0.665180,4.593365,-0.659029,-10.646972
1790545852.4015,-0.048126,-0.016009,-0.214846,-0.052309,-0.020921,-0.214846,-1.040516,-1.096837,0.452706,3.251886,0.679451,-10.452916
1790545852.4155,-0.037203,-0.000963,-0.205988,-0.041735,-0.006951,-0.205988,-1.161930,-1.078624,0.287582,3.520182,0.158931,-8.395923
1790545852.4295,-0.028481,0.017565,-0.209715,-0.032458,0.010210,-0.209715,-1.345266,-0.922000,0.115174,2.906934,0.865351,-6.571797
1790545852.4435,-0.019939,0.035951,-0.217055,-0.023694,0.028229,-0.217055,-1.282130,-0.839438,0.016829,2.178703,1.348691,-6.338930
1790545852.4574,-0.033737,0.031818,-0.213393,-0.030724,0.030742,-0.213393,0.202765,0.854290,-0.312204,5.129957,0.790991,-14.644525
1790545852.4714,-0.023858,0.022468,-0.210325,-0.025918,0.024950,-0.210325,0.614360,-0.280933,-1.056473,-5.371910,1.534591,-13.519000
1790545852.4853,-0.013574,0.020206,-0.247666,-0.017277,0.021629,-0.247666,0.332679,-0.524976,-0.996980,-1.079176,4.285911,-10.142427
1790545852.4993,-0.015565,0.013988,-0.248131,-0.016079,0.016280,-0.248131,0.375174,0.012889,-0.506467,2.906934,0.642271,-8.589979
1790545852.5133,-0.004575,0.002630,-0.236277,-0.008026,0.006725,-0.236277,0.689636,-0.506763,-0.742010,-2.918919,0.158931,-10.375294
1790545852.5271,0.011014,-0.011012,-0.250979,0.005302,-0.005691,-0.250979,0.995600,-0.841867,-1.029762,-2.957247,2.166651,-10.996273
1790545852.5407,0.020756,-0.017535,-0.301024,0.016120,-0.013982,-0.301024,0.706634,-0.514048,-1.098968,-1.079176,3.542311,-6.727042
1790545852.5544,0.023020,-0.021263,-0.341223,0.020950,-0.019079,-0.341223,0.441951,-0.052674,-1.067400,-0.044320,2.538451,-5.601518
1790545852.5684,0.032484,-0.030110,-0.355999,0.029024,-0.026800,-0.355999,0.587648,-0.546830,-1.047974,-0.542584,1.088431,-8.201867
1790545852.5824,0.016307,-0.038392,-0.362680,0.020122,-0.034915,-0.362680,0.489303,1.213676,-0.882851,0.568927,0.828171,-16.391028
1790545852.5962,0.000188,-0.025691,-0.374277,0.006168,-0.028458,-0.374277,-0.932457,1.465003,-0.738368,-6.023486,2.649991,-16.856763
1790545852.6102,0.001004,-0.010733,-0.368586,0.002553,-0.016051,-0.368586,-1.176500,0.239934,-0.657020,-6.100142,0.196111,-16.196973
1790545852.6247,-0.003649,0.006594,-0.362219,-0.001788,-0.000199,-0.362219,-1.278488,0.731661,-0.564745,-2.688951,0.196111,-4.243126
1790545852.6387,-0.020846,0.028972,-0.397198,-0.015129,0.020220,-0.397198,-1.288201,1.195464,-0.562317,1.028863,2.835891,-3.466902
1790545852.6527,-0.027215,0.036836,-0.398251,-0.023589,0.031852,-0.398251,-0.673845,0.787512,-0.745653,-1.730752,0.121751,-5.795574
1790545852.6666,-0.013753,0.025978,-0.395722,-0.016704,0.027740,-0.395722,0.683566,-0.900146,-0.699515,0.568927,0.456371,-12.160609
1790545852.6805,-0.019205,0.026208,-0.397934,-0.018455,0.026668,-0.397934,0.123846,0.136732,0.355574,4.286742,5.252591,-12.742777
1790545852.6944,-0.023509,0.022006,-0.390159,-0.021993,0.023405,-0.390159,0.296254,0.247219,0.598403,-0.925864,2.315371,-14.450469
1790545852.7082,-0.026075,0.016352,-0.370376,-0.024851,0.018468,-0.370376,0.349677,-0.029606,0.888583,1.028863,0.828171,-10.530539
1790545852.7221,-0.028412,0.005851,-0.353066,-0.027344,0.009636,-0.353066,0.664139,0.105164,0.648183,-0.389272,0.158931,-6.144874
1790545852.7360,-0.048380,-0.000741,-0.349972,-0.042069,0.002372,-0.349972,0.569436,1.046124,0.926221,3.865134,2.575631,-7.852567
1790545852.7500,-0.056912,-0.012720,-0.338016,-0.052459,-0.008192,-0.338016,0.831691,0.567752,0.967502,-1.079176,1.274331,-9.754315
1790545852.7635,-0.068332,-0.020603,-0.335930,-0.063570,-0.016880,-0.335930,0.658069,0.691595,1.024567,0.760567,2.873071,-9.870749
1790545852.7772,-0.072626,-0.024700,-0.331744,-0.069909,-0.022354,-0.331744,0.343606,0.277572,1.030637,-1.040848,2.724351,-10.763406
1790545852.7912,-0.070608,-0.028190,-0.312868,-0.070398,-0.026439,-0.312868,0.159056,-0.248151,1.042779,-0.005993,0.679451,-11.345574
1790545852.8051,-0.064210,-0.028372,-0.295158,-0.066066,-0.027792,-0.295158,-0.065560,-0.569899,0.950504,0.223975,0.790991,-11.811308
1790545852.8191,-0.057815,-0.023403,-0.276543,-0.060291,-0.024720,-0.276543,-0.433445,-0.616036,0.883726,1.067191,0.642271,-10.724595
1790545852.8330,-0.053573,-0.018478,-0.249033,-0.055588,-0.020350,-0.249033,-0.500223,-0.563828,0.833946,2.600310,-0.473129,-9.831937
1790545852.8470,-0.045117,-0.010005,-0.233156,-0.048258,-0.013109,-0.233156,-0.668989,-0.872220,0.714960,2.140375,0.567911,-7.619700
1790545852.8611,-0.036154,-0.000180,-0.218899,-0.039786,-0.004058,-0.218899,-0.757621,-0.834582,0.510984,2.063719,0.679451,-10.142427
1790545852.8758,-0.025909,0.013786,-0.211387,-0.030072,0.008433,-0.211387,-0.988308,-0.941426,0.290011,3.443526,1.088431,-10.569350
1790545852.8905,-0.019779,0.028229,-0.208100,-0.022867,0.022290,-0.208100,-1.022304,-0.607537,0.033827,3.290214,1.311511,-11.151518
1790545852.9047,-0.020056,0.029831,-0.205684,-0.020900,0.027569,-0.205684,-0.183332,0.096665,-0.438475,-0.005993,1.088431,-12.315854
1790545852.9188,-0.018901,0.022224,-0.214483,-0.019501,0.023828,-0.214483,0.499016,0.136732,-0.967841,-0.925864,1.460231,-11.306763
1790545852.9330,-0.004737,0.009505,-0.219269,-0.009166,0.013802,-0.219269,0.807408,-0.648818,-1.137821,-2.497311,0.456371,-8.318301
1790545852.9471,-0.006290,-0.000180,-0.241833,-0.007153,0.004015,-0.241833,0.716347,0.009247,-0.614525,2.523654,1.646131,-8.201867
1790545852.9611,-0.001373,-0.011668,-0.252283,-0.003107,-0.006963,-0.252283,0.795267,-0.221440,-0.845212,-0.542584,1.720491,-12.975644
1790545852.9752,0.013914,-0.019987,-0.277604,0.008807,-0.016080,-0.277604,0.633786,-0.866150,-1.224025,-1.654096,2.761531,-11.151518
1790545852.9891,0.023015,-0.029640,-0.306673,0.018752,-0.025572,-0.306673,0.705420,-0.484909,-1.486279,-0.312616,2.166651,-9.482637
1790545853.0029,0.026372,-0.037215,-0.337878,0.024086,-0.033722,-0.337878,0.588863,-0.129165,-1.326013,0.070663,1.794851,-6.649420
1790545853.0168,0.036713,-0.047143,-0.356946,0.032925,-0.043117,-0.356946,0.684780,-0.634248,-1.180315,-0.350944,1.088431,-7.309210
1790545853.0308,0.025563,-0.059808,-0.364104,0.027771,-0.054801,-0.364104,0.812265,0.751088,-0.922917,2.332014,0.716631,-13.868301
1790545853.0447,0.006435,-0.051389,-0.378134,0.012836,-0.052413,-0.378134,-0.641063,1.469860,-0.814859,-0.925864,1.869211,-17.594175
1790545853.0587,0.008443,-0.036146,-0.382999,0.009761,-0.041026,-0.382999,-1.174072,0.222936,-0.767507,-6.483422,0.233291,-11.772497
1790545853.0729,0.010150,-0.020762,-0.377328,0.010033,-0.026841,-0.377328,-1.276060,0.288500,-0.771150,-3.723807,-0.993649,-5.795574
1790545853.0871,-0.007005,0.000826,-0.392225,-0.001893,-0.007474,-0.392225,-1.524959,1.180894,-0.678875,0.952207,0.865351,-4.553616
1790545853.1010,-0.021353,0.016451,-0.388211,-0.015515,0.009273,-0.388211,-1.307627,1.155397,-0.718941,0.032335,-0.510309,-5.912007
1790545853.1151,-0.034116,0.030428,-0.427991,-0.028536,0.024082,-0.427991,-0.766120,1.072835,-0.725012,-0.235960,3.356411,-5.950818
1790545853.1295,-0.017541,0.024149,-0.425367,-0.020840,0.024129,-0.425367,0.346034,-0.885576,-0.466400,-5.103614,0.419191,-14.760958
1790545853.1436,-0.023725,0.026519,-0.425796,-0.022859,0.025802,-0.425796,-0.133552,0.339494,0.229303,1.450471,3.244871,-13.984735
1790545853.1577,-0.026238,0.026989,-0.407949,-0.025224,0.026633,-0.407949,-0.127481,0.035958,0.660324,0.377287,0.307651,-9.366203
1790545853.1721,-0.027592,0.019745,-0.394639,-0.026882,0.021811,-0.394639,0.477161,-0.132808,0.767168,1.258831,1.014071,-8.163056
1790545853.1860,-0.038475,0.010687,-0.396740,-0.034997,0.014024,-0.396740,0.682351,0.562896,0.331291,2.217030,1.534591,-7.309210
1790545853.2000,-0.058775,0.000176,-0.393374,-0.051642,0.004331,-0.393374,0.741844,1.217318,0.520698,3.328542,1.608951,-10.802217
1790545853.2142,-0.065744,-0.012816,-0.381296,-0.061513,-0.007672,-0.381296,0.876614,0.418413,0.799950,-0.235960,1.237151,-10.530539
1790545853.2280,-0.075589,-0.021747,-0.375569,-0.071366,-0.017525,-0.375569,0.668996,0.541041,1.031851,1.297159,2.687171,-11.850119
1790545853.2418,-0.080805,-0.022913,-0.379332,-0.077973,-0.021297,-0.379332,0.189410,0.328566,0.976001,-0.504256,3.021791,-8.395923
1790545853.2559,-0.073324,-0.026510,-0.361916,-0.074719,-0.024946,-0.361916,0.179697,-0.540759,1.003926,-1.615768,0.976891,-10.646972
1790545853.2699,-0.067505,-0.025681,-0.343080,-0.069669,-0.025460,-0.343080,-0.157835,-0.549258,0.840017,1.028863,0.456371,-12.703965
1790545853.2838,-0.063686,-0.024012,-0.318657,-0.065481,-0.024446,-0.318657,-0.279249,-0.466697,0.779310,2.293686,-0.807749,-12.471098
1790545853.2977,-0.061395,-0.020483,-0.299131,-0.062621,-0.021672,-0.299131,-0.410376,-0.480052,0.697962,3.443526,-0.696209,-8.163056
1790545853.3116,-0.051973,-0.011147,-0.289809,-0.055167,-0.014305,-0.289809,-0.707841,-0.837010,0.559550,0.913879,0.679451,-6.106063
1790545853.3256,-0.045281,0.001893,-0.281765,-0.048247,-0.002966,-0.281765,-0.996807,-0.748378,0.527982,2.906934,0.642271,-8.939280
1790545853.3395,-0.036407,0.017643,-0.275194,-0.039959,0.011460,-0.275194,-1.197140,-0.892861,0.320364,3.711822,0.753811,-11.112707
1790545853.3534,-0.024042,0.033657,-0.276590,-0.028817,0.026998,-0.276590,-1.168001,-1.111406,0.072679,3.213558,1.423051,-9.909560
1790545853.3675,-0.028585,0.034518,-0.272203,-0.028655,0.032262,-0.272203,-0.174833,0.233863,-0.341343,3.366870,0.196111,-12.626343
1790545853.3820,-0.028296,0.025386,-0.282568,-0.028404,0.027449,-0.282568,0.625287,0.299427,-0.986053,-3.302199,2.426911,-14.062357
1790545853.3960,-0.012686,0.010904,-0.289045,-0.017401,0.015867,-0.289045,0.966461,-0.772661,-1.343011,-1.615768,0.642271,-7.503266
1790545853.4101,-0.010420,0.010313,-0.381883,-0.012514,0.011979,-0.381883,0.491731,-0.238438,-0.624238,1.182175,3.170511,-3.078790
1790545853.4241,-0.003946,-0.000774,-0.378894,-0.006516,0.003052,-0.378894,0.736988,-0.202014,-0.599956,-3.647151,1.162791,-11.772497
1790545853.4381,0.014030,-0.011367,-0.395660,0.007866,-0.007041,-0.395660,0.780697,-0.991206,-1.105039,-3.493839,2.724351,-12.005364
1790545853.4518,0.023763,-0.021734,-0.423865,0.018994,-0.017326,-0.423865,0.808622,-0.493408,-1.326013,-1.232488,2.761531,-9.560259
1790545853.4654,0.026926,-0.026300,-0.455508,0.024547,-0.023608,-0.455508,0.486875,-0.157091,-1.245879,0.530599,2.910251,-6.106063
1790545853.4794,0.031926,-0.033635,-0.478501,0.029712,-0.030627,-0.478501,0.542725,-0.243295,-1.131750,-0.159304,1.683311,-6.959909
1790545853.4936,0.022754,-0.042593,-0.486273,0.024842,-0.039003,-0.486273,0.550010,0.736518,-0.783291,-0.657568,0.828171,-14.295224
1790545853.5078,0.008269,-0.038229,-0.492638,0.013241,-0.038461,-0.492638,-0.400663,1.219747,-0.767507,-3.953775,0.567911,-18.409210
1790545853.5220,0.011540,-0.022213,-0.486371,0.012050,-0.027088,-0.486371,-1.235993,0.084524,-0.711657,-7.633261,-0.026969,-16.740329
1790545853.5359,0.011514,-0.004607,-0.480892,0.011675,-0.011351,-0.480892,-1.361050,0.390488,-0.686160,-4.337055,0.233291,-7.386832
1790545853.5499,-0.000443,0.015324,-0.492256,0.003192,0.007321,-0.492256,-1.438755,0.973276,-0.586600,-0.274288,0.976891,-5.291028
1790545853.5637,-0.013792,0.026720,-0.472704,-0.008697,0.020900,-0.472704,-1.140076,1.137185,-0.691016,-0.197632,-0.807749,-2.807112
1790545853.5781,-0.019728,0.032807,-0.480553,-0.016419,0.029235,-0.480553,-0.505079,0.662455,-0.814859,-1.884064,0.828171,-11.811308
1790545853.5922,-0.006864,0.023809,-0.487220,-0.009731,0.025437,-0.487220,0.683566,-0.943855,-0.383838,1.680439,3.505131,-13.713056
1790545853.6062,-0.025887,0.026053,-0.498172,-0.021040,0.025868,-0.498172,0.010931,1.115330,0.305794,5.589893,6.925690,-14.101168
1790545853.6205,-0.033151,0.018840,-0.486529,-0.029517,0.020949,-0.486529,0.469877,0.357706,0.631185,1.028863,1.460231,-12.315854
1790545853.6349,-0.034041,0.012404,-0.475948,-0.032684,0.014967,-0.475948,0.455307,-0.097598,0.802379,0.453943,1.720491,-9.133336
1790545853.6492,-0.041071,0.002531,-0.455977,-0.038555,0.006262,-0.455977,0.557295,0.507045,0.693106,-1.347472,-0.324409,-7.115154
1790545853.6634,-0.056853,-0.004122,-0.452430,-0.051363,-0.001007,-0.452430,0.536654,0.970847,0.880084,0.683911,2.464091,-8.861658
1790545853.6774,-0.063958,-0.015636,-0.439433,-0.060179,-0.011247,-0.439433,0.780697,0.417199,0.929863,-0.235960,1.199971,-10.297672
1790545853.6911,-0.073808,-0.021435,-0.434883,-0.069720,-0.018378,-0.434883,0.492945,0.542255,1.013639,1.220503,2.873071,-9.482637
1790545853.7048,-0.072129,-0.024251,-0.426308,-0.071406,-0.022489,-0.426308,0.218549,-0.163161,0.969930,-0.964192,2.315371,-10.646972
1790545853.7188,-0.064259,-0.023516,-0.408040,-0.066403,-0.023208,-0.408040,-0.110483,-0.743521,1.156908,0.990535,1.385871,-11.927742
1790545853.7330,-0.059452,-0.020447,-0.382882,-0.061537,-0.021275,-0.382882,-0.364239,-0.486123,1.056134,0.415615,-0.398769,-9.560259
1790545853.7470,-0.053859,-0.015693,-0.361538,-0.056163,-0.017368,-0.361538,-0.441944,-0.653675,1.017282,1.987063,0.196111,-9.133336
1790545853.7610,-0.047993,-0.006187,-0.341445,-0.050444,-0.009541,-0.341445,-0.790403,-0.728951,0.877655,3.213558,-0.026969,-9.715504
1790545853.7749,-0.041875,0.004385,-0.324060,-0.044445,0.000207,-0.324060,-0.894819,-0.742307,0.614187,3.826806,-0.473129,-10.569350
1790545853.7888,-0.032740,0.016965,-0.316393,-0.036252,0.011938,-0.316393,-0.974952,-0.918358,0.351932,2.906934,0.493551,-8.706413
1790545853.8028,-0.024034,0.030817,-0.312303,-0.027699,0.025153,-0.312303,-1.052658,-0.827297,0.083606,2.446998,0.605091,-8.124245
1790545853.8167,-0.025699,0.035300,-0.308526,-0.026299,0.032256,-0.308526,-0.422518,0.018960,-0.185933,3.405198,0.493551,-15.110259
1790545853.8307,-0.026045,0.026763,-0.312940,-0.026121,0.028411,-0.312940,0.556081,0.278786,-0.885279,-1.922392,1.385871,-13.324944
1790545853.8447,-0.018980,0.013858,-0.325318,-0.021122,0.018224,-0.325318,0.886327,-0.131594,-1.386720,-3.263871,1.608951,-13.519000
1790545853.8586,-0.016616,0.012637,-0.378974,-0.017968,0.014313,-0.378974,0.261044,-0.251794,-1.141463,3.175230,2.910251,-6.532986
1790545853.8727,-0.011502,0.007374,-0.386061,-0.013442,0.009455,-0.386061,0.342392,-0.305216,-0.691016,0.607255,1.162791,-9.288581
1790545853.8871,0.007826,-0.007746,-0.387204,0.001446,-0.002586,-0.387204,0.949463,-1.053127,-1.060115,-3.187215,0.419191,-11.927742
1790545853.9018,0.021141,-0.018338,-0.432538,0.015232,-0.013613,-0.432538,0.904539,-0.772661,-1.228881,-0.082648,3.542311,-6.882287
1790545853.9166,0.031230,-0.024606,-0.474385,0.026431,-0.021308,-0.474385,0.604646,-0.555329,-1.173031,-0.159304,3.765391,-6.882287
1790545853.9306,0.028793,-0.033968,-0.489321,0.028084,-0.030170,-0.489321,0.627715,0.249647,-0.971483,0.185647,1.757671,-12.315854
1790545853.9449,0.017118,-0.038037,-0.499761,0.020408,-0.035677,-0.499761,0.210050,0.925924,-0.837927,-0.964192,1.162791,-15.770049
1790545853.9603,0.018379,-0.032570,-0.500183,0.018988,-0.033502,-0.500183,-0.433445,0.158586,-0.593885,-4.758662,0.419191,-12.742777
1790545853.9747,0.020772,-0.026854,-0.485565,0.020237,-0.028849,-0.485565,-0.581570,0.122162,-0.535606,-4.835318,-1.439808,-10.530539
1790545853.9887,0.009383,-0.012866,-0.484917,0.012639,-0.017661,-0.484917,-1.104866,0.911354,-0.420263,-0.734224,0.047391,-7.464455
1790545854.0027,0.000023,0.000695,-0.473073,0.003808,-0.004812,-0.473073,-1.177714,0.802082,-0.321917,-0.734224,-0.733389,-4.825294
1790545854.0169,-0.011011,0.011469,-0.465795,-0.006566,0.006585,-0.465795,-0.959169,1.049767,-0.368054,-3.148887,-1.328269,-8.784035
1790545854.0310,-0.021953,0.024907,-0.468132,-0.017337,0.019410,-0.468132,-1.018662,1.041268,-0.336487,-3.110559,0.716631,-9.249770
1790545854.0450,-0.024665,0.038894,-0.466841,-0.022467,0.033049,-0.466841,-1.080583,0.436625,-0.168935,-4.260399,0.642271,-12.044175
1790545854.0589,-0.020362,0.037617,-0.456849,-0.020993,0.036246,-0.456849,-0.047348,-0.356210,0.307009,-0.504256,-0.584669,-15.381938
1790545854.0729,-0.025793,0.030828,-0.452297,-0.024353,0.032454,-0.452297,0.415240,0.093023,0.821805,3.060246,0.679451,-12.936833
1790545854.0869,-0.023981,0.024300,-0.436583,-0.024092,0.026746,-0.436583,0.525727,-0.185016,1.102272,-1.462456,1.646131,-5.834385
1790545854.1009,-0.028279,0.022146,-0.438625,-0.027023,0.023526,-0.438625,0.319323,0.264217,0.577762,-0.427600,2.017931,-4.281937
1790545854.1151,-0.038780,0.015360,-0.439462,-0.035253,0.017810,-0.439462,0.480804,0.469407,0.644540,2.561982,1.385871,-8.357112
1790545854.1292,-0.051043,0.003768,-0.438279,-0.046306,0.007981,-0.438279,0.865687,0.667312,0.690677,2.025391,2.575631,-10.530539
1790545854.1432,-0.068491,-0.006385,-0.441245,-0.061836,-0.002075,-0.441245,0.837762,1.003629,0.861872,2.332014,3.207691,-8.628791
1790545854.1570,-0.079510,-0.011503,-0.446642,-0.074208,-0.008675,-0.446642,0.569436,0.697665,0.784166,0.338959,4.211551,-7.580888
1790545854.1710,-0.085528,-0.020033,-0.439776,-0.082132,-0.016625,-0.439776,0.628929,0.300641,0.813306,0.990535,2.278191,-9.948371
1790545854.1849,-0.073723,-0.025320,-0.422921,-0.076246,-0.022711,-0.422921,0.292612,-0.898931,0.893439,-0.772552,0.865351,-11.811308
1790545854.1989,-0.063845,-0.022080,-0.411152,-0.067565,-0.022269,-0.411152,-0.253752,-0.837010,0.825447,0.798895,1.943571,-12.432287
1790545854.2128,-0.062026,-0.019336,-0.388894,-0.063688,-0.020216,-0.388894,-0.363025,-0.452127,0.818162,3.980118,-0.956469,-9.793126
1790545854.2266,-0.055573,-0.013169,-0.373254,-0.058007,-0.015283,-0.373254,-0.559716,-0.731380,0.711318,2.715294,-0.101329,-8.861658
1790545854.2406,-0.044960,-0.002398,-0.362601,-0.048874,-0.006264,-0.362601,-0.877821,-1.054342,0.419924,3.826806,-0.101329,-9.405014
1790545854.2545,-0.037525,0.012161,-0.360669,-0.040930,0.006634,-0.360669,-1.093938,-0.855222,0.258443,4.861661,0.716631,-9.637881
1790545854.2685,-0.026957,0.029810,-0.361216,-0.031149,0.022857,-0.361216,-1.276060,-1.054342,0.167382,4.056774,1.311511,-8.861658
1790545854.2823,-0.017951,0.044813,-0.356901,-0.021910,0.038226,-0.356901,-1.126720,-0.871006,0.120031,3.251886,1.348691,-10.879840
1790545854.2962,-0.031041,0.039122,-0.353053,-0.028302,0.038853,-0.353053,0.322965,0.969633,-0.200503,0.952207,1.051251,-15.847672
1790545854.3101,-0.030645,0.032834,-0.361816,-0.029942,0.034640,-0.361816,0.450450,0.236291,-0.865853,-2.229015,2.538451,-13.751868
1790545854.3241,-0.016049,0.029129,-0.378842,-0.020217,0.030783,-0.378842,0.359390,-0.789659,-0.823358,-1.462456,2.278191,-6.649420
1790545854.3428,-0.014409,0.019816,-0.391648,-0.016152,0.023106,-0.391648,0.506301,-0.100026,-0.450616,1.603783,1.683311,-8.667602
1790545854.3569,0.000430,0.009197,-0.398480,-0.004544,0.013370,-0.398480,0.752772,-0.793301,-0.795432,-2.497311,1.720491,-9.288581
1790545854.3706,0.012762,-0.002057,-0.417081,0.007570,0.002571,-0.417081,0.876614,-0.719238,-0.935059,-0.964192,2.241011,-8.085434
1790545854.3846,0.020968,-0.009635,-0.446049,0.016949,-0.005973,-0.446049,0.673853,-0.517691,-0.944772,0.338959,2.687171,-6.532986
1790545854.3987,0.024366,-0.017178,-0.464702,0.022141,-0.013817,-0.464702,0.531798,-0.108525,-0.995766,-0.389272,1.720491,-8.279490
1790545854.4128,0.030851,-0.024993,-0.482945,0.028238,-0.021640,-0.482945,0.564580,-0.302788,-0.954485,-1.040848,1.794851,-8.357112
1790545854.4268,0.016137,-0.031986,-0.501157,0.019767,-0.028882,-0.501157,0.483232,1.137185,-0.927774,0.262303,3.691031,-20.776693
1790545854.4409,0.007413,-0.020810,-0.506833,0.011119,-0.023231,-0.506833,-0.843825,0.911354,-0.721370,-5.410238,1.423051,-14.062357
1790545854.4550,0.002983,-0.009176,-0.494596,0.005424,-0.013393,-0.494596,-1.010163,0.594463,-0.553818,-3.340527,-1.068009,-8.822846
1790545854.4689,-0.002216,0.005103,-0.478720,0.000076,-0.000446,-0.478720,-1.217781,0.811795,-0.449402,-3.953775,-0.956469,-5.174595
1790545854.4829,-0.015205,0.025890,-0.498813,-0.010621,0.017989,-0.498813,-1.346480,1.007272,-0.538034,0.108991,1.757671,-3.971448
1790545854.4967,-0.023585,0.034546,-0.494074,-0.019696,0.029579,-0.494074,-0.849896,1.023056,-0.589028,-2.573967,-1.030829,-4.670049
1790545854.5107,-0.022100,0.030854,-0.492784,-0.021379,0.030471,-0.492784,0.146915,-0.045389,-0.276994,-0.389272,-0.101329,-17.827042
1790545854.5246,-0.019469,0.025966,-0.485487,-0.020042,0.027317,-0.485487,0.297468,-0.214155,0.282726,-0.887536,1.460231,-16.546273
1790545854.5386,-0.022243,0.027275,-0.478532,-0.021582,0.027288,-0.478532,-0.069202,0.018960,0.696748,1.028863,2.426911,-11.462007
1790545854.5525,-0.022854,0.018170,-0.462748,-0.022473,0.020905,-0.462748,0.466234,-0.144949,0.768383,0.645583,-1.105189,-7.542077
1790545854.5665,-0.033428,0.006501,-0.466405,-0.030141,0.010822,-0.466405,0.902111,0.573823,0.455134,1.872079,2.501271,-9.288581
1790545854.5805,-0.051418,-0.001983,-0.471571,-0.045035,0.001858,-0.471571,0.662925,1.027912,0.565621,2.715294,1.980751,-7.891378
1790545854.5945,-0.064071,-0.011292,-0.468582,-0.058360,-0.007347,-0.468582,0.746701,0.831221,0.755027,-0.082648,2.873071,-9.327392
1790545854.6080,-0.076847,-0.020172,-0.465508,-0.071301,-0.016325,-0.465508,0.727275,0.811795,0.830304,0.952207,2.873071,-9.793126
1790545854.6216,-0.085692,-0.025384,-0.460979,-0.081374,-0.022666,-0.460979,0.465020,0.545898,0.943219,0.415615,3.467951,-10.297672
1790545854.6358,-0.076371,-0.030921,-0.445338,-0.077872,-0.028445,-0.445338,0.327822,-0.711953,0.920150,-0.734224,1.348691,-12.742777
1790545854.6500,-0.067868,-0.029366,-0.431520,-0.070869,-0.029090,-0.431520,-0.176047,-0.693741,0.770811,0.453943,0.902531,-12.044175
1790545854.6640,-0.063094,-0.029443,-0.412466,-0.065427,-0.029337,-0.412466,-0.154192,-0.549258,0.806021,2.370342,-0.956469,-10.841028
1790545854.6780,-0.056702,-0.025748,-0.397641,-0.059319,-0.026824,-0.397641,-0.381237,-0.722881,0.802379,2.408670,-0.175689,-8.046623
1790545854.6920,-0.053360,-0.017785,-0.384795,-0.055148,-0.020497,-0.384795,-0.693271,-0.544402,0.704033,3.405198,-0.435949,-8.551168
1790545854.7059,-0.043977,-0.006017,-0.373416,-0.047328,-0.010361,-0.373416,-0.934886,-0.883148,0.548623,2.063719,0.121751,-8.939280
1790545854.7199,-0.031656,0.008867,-0.369902,-0.036357,0.003098,-0.369902,-1.113365,-1.128404,0.315508,3.251886,0.753811,-9.987182
1790545854.7394,-0.014431,0.035477,-0.372817,-0.021009,0.025764,-0.372817,-1.378048,-1.098051,0.061752,4.095102,1.274331,-9.133336
1790545854.7535,-0.021747,0.032865,-0.359447,-0.021526,0.030735,-0.359447,0.010931,0.539827,-0.175006,0.722239,-1.179549,-16.119350
1790545854.7675,-0.015453,0.026622,-0.367745,-0.017274,0.027855,-0.367745,0.435881,-0.208085,-0.916847,-2.229015,2.798711,-15.537182
1790545854.7814,-0.007877,0.024050,-0.422473,-0.010696,0.025191,-0.422473,0.461378,-0.643962,-0.939915,2.983590,4.248731,-5.989630
1790545854.7954,-0.011069,0.020648,-0.432803,-0.010957,0.022011,-0.432803,0.245260,0.171942,-0.504038,1.910407,1.571771,-8.357112
1790545854.8094,-0.002035,0.012485,-0.431620,-0.004711,0.015343,-0.431620,0.507515,-0.481266,-0.667948,-1.385800,0.865351,-11.578441
1790545854.8233,0.009269,0.000566,-0.442272,0.005075,0.004999,-0.442272,0.857188,-0.562614,-0.937487,-2.152360,1.906391,-9.637881
1790545854.8369,0.015097,-0.010012,-0.464839,0.012091,-0.005509,-0.464839,0.801337,-0.327070,-1.165746,0.453943,1.906391,-8.085434
1790545854.8504,0.022530,-0.010722,-0.501894,0.019398,-0.009158,-0.501894,0.295040,-0.359852,-1.141463,-0.695896,3.579491,-5.523895
1790545854.8642,0.024297,-0.018512,-0.513603,0.022827,-0.015706,-0.513603,0.474733,0.006819,-1.091683,-0.235960,0.716631,-8.163056
1790545854.8784,0.031263,-0.027693,-0.529127,0.028732,-0.024097,-0.529127,0.618002,-0.357424,-1.001837,-0.695896,1.385871,-8.939280
1790545854.8926,0.017582,-0.025264,-0.552670,0.020927,-0.024914,-0.552670,-0.117768,1.089833,-0.871923,-0.810880,3.839751,-13.130889
1790545854.9070,0.005870,-0.010406,-0.555697,0.010387,-0.014758,-0.555697,-1.083011,1.097118,-0.649735,-5.563550,1.608951,-14.683336
1790545854.9210,0.004547,0.005098,-0.547234,0.006299,-0.000859,-0.547234,-1.177714,0.468193,-0.570816,-5.640206,0.790991,-9.909560
1790545854.9351,-0.003585,0.019840,-0.545446,-0.000620,0.013630,-0.545446,-1.089082,0.975704,-0.512537,-2.765607,0.679451,-4.631238
1790545854.9490,-0.023378,0.033602,-0.561038,-0.016551,0.027610,-0.561038,-0.875393,1.455290,-0.451830,0.530599,1.943571,-4.941727
1790545854.9630,-0.023826,0.035510,-0.571162,-0.021643,0.033140,-0.571162,-0.070417,0.176799,-0.394766,-0.810880,2.017931,-6.688231
1790545854.9770,-0.020425,0.026917,-0.564213,-0.020790,0.028784,-0.564213,0.542725,-0.208085,0.143099,-1.462456,0.828171,-12.936833
1790545854.9910,-0.026321,0.023479,-0.552595,-0.024662,0.025070,-0.552595,0.229476,0.286071,0.813306,-0.082648,2.129471,-14.722147
1790545855.0049,-0.025769,0.019771,-0.533580,-0.025437,0.021361,-0.533580,0.185767,-0.180159,0.985714,-0.657568,0.493551,-12.315854
1790545855.0188,-0.023898,0.014617,-0.517234,-0.024360,0.016640,-0.517234,0.286541,-0.282147,0.758669,0.185647,0.233291,-7.891378
1790545855.0329,-0.040245,0.007063,-0.504827,-0.035479,0.009936,-0.504827,0.543939,0.811795,0.910437,3.021918,1.385871,-7.697322
1790545855.0468,-0.055030,-0.006697,-0.488583,-0.049165,-0.001707,-0.488583,0.943392,0.796011,1.172692,1.795423,1.014071,-9.443825
1790545855.0604,-0.067462,-0.017027,-0.480740,-0.061973,-0.012431,-0.480740,0.830477,0.785084,1.186047,-0.044320,2.873071,-9.327392
1790545855.0739,-0.073545,-0.021461,-0.471035,-0.070074,-0.018752,-0.471035,0.361818,0.367419,1.115627,-0.580912,2.984611,-11.656063
1790545855.0876,-0.069205,-0.024521,-0.455532,-0.069466,-0.022790,-0.455532,0.207622,-0.365923,1.221258,-1.577440,2.203831,-11.500819
1790545855.1016,-0.062824,-0.020188,-0.439430,-0.064817,-0.020969,-0.439430,-0.336314,-0.656103,1.130197,1.488799,2.055111,-12.548721
1790545855.1155,-0.059435,-0.016485,-0.415106,-0.061049,-0.017830,-0.415106,-0.412805,-0.521333,0.957789,3.175230,-0.510309,-11.500819
1790545855.1294,-0.053683,-0.011863,-0.390648,-0.055893,-0.013653,-0.390648,-0.496580,-0.707097,0.819377,3.098574,-0.844929,-9.288581
1790545855.1434,-0.046445,-0.003861,-0.371281,-0.049279,-0.006799,-0.371281,-0.699342,-0.789659,0.785381,2.178703,-0.212869,-7.852567
1790545855.1579,-0.036828,0.007503,-0.356562,-0.040563,0.003213,-0.356562,-0.854752,-0.868578,0.679750,1.182175,0.456371,-7.192776
1790545855.1718,-0.030870,0.017233,-0.344635,-0.033778,0.013027,-0.344635,-0.794045,-0.675529,0.469704,2.523654,0.121751,-8.939280
1790545855.1859,-0.022960,0.025805,-0.334456,-0.026206,0.021972,-0.334456,-0.710269,-0.713168,0.194093,2.178703,0.196111,-12.315854
1790545855.1998,-0.026919,0.026593,-0.332169,-0.026705,0.025206,-0.332169,-0.154192,0.246005,-0.217501,2.102047,0.419191,-15.459560
1790545855.2137,-0.030005,0.017734,-0.339112,-0.029015,0.019976,-0.339112,0.602218,0.413556,-0.791790,-1.002520,1.571771,-13.247322
1790545855.2275,-0.021497,0.007179,-0.353809,-0.023753,0.011018,-0.353809,0.806194,-0.318571,-1.064972,-1.730752,1.794851,-7.697322
1790545855.2415,-0.020987,0.006416,-0.401346,-0.021817,0.007797,-0.401346,0.278042,-0.282147,-0.563531,2.983590,2.426911,-4.243126
1790545855.2554,-0.012072,0.000182,-0.411261,-0.014995,0.002467,-0.411261,0.501444,-0.736236,-0.326774,1.795423,1.943571,-8.240679
1790545855.2693,0.003641,-0.010805,-0.420906,-0.001950,-0.006824,-0.420906,0.804980,-0.922000,-0.765079,-2.420655,2.203831,-11.539630
1790545855.2833,0.015918,-0.021711,-0.443777,0.010558,-0.017245,-0.443777,0.853546,-0.731380,-1.047974,-0.772552,3.058971,-10.414105
1790545855.2968,0.020257,-0.027908,-0.467771,0.017347,-0.024709,-0.467771,0.569436,-0.322214,-0.937487,1.143847,2.761531,-7.542077
1790545855.3104,0.028989,-0.036942,-0.476346,0.025496,-0.033272,-0.476346,0.615574,-0.540759,-0.790576,-0.734224,0.902531,-9.405014
1790545855.3244,0.025674,-0.049748,-0.487229,0.025621,-0.044806,-0.487229,0.919109,0.282429,-0.519822,-0.427600,1.906391,-12.548721
1790545855.3382,0.007586,-0.049477,-0.499324,0.012996,-0.048076,-0.499324,0.006074,1.292595,-0.480970,1.527127,3.430771,-18.797322
1790545855.3522,0.007092,-0.041716,-0.487131,0.008863,-0.043624,-0.487131,-0.718768,0.265431,-0.523465,-4.068759,-1.291089,-12.121798
1790545855.3661,0.007699,-0.030582,-0.467678,0.008049,-0.034495,-0.467678,-0.996807,0.315211,-0.550176,-4.490366,-1.402628,-7.503266
1790545855.3799,-0.000282,-0.016188,-0.455836,0.002217,-0.021680,-0.455836,-1.266347,0.964777,-0.513751,-3.378855,-1.291089,-5.368651
1790545855.3942,-0.009987,-0.003862,-0.447375,-0.006326,-0.009207,-0.447375,-1.115793,0.982989,-0.286707,-2.842263,-1.774428,-5.795574
1790545855.4085,-0.026035,0.015153,-0.456689,-0.020122,0.007845,-0.456689,-1.293058,1.365444,-0.446974,-1.654096,1.274331,-5.562707
1790545855.4226,-0.037480,0.026522,-0.456795,-0.032272,0.020919,-0.456795,-0.920316,0.984203,-0.261210,-2.343999,-0.138509,-13.635434
1790545855.4367,-0.033163,0.022851,-0.448527,-0.032896,0.022271,-0.448527,0.121418,-0.302788,0.208663,-0.964192,-0.770569,-14.411658
1790545855.4505,-0.025203,0.025852,-0.441615,-0.027511,0.024778,-0.441615,-0.199116,-0.685242,0.485487,0.300631,2.538451,-12.199420
1790545855.4644,-0.036190,0.022189,-0.451530,-0.033586,0.022965,-0.451530,0.344820,0.422055,0.779310,2.446998,1.720491,-5.523895
1790545855.4785,-0.044713,0.016560,-0.464242,-0.041375,0.018482,-0.464242,0.562151,0.377132,0.379857,1.795423,2.501271,-5.329839
1790545855.4924,-0.055584,0.010368,-0.469999,-0.051321,0.012802,-0.469999,0.522085,0.549540,0.351932,3.021918,2.538451,-8.473546
1790545855.5063,-0.068463,0.001041,-0.470968,-0.063321,0.004569,-0.470968,0.712705,0.736518,0.459990,2.868606,2.724351,-11.190329
1790545855.5199,-0.082735,-0.007007,-0.473348,-0.076911,-0.003534,-0.473348,0.699349,0.878573,0.677322,1.757095,3.282051,-8.978091
1790545855.5335,-0.094281,-0.011613,-0.472819,-0.089070,-0.009189,-0.472819,0.421311,0.715878,0.750170,1.258831,3.356411,-9.909560
1790545855.5471,-0.098305,-0.016899,-0.471364,-0.095534,-0.014586,-0.471364,0.469877,0.225364,0.724673,0.300631,3.356411,-9.754315
1790545855.5611,-0.098155,-0.021722,-0.466343,-0.097369,-0.019581,-0.466343,0.355747,-0.104882,0.610544,1.143847,2.612811,-11.966553
1790545855.5750,-0.085734,-0.023969,-0.451459,-0.089225,-0.022653,-0.451459,0.057068,-0.943855,0.631185,-0.044320,0.530731,-13.286133
1790545855.5890,-0.077620,-0.019887,-0.441255,-0.081101,-0.020717,-0.441255,-0.335100,-0.722881,0.594760,1.335487,1.125611,-9.094525
1790545855.6029,-0.073203,-0.015351,-0.415425,-0.075572,-0.016961,-0.415425,-0.492938,-0.611180,0.690677,2.791950,-0.547489,-7.037532
1790545855.6169,-0.066563,-0.008360,-0.399268,-0.069266,-0.010941,-0.399268,-0.610710,-0.719238,0.552265,2.638638,0.084571,-8.357112
1790545855.6308,-0.050908,0.003779,-0.390561,-0.056415,-0.000637,-0.390561,-0.923958,-1.259532,0.262085,1.872079,1.088431,-11.539630
1790545855.6446,-0.038081,0.020271,-0.386158,-0.043581,0.013999,-0.386158,-1.228708,-1.175756,0.088463,4.171758,1.348691,-10.763406
1790545855.6589,-0.026953,0.039794,-0.381948,-0.031941,0.032055,-0.381948,-1.391403,-1.095622,0.050825,4.210086,1.014071,-7.348021
1790545855.6730,-0.026745,0.042068,-0.374303,-0.028304,0.039064,-0.374303,-0.259823,-0.027177,-0.179862,1.067191,0.605091,-13.169700
1790545855.6870,-0.036164,0.031884,-0.386905,-0.033806,0.034038,-0.386905,0.773412,0.912569,-0.616954,-1.884064,2.724351,-11.073895
1790545855.7009,-0.019728,0.022408,-0.403513,-0.023951,0.025897,-0.403513,0.757628,-0.752020,-1.112324,-6.330110,4.285911,-13.635434
1790545855.7149,-0.020448,0.017591,-0.420306,-0.021499,0.020083,-0.420306,0.369103,0.112449,-0.894992,1.680439,2.464091,-11.229140
1790545855.7288,-0.015872,0.012835,-0.434725,-0.017560,0.015009,-0.434725,0.378816,-0.144949,-0.816073,-1.002520,2.352551,-10.064805
1790545855.7428,-0.003534,0.001929,-0.445479,-0.007742,0.005853,-0.445479,0.740630,-0.588111,-1.149962,-2.343999,1.162791,-9.987182
1790545855.7563,0.004952,-0.006960,-0.474326,0.001144,-0.003116,-0.474326,0.792838,-0.422988,-1.225239,-0.580912,2.761531,-6.688231
1790545855.7699,0.012075,-0.011330,-0.505952,0.008795,-0.008866,-0.505952,0.551224,-0.398705,-1.054045,-0.005993,3.393591,-5.523895
1790545855.7839,0.019515,-0.019531,-0.523710,0.016299,-0.016331,-0.523710,0.593719,-0.376850,-1.006693,-0.695896,1.832031,-8.589979
1790545855.7978,0.018471,-0.029973,-0.538764,0.017820,-0.025880,-0.538764,0.830477,0.125805,-0.587814,-0.044320,3.765391,-13.014455
1790545855.8118,-0.005941,-0.025797,-0.551244,0.001188,-0.025822,-0.551244,-0.313245,1.828032,-0.610883,-0.159304,3.133331,-21.281238
1790545855.8259,-0.009391,-0.010961,-0.558301,-0.006217,-0.015419,-0.558301,-1.079369,0.505831,-0.552604,-4.988630,1.646131,-14.489280
1790545855.8398,-0.013781,0.005228,-0.548557,-0.011512,-0.000966,-0.548557,-1.262704,0.749874,-0.534392,-4.145415,-0.064149,-5.679140
1790545855.8537,-0.023559,0.016766,-0.548239,-0.019945,0.011446,-0.548239,-0.976167,0.885857,-0.462758,-0.772552,-0.287229,-4.670049
1790545855.8675,-0.032128,0.025802,-0.550127,-0.028473,0.021495,-0.550127,-0.751550,0.822722,-0.358341,-0.580912,0.047391,-2.768301
1790545855.8815,-0.031445,0.021471,-0.548213,-0.030553,0.021478,-0.548213,0.184553,0.116091,-0.301277,-3.110559,-0.659029,-17.089630
1790545855.8955,-0.032754,0.018226,-0.541088,-0.032094,0.019201,-0.541088,0.200337,-0.011394,0.411425,1.105519,2.129471,-17.477742
1790545855.9100,-0.037845,0.018350,-0.531483,-0.036120,0.018605,-0.531483,0.006074,0.167085,0.742886,1.527127,2.649991,-12.898021
1790545855.9242,-0.039491,0.008879,-0.515240,-0.038480,0.011797,-0.515240,0.547582,-0.070886,0.727102,0.798895,-0.175689,-6.416553
1790545855.9383,-0.045632,-0.005937,-0.497477,-0.043486,-0.000617,-0.497477,0.851117,0.306712,0.621471,0.530599,-1.105189,-6.300119
1790545855.9521,-0.065440,-0.020335,-0.496508,-0.058854,-0.014419,-0.496508,1.098802,1.193035,0.685821,2.830278,2.389731,-9.249770
1790545855.9662,-0.082489,-0.029321,-0.492032,-0.075398,-0.024851,-0.492032,0.715133,1.081334,0.925007,0.990535,2.984611,-9.637881
1790545855.9798,-0.094951,-0.039368,-0.483807,-0.089085,-0.035013,-0.483807,0.751558,0.822722,0.969930,0.530599,2.724351,-12.315854
1790545855.9949,-0.103503,-0.051684,-0.471539,-0.099177,-0.046683,-0.471539,0.798909,0.486405,1.073132,0.262303,1.943571,-9.948371
1790545856.0098,-0.098794,-0.057323,-0.457104,-0.098909,-0.054131,-0.457104,0.309610,-0.392634,0.944433,0.530599,1.199971,-12.082986
1790545856.0243,-0.088287,-0.058822,-0.445242,-0.091474,-0.057415,-0.445242,0.047355,-0.769018,0.733172,0.185647,1.051251,-12.044175
1790545856.0388,-0.085695,-0.061672,-0.424480,-0.087429,-0.060395,-0.424480,0.006074,-0.418131,0.725888,3.980118,-1.811608,-10.608161
1790545856.0540,-0.077527,-0.059978,-0.406133,-0.080498,-0.060103,-0.406133,-0.287748,-0.733808,0.605688,3.136902,-1.662888,-9.793126
1790545856.0683,-0.067828,-0.045820,-0.400852,-0.071629,-0.050105,-0.400852,-1.032017,-0.940212,0.521912,3.826806,0.753811,-9.366203
1790545856.0825,-0.056443,-0.026812,-0.387834,-0.060999,-0.033800,-0.387834,-1.454539,-1.025202,0.523126,2.791950,-0.324409,-9.210958
1790545856.0967,-0.047240,-0.008604,-0.379134,-0.051368,-0.016163,-0.379134,-1.393831,-0.954782,0.385928,3.903462,-0.398769,-8.085434
1790545856.1105,-0.035071,0.007422,-0.373686,-0.039960,0.000346,-0.373686,-1.223852,-1.158758,0.348289,2.600310,0.382011,-6.921098
1790545856.1244,-0.017139,0.026168,-0.374323,-0.023985,0.018421,-0.374323,-1.306413,-1.548497,0.375001,1.680439,1.348691,-5.834385
1790545856.1384,-0.023991,0.027837,-0.368837,-0.023989,0.025013,-0.368837,-0.177261,0.384417,0.190451,2.485326,1.720491,-19.495924
1790545856.1527,-0.027038,0.022884,-0.378937,-0.026124,0.023523,-0.378937,0.403099,0.466978,-0.542891,-2.842263,2.873071,-10.297672
1790545856.1669,-0.017915,0.018594,-0.404568,-0.020378,0.020073,-0.404568,0.417669,-0.460626,-1.090469,-0.235960,3.988471,-10.918651
1790545856.1816,-0.007912,0.016521,-0.418362,-0.011652,0.017586,-0.418362,0.206408,-0.469125,-0.712871,-1.155832,1.646131,-5.562707
1790545856.1955,0.004072,0.005645,-0.421102,-0.000645,0.009228,-0.421102,0.770984,-0.594182,-0.579315,-2.918919,1.460231,-8.512357
1790545856.2089,0.017331,-0.009439,-0.428116,0.011938,-0.003839,-0.428116,1.095160,-0.772661,-0.813645,-1.999048,1.274331,-9.288581
1790545856.2221,0.032900,-0.019648,-0.450036,0.026612,-0.014905,-0.450036,0.943392,-0.902574,-0.949628,-2.458983,3.393591,-6.843476
1790545856.2350,0.039567,-0.027834,-0.472471,0.035680,-0.023955,-0.472471,0.779483,-0.459412,-0.956913,0.223975,3.579491,-8.085434
1790545856.2486,0.038138,-0.038993,-0.491263,0.037401,-0.034482,-0.491263,0.928822,0.233863,-0.688588,-1.615768,4.062831,-10.918651
1790545856.2626,0.014055,-0.035778,-0.501845,0.021059,-0.035389,-0.501845,-0.259823,1.688405,-0.769935,2.983590,2.575631,-16.391028
1790545856.2764,0.011132,-0.025293,-0.502891,0.014110,-0.028322,-0.502891,-0.866894,0.554397,-0.734725,-6.061814,-0.064149,-12.199420
1790545856.2904,0.006292,-0.016946,-0.496705,0.008637,-0.020359,-0.496705,-0.814686,0.667312,-0.708014,-4.107087,-1.848788,-9.288581
1790545856.3043,-0.006293,0.000066,-0.493551,-0.001814,-0.006062,-0.493551,-1.426613,1.247672,-0.558675,-2.650623,-1.030829,-5.446273
1790545856.3182,-0.010053,0.017610,-0.493830,-0.007581,0.010509,-0.493830,-1.404759,0.734090,-0.478541,-3.378855,-0.473129,-4.126693
1790545856.3323,-0.024069,0.030417,-0.502164,-0.019123,0.024444,-0.502164,-1.000449,1.265884,-0.591457,-1.845736,0.344831,-7.464455
1790545856.3461,-0.021317,0.022644,-0.504151,-0.020659,0.023184,-0.504151,0.472305,-0.075743,-0.310990,-1.845736,0.456371,-15.498371
1790545856.3602,-0.019090,0.021312,-0.497560,-0.019560,0.021874,-0.497560,0.134773,-0.217798,0.446635,-0.504256,2.761531,-11.656063
1790545856.3742,-0.030612,0.018859,-0.487543,-0.027297,0.019763,-0.487543,0.137202,0.630888,0.881298,1.028863,1.162791,-11.345574
1790545856.3881,-0.033739,0.007235,-0.477374,-0.031806,0.010994,-0.477374,0.676281,-0.040533,0.853373,2.025391,-0.993649,-9.405014
1790545856.4024,-0.048130,-0.005499,-0.475887,-0.043233,-0.000551,-0.475887,0.968889,0.816651,0.600831,1.948735,2.612811,-8.939280
1790545856.4171,-0.065659,-0.013230,-0.471449,-0.058931,-0.009426,-0.471449,0.579149,0.978132,0.778096,2.063719,2.203831,-8.240679
1790545856.4314,-0.081101,-0.021015,-0.464527,-0.074450,-0.017538,-0.464527,0.619216,0.911354,0.925007,1.258831,2.910251,-8.745224
1790545856.4453,-0.097103,-0.027820,-0.456579,-0.090307,-0.024735,-0.456579,0.542725,0.980561,0.989356,1.565455,2.835891,-9.327392
1790545856.4591,-0.102258,-0.031599,-0.447386,-0.098673,-0.029540,-0.447386,0.348462,0.264217,1.025781,0.492271,3.244871,-8.706413
1790545856.4733,-0.098060,-0.036399,-0.433146,-0.098244,-0.034341,-0.433146,0.261044,-0.416917,0.946861,0.990535,1.237151,-11.733686
1790545856.4875,-0.089167,-0.035554,-0.421856,-0.091890,-0.035190,-0.421856,-0.101984,-0.720452,0.742886,0.952207,1.757671,-13.014455
1790545856.5012,-0.081693,-0.033923,-0.410407,-0.084752,-0.034303,-0.410407,-0.199116,-0.707097,0.655467,1.910407,0.567911,-10.220049
1790545856.5156,-0.074816,-0.031485,-0.394728,-0.077797,-0.032330,-0.394728,-0.319316,-0.752020,0.633613,2.600310,-0.547489,-6.571797
1790545856.5296,-0.067828,-0.022305,-0.385171,-0.070819,-0.025313,-0.385171,-0.712698,-0.796943,0.566835,2.523654,0.382011,-5.601518
1790545856.5436,-0.056569,-0.010865,-0.373618,-0.060844,-0.015199,-0.373618,-0.919102,-0.917144,0.400498,1.258831,0.047391,-10.996273
1790545856.5577,-0.045286,0.001944,-0.366627,-0.049953,-0.003199,-0.366627,-1.011377,-1.005776,0.149170,4.171758,-0.101329,-13.247322
1790545856.5720,-0.027880,0.021619,-0.366241,-0.034502,0.014174,-0.366241,-1.415686,-1.365162,-0.134939,2.906934,1.237151,-11.229140
1790545856.5859,-0.018702,0.042525,-0.371743,-0.023442,0.034020,-0.371743,-1.486106,-0.840653,-0.184719,2.753622,1.608951,-7.852567
1790545856.5999,-0.035800,0.039649,-0.366016,-0.032092,0.037960,-0.366016,-0.008495,1.303522,-0.528321,1.335487,-2.146228,-14.644525
1790545856.6138,-0.029008,0.025050,-0.369124,-0.029933,0.028923,-0.369124,0.991958,-0.059959,-0.996980,-6.138470,1.051251,-14.139979
1790545856.6279,-0.026711,0.027042,-0.420793,-0.027678,0.027606,-0.420793,0.195481,-0.143735,-1.102610,2.025391,4.843611,-5.368651
1790545856.6420,-0.030820,0.025531,-0.435836,-0.029877,0.026154,-0.435836,0.148129,0.287285,-0.739582,2.446998,2.426911,-9.948371
1790545856.6561,-0.020113,0.017569,-0.444647,-0.023043,0.020145,-0.444647,0.552438,-0.504335,-0.905919,-1.999048,1.646131,-10.608161
1790545856.6700,-0.007970,0.006323,-0.460260,-0.012492,0.010469,-0.460260,0.835333,-0.645176,-1.088041,-1.040848,1.869211,-8.434735
1790545856.6837,-0.001815,-0.002990,-0.481681,-0.005018,0.001048,-0.481681,0.760057,-0.268792,-1.122037,-0.389272,2.352551,-7.464455
1790545856.6974,0.004283,-0.007839,-0.507137,0.001493,-0.005173,-0.507137,0.494159,-0.291860,-1.159675,-0.082648,2.761531,-6.338930
1790545856.7114,0.012163,-0.016902,-0.522907,0.008962,-0.013383,-0.522907,0.620430,-0.420559,-1.139035,-0.159304,1.162791,-7.542077
1790545856.7253,0.000983,-0.022749,-0.542602,0.003377,-0.019939,-0.542602,0.513586,0.883429,-0.800289,0.262303,3.728211,-11.035084
1790545856.7398,-0.014710,-0.014063,-0.557270,-0.009284,-0.015826,-0.557270,-0.603425,1.212462,-0.761436,-0.619240,2.910251,-17.516553
1790545856.7539,-0.017444,0.004025,-0.562193,-0.014996,-0.001930,-0.562193,-1.333124,0.524043,-0.695873,-4.950302,0.976891,-11.927742
1790545856.7682,-0.022079,0.020739,-0.560281,-0.019954,0.013938,-0.560281,-1.246920,0.771728,-0.674018,-4.605350,0.233291,-6.843476
1790545856.7821,-0.037668,0.033051,-0.571234,-0.032354,0.027317,-0.571234,-0.902104,1.383656,-0.593885,-0.580912,0.382011,-2.574245
1790545856.7961,-0.033068,0.034200,-0.579055,-0.032854,0.032135,-0.579055,-0.063132,0.055384,-0.666733,-3.992103,1.757671,-8.318301
1790545856.8101,-0.027387,0.022333,-0.579023,-0.029027,0.025273,-0.579023,0.853546,-0.390206,-0.051163,-0.235960,1.757671,-9.831937
1790545856.8240,-0.042761,0.017715,-0.573327,-0.038641,0.019983,-0.573327,0.352105,1.063122,0.676108,-1.232488,3.021791,-14.217602
1790545856.8380,-0.046462,0.010990,-0.560807,-0.044116,0.013688,-0.560807,0.405527,0.188940,0.866728,-1.079176,0.753811,-12.277042
1790545856.8520,-0.049107,0.006034,-0.549379,-0.047610,0.008330,-0.549379,0.343606,0.054170,0.842445,0.262303,1.683311,-10.064805
1790545856.8658,-0.054532,0.002321,-0.538140,-0.052455,0.004124,-0.538140,0.247689,0.214437,0.791451,1.067191,1.274331,-8.551168
1790545856.8797,-0.071504,-0.008054,-0.521247,-0.065789,-0.004400,-0.521247,0.724846,0.908926,1.176334,2.600310,1.497411,-8.706413
1790545856.8937,-0.081786,-0.019344,-0.505422,-0.076987,-0.014861,-0.505422,0.716347,0.663669,1.177548,-0.772552,0.642271,-9.754315
1790545856.9075,-0.089796,-0.022751,-0.492846,-0.085954,-0.020384,-0.492846,0.319323,0.514330,1.167835,-0.772552,3.802571,-10.336483
1790545856.9219,-0.087122,-0.026191,-0.476868,-0.086772,-0.024449,-0.476868,0.199123,-0.220226,1.184833,-1.500784,1.980751,-10.646972
1790545856.9361,-0.083934,-0.026352,-0.462110,-0.084785,-0.025781,-0.462110,0.007288,-0.339212,1.075561,0.223975,2.426911,-10.608161
1790545856.9501,-0.075948,-0.026236,-0.447085,-0.078599,-0.026099,-0.447085,-0.112912,-0.694956,0.908009,0.722239,0.419191,-11.384385
1790545856.9644,-0.069217,-0.020603,-0.432068,-0.072032,-0.022252,-0.432068,-0.461370,-0.664602,0.816948,1.910407,0.865351,-10.258860
1790545856.9784,-0.064080,-0.014527,-0.417182,-0.066465,-0.016844,-0.417182,-0.539075,-0.589325,0.680964,2.178703,0.084571,-8.745224
1790545856.9922,-0.055607,-0.005476,-0.406287,-0.058864,-0.008887,-0.406287,-0.695700,-0.817584,0.493986,2.217030,0.976891,-9.055714
1790545857.0062,-0.047680,0.004621,-0.396810,-0.051035,0.000569,-0.396810,-0.809829,-0.775089,0.197736,3.366870,0.233291,-10.841028
1790545857.0201,-0.037730,0.020498,-0.393131,-0.041722,0.014519,-0.393131,-1.155860,-0.923214,-0.060876,3.673494,1.460231,-9.793126
1790545857.0340,-0.032450,0.032103,-0.391526,-0.035231,0.026828,-0.391526,-0.906960,-0.497050,-0.291563,3.021918,0.716631,-10.918651
1790545857.0481,-0.038665,0.028416,-0.398060,-0.037635,0.027939,-0.398060,0.156628,0.554397,-0.810002,1.067191,-0.026969,-13.247322
1790545857.0620,-0.037547,0.020184,-0.417631,-0.037573,0.022511,-0.417631,0.618002,0.272716,-1.364865,-1.769080,1.869211,-9.909560
1790545857.0760,-0.031054,0.011084,-0.436961,-0.033010,0.014512,-0.436961,0.692065,-0.342854,-1.316299,1.412143,1.943571,-8.900469
1790545857.0900,-0.028838,0.004782,-0.453894,-0.030089,0.007701,-0.453894,0.540297,-0.200800,-0.901063,2.370342,2.241011,-7.192776
1790545857.1039,-0.019182,-0.007765,-0.463863,-0.022454,-0.003125,-0.463863,0.819550,-0.515262,-1.135392,-0.389272,0.270471,-12.626343
1790545857.1179,-0.005357,-0.017154,-0.489894,-0.010486,-0.012945,-0.489894,0.783125,-0.742307,-1.413431,-1.232488,3.356411,-9.443825
1790545857.1313,0.003359,-0.023184,-0.516744,-0.000795,-0.020112,-0.516744,0.529370,-0.458198,-1.608908,-0.044320,2.501271,-7.658511
1790545857.1449,0.003634,-0.029333,-0.537186,0.002306,-0.026567,-0.537186,0.483232,0.057813,-1.352724,0.798895,1.646131,-6.804665
1790545857.1589,0.005279,-0.039587,-0.559404,0.004387,-0.035681,-0.559404,0.797695,0.059027,-1.126893,-0.849208,2.166651,-7.697322
1790545857.1732,-0.015297,-0.042870,-0.570696,-0.009392,-0.040714,-0.570696,0.190624,1.426151,-0.996980,2.446998,1.088431,-11.694875
1790545857.1873,-0.018615,-0.037163,-0.582579,-0.015848,-0.038228,-0.582579,-0.508722,0.519187,-1.006693,-4.873646,-0.733389,-16.158161
1790545857.2013,-0.020223,-0.023039,-0.596296,-0.018910,-0.027596,-0.596296,-1.067227,0.463336,-0.915633,-4.222071,0.307651,-9.831937
1790545857.2151,-0.019274,-0.006798,-0.604218,-0.019165,-0.013037,-0.604218,-1.314912,0.341922,-0.801503,-4.030431,-0.733389,-7.076343
1790545857.2289,-0.027296,0.009039,-0.611243,-0.024856,0.002416,-0.611243,-1.340409,0.950207,-0.710442,-2.650623,-1.142369,-5.756762
1790545857.2429,-0.039076,0.020975,-0.622827,-0.034810,0.015407,-0.622827,-1.004092,1.172395,-0.814859,-1.960720,-0.659029,-6.688231
1790545857.2568,-0.047137,0.031845,-0.636749,-0.043439,0.026914,-0.636749,-0.633779,0.752302,-0.824572,-0.082648,3.356411,-7.930189
1790545857.2708,-0.037249,0.027823,-0.639066,-0.039106,0.027551,-0.639066,0.247689,-0.669459,-0.313418,0.300631,1.720491,-16.080539
1790545857.2847,-0.040432,0.023111,-0.633040,-0.040034,0.024443,-0.633040,0.291398,0.110021,0.432065,1.373815,1.646131,-15.847672
1790545857.2986,-0.040073,0.015924,-0.620835,-0.040061,0.018480,-0.620835,0.468662,-0.322214,0.804807,2.868606,1.051251,-10.297672
1790545857.3125,-0.032512,0.012210,-0.617041,-0.034777,0.014091,-0.617041,0.325394,-0.296717,0.209877,-3.302199,1.720491,-6.067252
1790545857.3263,-0.049067,0.008922,-0.615018,-0.044780,0.010473,-0.615018,0.267115,0.831221,0.229303,3.021918,0.939711,-4.204315
1790545857.3403,-0.060854,-0.002293,-0.612652,-0.056031,0.001537,-0.612652,0.786768,0.757158,0.264514,1.527127,1.571771,-12.160609
1790545857.3543,-0.076876,-0.011472,-0.607582,-0.070623,-0.007569,-0.607582,0.730917,0.957492,0.636041,2.600310,3.282051,-10.685784
1790545857.3678,-0.090804,-0.014493,-0.604300,-0.084749,-0.012416,-0.604300,0.388529,0.958706,0.745314,0.223975,3.876931,-7.852567
1790545857.3815,-0.094830,-0.018520,-0.597110,-0.091806,-0.016689,-0.597110,0.346034,0.226578,0.757455,0.147319,2.798711,-9.249770
1790545857.3958,-0.092774,-0.023007,-0.590789,-0.092484,-0.021112,-0.590789,0.375174,-0.197157,0.609330,0.185647,2.835891,-9.249770
1790545857.4099,-0.082868,-0.023820,-0.579747,-0.085753,-0.023008,-0.579747,0.032785,-0.822440,0.645754,1.642111,2.278191,-14.023546
1790545857.4243,-0.068911,-0.017634,-0.567419,-0.073963,-0.019246,-0.567419,-0.501437,-1.087123,0.598403,0.990535,0.753811,-10.530539
1790545857.4385,-0.061918,-0.010970,-0.548448,-0.065531,-0.013453,-0.548448,-0.593712,-0.792087,0.636041,3.405198,-0.250049,-8.512357
1790545857.4525,-0.056975,-0.001932,-0.531610,-0.059542,-0.005388,-0.531610,-0.775833,-0.664602,0.543766,2.945262,-0.324409,-6.727042
1790545857.4665,-0.046689,0.009384,-0.522749,-0.050545,0.004953,-0.522749,-0.852324,-0.917144,0.317936,2.178703,1.014071,-9.560259
1790545857.4806,-0.037314,0.021738,-0.516087,-0.041283,0.016702,-0.516087,-0.942171,-0.912287,0.082392,4.018446,0.753811,-10.142427
1790545857.4944,-0.025168,0.038805,-0.515696,-0.030003,0.032174,-0.515696,-1.218995,-1.093194,-0.085159,3.558510,1.980751,-9.327392
1790545857.5084,-0.024011,0.047906,-0.510869,-0.025808,0.043187,-0.510869,-0.756407,-0.262721,-0.179862,4.248414,0.270471,-11.617252
1790545857.5223,-0.040030,0.040224,-0.520769,-0.035763,0.041112,-0.520769,0.508729,1.335090,-0.725012,-0.159304,1.423051,-12.315854
1790545857.5363,-0.028577,0.033001,-0.545444,-0.030733,0.035434,-0.545444,0.525727,-0.249365,-1.394004,-6.713389,1.869211,-10.918651
1790545857.5501,-0.027642,0.027010,-0.565402,-0.028570,0.029537,-0.565402,0.505087,-0.040533,-1.074685,2.523654,2.612811,-8.589979
1790545857.5642,-0.026535,0.019602,-0.577746,-0.027145,0.022582,-0.577746,0.543939,0.050528,-0.785719,0.108991,1.832031,-8.978091
1790545857.5783,-0.011619,0.009977,-0.592274,-0.016277,0.013759,-0.592274,0.658069,-0.715596,-1.123251,-3.072231,1.199971,-9.676693
1790545857.5918,-0.001271,-0.002043,-0.610792,-0.005773,0.002698,-0.610792,0.910610,-0.572327,-1.268948,-0.312616,2.129471,-9.482637
1790545857.6054,0.005454,-0.010270,-0.636393,0.002086,-0.006380,-0.636393,0.707848,-0.337998,-1.368508,0.185647,2.315371,-6.106063
1790545857.6194,0.018062,-0.016207,-0.663276,0.013269,-0.013259,-0.663276,0.553652,-0.675529,-1.244665,-0.925864,2.575631,-5.834385
1790545857.6332,0.022813,-0.023944,-0.683737,0.019950,-0.020738,-0.683737,0.658069,-0.256650,-1.122037,0.453943,3.542311,-9.133336
1790545857.6471,-0.000315,-0.019208,-0.691498,0.005764,-0.019667,-0.691498,-0.445587,1.675050,-0.978768,3.098574,0.753811,-16.507462
1790545857.6610,-0.008226,-0.001605,-0.707855,-0.004029,-0.007024,-0.707855,-1.307627,0.865217,-0.816073,-5.908502,2.055111,-18.603266
1790545857.6754,-0.010816,0.014403,-0.717262,-0.008780,0.007975,-0.717262,-1.217781,0.476692,-0.654592,-4.030431,-0.138509,-11.229140
1790545857.6893,-0.022627,0.030386,-0.722476,-0.018473,0.023663,-0.722476,-1.330696,1.105617,-0.592671,-1.462456,-0.696209,-6.106063
1790545857.7034,-0.032656,0.046710,-0.738041,-0.028401,0.039796,-0.738041,-1.102437,0.950207,-0.671590,-0.542584,1.051251,-3.466902
1790545857.7174,-0.032791,0.047221,-0.751423,-0.031474,0.044993,-0.751423,-0.060703,0.349207,-0.745653,-3.187215,1.460231,-9.948371
1790545857.7314,-0.024200,0.029491,-0.751824,-0.026382,0.034141,-0.751824,1.153439,-0.572327,-0.405693,0.377287,-0.101329,-10.608161
1790545857.7452,-0.043970,0.026631,-0.745372,-0.038694,0.028884,-0.745372,0.384887,1.116544,0.496415,7.621276,8.115450,-14.644525
1790545857.7592,-0.046590,0.015304,-0.736426,-0.044221,0.019378,-0.736426,0.659283,0.238720,0.496415,-2.535639,-0.919289,-12.238231
1790545857.7732,-0.048893,0.008925,-0.724633,-0.047492,0.012061,-0.724633,0.389743,0.038386,0.741671,0.377287,0.902531,-11.966553
1790545857.7871,-0.052225,-0.000258,-0.716227,-0.050805,0.003438,-0.716227,0.591291,0.239934,0.621471,-0.810880,0.382011,-6.106063
1790545857.8010,-0.074752,-0.007265,-0.704747,-0.067568,-0.004054,-0.704747,0.563366,1.285310,0.980857,3.596838,2.501271,-8.201867
1790545857.8149,-0.084622,-0.019557,-0.693225,-0.079506,-0.014906,-0.693225,0.835333,0.632102,0.972358,-0.197632,0.939711,-7.153965
1790545857.8286,-0.089963,-0.026264,-0.684347,-0.086826,-0.022856,-0.684347,0.509943,0.358920,0.945647,-0.810880,2.649991,-10.918651
1790545857.8422,-0.090595,-0.026715,-0.673259,-0.089464,-0.025557,-0.673259,0.020644,-0.000466,1.006354,-0.695896,2.315371,-11.151518
1790545857.8562,-0.080747,-0.026979,-0.656873,-0.083362,-0.026553,-0.656873,-0.060703,-0.795729,1.133839,-0.427600,1.274331,-11.500819
1790545857.8701,-0.076438,-0.022848,-0.640267,-0.078515,-0.023960,-0.640267,-0.377595,-0.497050,1.016068,1.642111,0.976891,-11.539630
1790545857.8839,-0.072942,-0.017482,-0.620995,-0.074614,-0.019426,-0.620995,-0.534219,-0.533475,0.915294,3.021918,-0.361589,-9.676693
1790545857.8978,-0.066126,-0.009042,-0.604929,-0.068672,-0.012157,-0.604929,-0.705413,-0.759305,0.774453,2.523654,0.270471,-8.163056
1790545857.9121,-0.059095,0.001266,-0.590529,-0.061968,-0.002761,-0.590529,-0.829255,-0.801800,0.583833,3.213558,0.047391,-7.619700
1790545857.9267,-0.053564,0.011270,-0.579308,-0.056085,0.007061,-0.579308,-0.777047,-0.625749,0.421138,2.945262,0.196111,-8.589979
1790545857.9407,-0.044982,0.023076,-0.572011,-0.048313,0.018271,-0.572011,-0.911817,-0.798158,0.211091,2.217030,0.642271,-8.745224
1790545857.9545,-0.037738,0.034457,-0.567043,-0.040911,0.029601,-0.567043,-0.920316,-0.628178,-0.097301,2.446998,0.307651,-12.277042
1790545857.9686,-0.039194,0.032519,-0.569539,-0.039709,0.031644,-0.569539,0.004860,0.210794,-0.727440,1.067191,-0.733389,-16.662707
1790545857.9827,-0.038061,0.018362,-0.583825,-0.038555,0.022347,-0.583825,0.988315,0.102736,-1.122037,0.492271,1.683311,-13.402567
1790545857.9967,-0.033220,0.018688,-0.681691,-0.034821,0.019786,-0.681691,0.599790,-0.317357,-1.222810,1.258831,3.876931,-0.478441
1790545858.0106,-0.029770,0.015853,-0.682157,-0.031285,0.017033,-0.682157,0.261044,-0.365923,-0.647307,2.332014,1.646131,-5.834385
1790545858.0246,-0.018136,0.002723,-0.686542,-0.022081,0.007016,-0.686542,0.860830,-0.624535,-0.824572,-1.845736,0.493551,-12.587532
1790545858.0384,-0.005191,-0.006613,-0.710633,-0.010258,-0.002524,-0.710633,0.834119,-0.773875,-1.143891,-0.197632,4.174371,-9.327392
1790545858.0520,0.005347,-0.012858,-0.737170,0.000665,-0.009758,-0.737170,0.564580,-0.526190,-1.396433,-1.232488,3.393591,-9.210958
1790545858.0657,0.008631,-0.016903,-0.752421,0.006241,-0.014760,-0.752421,0.404313,-0.206870,-1.072257,1.105519,2.761531,-7.037532
1790545858.0813,0.012650,-0.028949,-0.771197,0.010727,-0.024692,-0.771197,0.780697,-0.072101,-0.874352,-1.500784,1.646131,-8.395923
1790545858.0960,-0.006637,-0.032027,-0.778084,-0.001428,-0.029826,-0.778084,0.134773,1.369086,-0.686160,0.492271,0.567911,-13.674245
1790545858.1104,-0.005654,-0.026791,-0.782501,-0.004386,-0.027701,-0.782501,-0.462584,0.209580,-0.676447,-5.793518,-0.361589,-15.343126
1790545858.1250,-0.008547,-0.014554,-0.787770,-0.007298,-0.018499,-0.787770,-0.930029,0.464550,-0.586600,-3.608823,0.010211,-10.064805
1790545858.1400,-0.013771,0.001158,-0.787202,-0.011829,-0.004739,-0.787202,-1.171643,0.679453,-0.516180,-3.033903,-0.398769,-5.912007
1790545858.1541,-0.018908,0.012484,-0.782691,-0.016785,0.007317,-0.782691,-0.965239,0.675811,-0.310990,-3.953775,-1.105189,-8.046623
1790545858.1682,-0.026549,0.021118,-0.786107,-0.023619,0.016978,-0.786107,-0.738195,0.847005,-0.419048,-3.302199,-0.361589,-8.395923
1790545858.1825,-0.035262,0.033885,-0.792590,-0.031769,0.028813,-0.792590,-0.851110,0.878573,-0.278208,-3.263871,2.203831,-8.628791
1790545858.1965,-0.030000,0.035602,-0.787583,-0.030531,0.033565,-0.787583,-0.251324,-0.351353,0.198950,-1.577440,-0.361589,-14.295224
1790545858.2106,-0.032710,0.030915,-0.775973,-0.032056,0.031710,-0.775973,0.246474,-0.041747,0.592332,3.021918,0.530731,-13.945924
1790545858.2245,-0.038875,0.025221,-0.763291,-0.036830,0.027168,-0.763291,0.378816,0.210794,0.880084,0.913879,0.865351,-6.338930
1790545858.2385,-0.040649,0.021626,-0.758959,-0.039503,0.023288,-0.758959,0.337535,0.321281,0.270584,-1.692424,1.311511,-3.932637
1790545858.2524,-0.047142,0.016671,-0.753774,-0.044851,0.018656,-0.753774,0.392172,0.305498,0.313079,1.718767,1.980751,-8.163056
1790545858.2664,-0.059405,0.007525,-0.748564,-0.055039,0.010865,-0.748564,0.662925,0.746231,0.430851,1.833751,2.092291,-11.500819
1790545858.2799,-0.076137,-0.001555,-0.739986,-0.069807,0.002171,-0.739986,0.722418,1.016985,0.693106,2.332014,2.464091,-8.900469
1790545858.2935,-0.086672,-0.007039,-0.733771,-0.081613,-0.004276,-0.733771,0.534226,0.700094,0.711318,0.223975,3.467951,-8.046623
1790545858.3071,-0.092370,-0.012587,-0.725543,-0.089143,-0.010093,-0.725543,0.420097,0.352849,0.770811,0.032335,1.980751,-8.512357
1790545858.3209,-0.092516,-0.021874,-0.717232,-0.091504,-0.018340,-0.717232,0.688422,-0.024749,0.750170,-0.504256,2.984611,-12.471098
1790545858.3349,-0.081493,-0.024348,-0.704018,-0.084496,-0.022545,-0.704018,0.046141,-0.852794,0.843659,-0.465928,0.047391,-13.907112
1790545858.3488,-0.071983,-0.015323,-0.685040,-0.075737,-0.017489,-0.685040,-0.728482,-0.970566,0.786595,4.401726,0.828171,-12.277042
1790545858.3630,-0.065863,-0.005671,-0.666161,-0.068825,-0.009217,-0.666161,-0.811043,-0.738665,0.689463,4.248414,-0.250049,-10.724595
1790545858.3770,-0.059656,0.006737,-0.649247,-0.062407,0.001951,-0.649247,-0.999235,-0.804228,0.480631,4.708349,-0.175689,-8.318301
1790545858.3912,-0.051047,0.022454,-0.639561,-0.054455,0.016303,-0.639561,-1.126720,-0.920786,0.394427,3.711822,1.423051,-8.085434
1790545858.4052,-0.038801,0.037632,-0.630941,-0.043498,0.031233,-0.630941,-1.086654,-1.150259,0.309437,2.753622,1.385871,-7.192776
1790545858.4193,-0.027682,0.050902,-0.621935,-0.032427,0.045002,-0.621935,-0.949455,-1.031273,0.381071,2.715294,2.203831,-10.763406
1790545858.4338,-0.039441,0.048932,-0.619815,-0.037337,0.047753,-0.619815,0.077709,0.763229,0.004687,2.025391,1.757671,-16.973196
1790545858.4477,-0.037223,0.046917,-0.630062,-0.037257,0.047168,-0.630062,0.165127,-0.004109,-0.672804,-0.427600,3.505131,-15.770049
1790545858.4618,-0.018888,0.043077,-0.651150,-0.024399,0.044304,-0.651150,0.341178,-0.760519,-0.801503,-5.831846,2.092291,-6.144874
1790545858.4759,-0.023058,0.032368,-0.655301,-0.023461,0.035949,-0.655301,0.704206,0.306712,-0.493111,1.143847,0.790991,-8.046623
1790545858.4898,-0.011881,0.021919,-0.663543,-0.015355,0.026128,-0.663543,0.724846,-0.566256,-0.699515,-2.535639,1.534591,-11.267951
1790545858.5038,0.000549,0.011964,-0.678110,-0.004222,0.016213,-0.678110,0.728489,-0.595396,-0.958127,-2.382327,1.906391,-8.589979
1790545858.5174,0.001908,0.000677,-0.691325,0.000069,0.005338,-0.691325,0.797695,-0.039319,-1.071043,1.335487,1.423051,-9.210958
1790545858.5310,0.011182,-0.004181,-0.711122,0.007848,-0.001325,-0.711122,0.450450,-0.500693,-1.157247,-0.427600,2.352551,-6.416553
1790545858.5449,0.019872,-0.011075,-0.723236,0.016265,-0.008150,-0.723236,0.460163,-0.522547,-0.983624,0.070663,1.311511,-8.861658
1790545858.5590,0.027188,-0.016784,-0.737779,0.023911,-0.014194,-0.737779,0.472305,-0.443628,-0.853711,0.070663,3.096151,-9.676693
1790545858.5731,0.007577,-0.019475,-0.750451,0.012477,-0.017891,-0.750451,0.088636,1.479573,-0.945986,0.722239,0.790991,-16.080539
1790545858.5871,-0.001231,-0.007130,-0.763022,0.002882,-0.010358,-0.763022,-1.021090,1.025484,-0.797861,-6.905029,-0.919289,-12.509909
1790545858.6012,-0.009642,0.002097,-0.764831,-0.005885,-0.001640,-0.764831,-0.987094,0.887072,-0.616954,-3.417183,-4.153948,-9.133336
1790545858.6151,-0.017179,0.012346,-0.771839,-0.013791,0.008150,-0.771839,-1.040516,0.985417,-0.606026,-4.413711,-2.927008,-5.912007
1790545858.6290,-0.026381,0.023341,-0.777584,-0.022604,0.018784,-0.777584,-0.961597,0.902855,-0.399622,-2.229015,-0.956469,-8.046623
1790545858.6429,-0.026058,0.021911,-0.779078,-0.025022,0.020973,-0.779078,0.093493,0.140374,-0.224786,-3.455511,2.612811,-16.546273
1790545858.6568,-0.026883,0.020398,-0.773084,-0.026324,0.020571,-0.773084,0.057068,-0.002895,0.447849,-0.427600,1.497411,-17.516553
1790545858.6708,-0.035450,0.017005,-0.762844,-0.032712,0.018075,-0.762844,0.229476,0.311568,1.033066,2.370342,1.571771,-10.336483
1790545858.6852,-0.036247,0.005797,-0.748648,-0.035187,0.009480,-0.748648,0.673853,-0.222654,1.138696,1.143847,-0.064149,-6.998721
1790545858.6993,-0.040814,0.000358,-0.737490,-0.039126,0.003094,-0.737490,0.433452,0.334637,0.676108,-1.270816,1.794851,-7.270399
1790545858.7132,-0.053909,-0.003430,-0.730842,-0.049474,-0.001473,-0.730842,0.346034,0.730447,0.772025,1.833751,2.687171,-8.900469
1790545858.7272,-0.063605,-0.013354,-0.720333,-0.059366,-0.009790,-0.720333,0.696921,0.531328,0.892225,1.258831,1.943571,-12.121798
1790545858.7409,-0.079086,-0.020509,-0.710974,-0.073170,-0.017293,-0.710974,0.577935,0.855504,1.052492,2.906934,2.724351,-9.288581
1790545858.7545,-0.086056,-0.023325,-0.699151,-0.082190,-0.021515,-0.699151,0.280470,0.398987,1.009997,0.338959,3.021791,-8.784035
1790545858.7681,-0.090147,-0.028522,-0.686230,-0.087760,-0.026420,-0.686230,0.377602,0.159801,1.020924,0.875551,2.166651,-9.948371
1790545858.7822,-0.086400,-0.035031,-0.674728,-0.086808,-0.032448,-0.674728,0.432238,-0.365923,0.795094,0.798895,1.869211,-12.548721
1790545858.7961,-0.077824,-0.036832,-0.662751,-0.080519,-0.035517,-0.662751,0.069210,-0.748378,0.782952,1.603783,1.311511,-14.256413
1790545858.8100,-0.071315,-0.031231,-0.652011,-0.074076,-0.032516,-0.652011,-0.468655,-0.686457,0.719817,2.676966,0.679451,-9.987182
1790545858.8239,-0.068587,-0.023167,-0.640842,-0.070234,-0.025972,-0.640842,-0.701770,-0.517691,0.740457,4.018446,-0.250049,-9.055714
1790545858.8378,-0.060315,-0.013690,-0.631724,-0.063291,-0.017375,-0.631724,-0.797688,-0.799372,0.466061,2.255358,-0.250049,-8.434735
1790545858.8518,-0.044480,-0.000551,-0.625493,-0.050123,-0.005598,-0.625493,-0.968882,-1.276530,0.319150,1.718767,1.237151,-10.452916
1790545858.8657,-0.030950,0.017490,-0.623488,-0.036702,0.010564,-0.623488,-1.358621,-1.288671,0.104247,4.440053,0.456371,-8.357112
1790545858.8800,-0.019078,0.039572,-0.629979,-0.024365,0.030869,-0.629979,-1.490963,-1.038558,-0.179862,3.098574,2.315371,-7.697322
1790545858.8939,-0.031756,0.034213,-0.626392,-0.029539,0.033210,-0.626392,0.160270,0.895571,-0.471257,2.945262,-2.555208,-13.790679
1790545858.9079,-0.029010,0.024656,-0.642726,-0.029169,0.027222,-0.642726,0.715133,0.077239,-1.158461,-1.232488,2.538451,-11.267951
1790545858.9219,-0.018493,0.019403,-0.662405,-0.021696,0.021748,-0.662405,0.469877,-0.571113,-1.101396,-0.082648,2.947431,-8.667602
1790545858.9364,-0.026711,0.013148,-0.676316,-0.025206,0.015728,-0.676316,0.424953,0.562896,-0.739582,2.063719,1.385871,-8.667602
1790545858.9507,-0.021650,0.007889,-0.668289,-0.022717,0.010240,-0.668289,0.171198,0.065097,-0.794218,-4.950302,-1.848788,-8.745224
1790545858.9648,-0.016102,0.003124,-0.670427,-0.018087,0.005259,-0.670427,0.194266,-0.022321,-0.865853,-5.218598,-1.068009,-12.082986
1790545858.9786,-0.012458,-0.000651,-0.676828,-0.014146,0.001122,-0.676828,0.131131,0.026245,-0.990909,-3.340527,-0.919289,-13.635434
1790545858.9922,-0.010772,0.005512,-0.692985,-0.011784,0.004195,-0.692985,-0.361811,0.023817,-0.902277,-0.274288,2.464091,-7.386832
1790545859.0063,-0.015515,0.016507,-0.710167,-0.014395,0.012813,-0.710167,-0.670203,0.384417,-0.648521,0.722239,2.947431,-7.658511
1790545859.0200,-0.018237,0.023622,-0.718410,-0.017084,0.020379,-0.718410,-0.465013,0.357706,-0.488254,-1.040848,2.129471,-7.813756
1790545859.0339,-0.016881,0.032783,-0.729624,-0.016942,0.029062,-0.729624,-0.542718,0.148873,-0.580529,-2.114032,3.207691,-7.813756
1790545859.0479,-0.019114,0.040639,-0.741035,-0.018463,0.037166,-0.741035,-0.452871,0.354063,-0.562317,-1.615768,4.100011,-10.142427
1790545859.0619,-0.016590,0.042826,-0.749775,-0.017152,0.041128,-0.749775,-0.054633,-0.030820,-0.465186,-1.079176,3.430771,-8.861658
1790545859.0758,-0.015675,0.039449,-0.755242,-0.016118,0.039953,-0.755242,0.406741,-0.178945,-0.059662,2.102047,4.917971,-9.754315
1790545859.0898,-0.016868,0.037163,-0.754567,-0.016643,0.038000,-0.754567,0.414026,-0.171660,0.534053,2.178703,4.880791,-6.959909
1790545859.1037,-0.017789,0.029139,-0.743394,-0.017445,0.031797,-0.743394,0.611931,-0.152234,0.779310,1.105519,2.203831,-9.599070
1790545859.1176,-0.029563,0.024805,-0.727060,-0.025927,0.026903,-0.727060,0.344820,0.500974,1.207902,2.561982,2.389731,-10.491728
1790545859.1315,-0.033578,0.021374,-0.706178,-0.031283,0.023033,-0.706178,0.213693,0.000748,1.392452,0.875551,1.311511,-10.297672
1790545859.1457,-0.035000,0.017773,-0.683509,-0.033885,0.019351,-0.683509,0.203980,-0.152234,1.467728,0.070663,0.753811,-7.309210
1790545859.1596,-0.033807,0.012083,-0.662276,-0.033831,0.014263,-0.662276,0.333893,-0.237224,1.357241,-1.155832,0.530731,-9.637881
1790545859.1735,-0.041777,0.009835,-0.642896,-0.039393,0.011163,-0.642896,0.138416,0.260574,1.392452,1.757095,1.571771,-10.724595
1790545859.1879,-0.052471,0.005994,-0.623565,-0.048547,0.007545,-0.623565,0.247689,0.412342,1.428876,2.063719,1.571771,-9.327392
1790545859.2016,-0.056016,0.003595,-0.608044,-0.053776,0.004780,-0.608044,0.179697,0.090594,1.309890,-0.235960,2.129471,-9.754315
1790545859.2153,-0.059371,0.003598,-0.593480,-0.057692,0.003952,-0.593480,-0.012138,0.051742,1.158122,0.530599,1.683311,-8.784035
1790545859.2293,-0.059243,0.004769,-0.581052,-0.058778,0.004524,-0.581052,-0.098342,-0.143735,0.932292,0.147319,1.869211,-10.258860
1790545859.2432,-0.059676,0.006358,-0.570339,-0.059406,0.005808,-0.570339,-0.120196,-0.144949,0.808449,1.143847,1.906391,-9.948371
1790545859.2572,-0.056985,0.008871,-0.560982,-0.057712,0.007952,-0.560982,-0.149336,-0.347711,0.809663,0.683911,2.426911,-9.482637
1790545859.2712,-0.047779,0.013808,-0.549455,-0.050759,0.012051,-0.549455,-0.401877,-0.770232,0.593546,0.377287,1.385871,-12.121798
1790545859.2851,-0.041157,0.019554,-0.540706,-0.044038,0.017303,-0.540706,-0.416447,-0.641533,0.530411,1.642111,2.352551,-12.781588
1790545859.2989,-0.035686,0.027461,-0.527386,-0.038192,0.024413,-0.527386,-0.694486,-0.566256,0.405354,1.757095,-0.138509,-10.918651
1790545859.3129,-0.041074,0.025358,-0.515200,-0.040210,0.025074,-0.515200,-0.093485,0.430554,0.070251,-0.772552,-2.592388,-11.229140
1790545859.3268,-0.035418,0.021958,-0.512594,-0.036856,0.022893,-0.512594,0.114133,-0.180159,-0.314632,-2.995575,-0.547489,-10.375294
1790545859.3407,-0.033436,0.021066,-0.517955,-0.034462,0.021614,-0.517955,0.009717,0.096665,-0.621810,-2.382327,0.828171,-11.151518
1790545859.3555,-0.029681,0.023991,-0.529638,-0.031115,0.023278,-0.529638,-0.206401,0.065097,-0.890136,-2.727279,1.385871,-9.055714
1790545859.3696,-0.028528,0.028356,-0.539719,-0.029304,0.026832,-0.539719,-0.330243,0.101522,-0.800289,-0.657568,1.385871,-9.793126
1790545859.3838,-0.028016,0.030007,-0.551623,-0.028403,0.029055,-0.551623,-0.128695,0.233863,-0.919275,-1.424128,1.311511,-8.201867
1790545859.3979,-0.035817,0.032061,-0.568841,-0.033592,0.031159,-0.568841,-0.160263,0.726805,-1.084398,0.645583,1.460231,-9.676693
1790545859.4119,-0.038347,0.038531,-0.585289,-0.036921,0.036319,-0.585289,-0.452871,0.415985,-1.143891,-0.159304,1.794851,-9.560259
1790545859.4261,-0.045561,0.047936,-0.604248,-0.042969,0.044451,-0.604248,-0.654419,0.690381,-1.151176,0.990535,1.683311,-9.094525
1790545859.4400,-0.051382,0.058557,-0.619609,-0.048858,0.054325,-0.619609,-0.741837,0.724377,-1.056473,-0.964192,1.832031,-9.016902
1790545859.4538,-0.053861,0.067482,-0.629911,-0.052360,0.063535,-0.629911,-0.676274,0.391702,-0.794218,-0.274288,1.237151,-9.172147
1790545859.4678,-0.058465,0.078524,-0.640300,-0.056634,0.074027,-0.640300,-0.719983,0.514330,-0.598741,-0.274288,2.241011,-7.076343
1790545859.4820,-0.063736,0.090141,-0.651001,-0.061605,0.085307,-0.651001,-0.726053,0.521615,-0.517394,0.108991,3.356411,-8.784035
1790545859.4960,-0.055818,0.085425,-0.651246,-0.057554,0.085390,-0.651246,0.303539,-0.486123,-0.216287,-0.619240,2.687171,-15.071448
1790545859.5099,-0.045515,0.076235,-0.654689,-0.049126,0.078981,-0.654689,0.831691,-1.017917,0.360431,3.443526,5.810290,-9.599070
1790545859.5239,-0.052532,0.068698,-0.658823,-0.051510,0.071783,-0.658823,0.692065,0.026245,0.751385,5.359925,4.360271,-7.270399
1790545859.5379,-0.045370,0.058307,-0.648236,-0.047212,0.062349,-0.648236,0.811051,-0.793301,0.883726,1.220503,2.910251,-7.736133
1790545859.5518,-0.040227,0.051293,-0.642429,-0.042323,0.054610,-0.642429,0.713919,-0.810299,0.954146,3.021918,4.025651,-5.873196
1790545859.5657,-0.036374,0.047043,-0.637767,-0.038159,0.049313,-0.637767,0.565794,-0.636677,0.948076,2.102047,4.508991,-5.756762
1790545859.5797,-0.028227,0.034626,-0.624521,-0.031207,0.039032,-0.624521,1.019883,-0.894075,1.167835,1.143847,3.505131,-7.891378
1790545859.5937,-0.039472,0.026954,-0.606884,-0.036992,0.030578,-0.606884,0.639857,0.439053,1.494440,2.676966,4.620531,-13.130889
1790545859.6076,-0.059194,0.029109,-0.588751,-0.052534,0.029550,-0.588751,-0.128695,1.126258,1.829543,0.070663,4.025651,-14.256413
1790545859.6215,-0.051102,0.028426,-0.562627,-0.051531,0.028763,-0.562627,-0.021851,-0.743521,1.957028,-4.452038,2.166651,-13.674245
1790545859.6354,-0.046414,0.033006,-0.538513,-0.047949,0.031733,-0.538513,-0.395807,-0.582040,1.609783,-0.657568,1.237151,-9.288581
1790545859.6494,-0.051199,0.035044,-0.509803,-0.050224,0.034051,-0.509803,-0.349669,0.106378,1.234613,0.377287,-1.068009,-10.646972
1790545859.6630,-0.046620,0.034348,-0.489111,-0.047701,0.034259,-0.489111,-0.137194,-0.395062,0.807235,-1.424128,-0.844929,-9.987182
1790545859.6767,-0.037789,0.035909,-0.476198,-0.040763,0.035414,-0.476198,-0.248895,-0.609966,0.416281,-1.807408,-0.175689,-9.366203
1790545859.6911,-0.035779,0.042844,-0.463402,-0.037274,0.040615,-0.463402,-0.582785,-0.268792,0.524340,0.453943,0.270471,-8.784035
1790545859.7051,-0.028615,0.043650,-0.450236,-0.031213,0.042739,-0.450236,-0.182118,-0.506763,0.456348,-1.769080,-0.064149,-10.297672
1790545859.7191,-0.027372,0.047132,-0.444884,-0.028524,0.045814,-0.444884,-0.251324,-0.208085,0.365287,0.645583,1.683311,-8.628791
1790545859.7331,-0.027556,0.048016,-0.441942,-0.027846,0.047355,-0.441942,-0.110483,0.065097,0.058109,-0.887536,1.051251,-8.589979
1790545859.7470,-0.031269,0.037432,-0.447975,-0.030242,0.040409,-0.447975,0.718776,0.254504,-0.429976,1.680439,1.125611,-9.754315
1790545859.7609,-0.039033,0.033316,-0.468582,-0.036396,0.035444,-0.468582,0.508729,0.738946,-0.669162,-0.580912,4.508991,-7.813756
1790545859.7747,-0.039352,0.027079,-0.482538,-0.038465,0.029588,-0.482538,0.531798,0.322496,-0.766293,-2.535639,2.910251,-9.637881
1790545859.7888,-0.035724,0.025950,-0.498787,-0.036546,0.027042,-0.498787,0.151771,-0.011394,-1.010336,-1.155832,2.984611,-10.452916
1790545859.8028,-0.031035,0.027887,-0.516307,-0.032688,0.027633,-0.516307,-0.122625,-0.104882,-1.268948,-0.120976,2.389731,-12.277042
1790545859.8166,-0.037147,0.031410,-0.535275,-0.035810,0.030277,-0.535275,-0.197902,0.587179,-1.233738,1.412143,2.426911,-9.016902
1790545859.8305,-0.044297,0.037691,-0.554277,-0.041751,0.035467,-0.554277,-0.426160,0.685524,-1.305372,1.488799,1.980751,-9.754315
1790545859.8446,-0.044507,0.044234,-0.571426,-0.043680,0.041604,-0.571426,-0.535433,0.374704,-1.366079,-1.424128,0.382011,-10.336483
1790545859.8585,-0.055467,0.051292,-0.586604,-0.051931,0.048386,-0.586604,-0.557288,0.953849,-1.148748,1.527127,0.679451,-9.637881
1790545859.8726,-0.067887,0.064659,-0.605107,-0.063100,0.059777,-0.605107,-0.916674,1.161468,-1.123251,0.070663,1.869211,-9.405014
1790545859.8867,-0.079945,0.074448,-0.617443,-0.074891,0.070047,-0.617443,-0.736981,1.072835,-0.888921,0.645583,0.790991,-11.384385
1790545859.9004,-0.081946,0.075752,-0.619755,-0.079830,0.074040,-0.619755,-0.223399,0.295784,-0.474899,-0.044320,-0.324409,-12.199420
1790545859.9140,-0.088628,0.083498,-0.625186,-0.085988,0.080661,-0.625186,-0.500223,0.452409,-0.117941,1.488799,2.538451,-7.580888
1790545859.9280,-0.093864,0.090950,-0.628411,-0.091501,0.087863,-0.628411,-0.517221,0.448766,-0.137367,0.185647,2.649991,-10.802217
1790545859.9424,-0.083306,0.081246,-0.620948,-0.085765,0.083231,-0.620948,0.570650,-0.685242,0.150384,-1.539112,1.162791,-12.898021
1790545859.9564,-0.079686,0.072959,-0.616882,-0.081509,0.076041,-0.616882,0.712705,-0.540759,0.660324,2.332014,4.360271,-8.085434
1790545859.9703,-0.075977,0.064375,-0.608212,-0.077636,0.067875,-0.608212,0.699349,-0.595396,0.865514,2.830278,4.508991,-9.637881
1790545859.9844,-0.066840,0.055803,-0.591490,-0.070079,0.059425,-0.591490,0.597362,-1.025202,1.079203,2.638638,2.798711,-9.754315
1790545859.9983,-0.061318,0.050889,-0.580041,-0.063947,0.053449,-0.580041,0.485660,-0.769018,1.193332,2.217030,4.657711,-8.512357
1790545860.0122,-0.057484,0.044159,-0.567378,-0.059422,0.046946,-0.567378,0.630143,-0.629392,1.326888,1.412143,4.100011,-7.309210
1790545860.0262,-0.054356,0.034375,-0.548161,-0.055876,0.038146,-0.548161,0.752772,-0.563828,1.591571,0.722239,3.058971,-8.279490
1790545860.0401,-0.044491,0.021670,-0.528396,-0.047906,0.026613,-0.528396,0.978602,-0.891647,1.799189,-1.922392,2.761531,-7.658511
1790545860.0540,-0.035000,0.009680,-0.507224,-0.038872,0.014759,-0.507224,1.011384,-0.907430,1.958242,-1.232488,3.170511,-6.532986
1790545860.0680,-0.044832,0.004635,-0.483625,-0.043044,0.007672,-0.483625,0.344820,0.494904,1.964313,-1.615768,1.980751,-11.811308
1790545860.0818,-0.043186,0.006914,-0.458696,-0.043144,0.007141,-0.458696,-0.183332,-0.255436,1.984953,-3.493839,2.278191,-12.238231
1790545860.0961,-0.032014,0.014337,-0.432537,-0.035353,0.012179,-0.432537,-0.565787,-0.917144,1.783405,-3.302199,1.423051,-11.656063
1790545860.1107,-0.037525,0.014958,-0.401507,-0.036873,0.014124,-0.401507,-0.262251,0.102736,1.258896,1.488799,-2.480848,-12.044175
1790545860.1244,-0.038069,0.009803,-0.384722,-0.037710,0.011099,-0.384722,0.193052,-0.019893,0.784166,-0.887536,-1.068009,-8.551168
1790545860.1381,-0.039039,0.004977,-0.378062,-0.038640,0.006813,-0.378062,0.245260,0.082095,0.298510,-0.619240,-0.101329,-7.580888
1790545860.1524,-0.038474,0.004278,-0.377972,-0.038524,0.005038,-0.377972,0.101992,-0.067244,0.065394,0.338959,2.092291,-8.357112
1790545860.1676,-0.039645,0.005460,-0.375434,-0.039309,0.005334,-0.375434,-0.048562,0.011675,0.194093,0.875551,2.426911,-11.267951
1790545860.1823,-0.036835,0.004281,-0.371209,-0.037577,0.004597,-0.371209,0.081351,-0.244509,0.252372,0.300631,1.683311,-10.297672
1790545860.1973,-0.042868,-0.002509,-0.372027,-0.041281,-0.000377,-0.372027,0.397028,0.424484,-0.104586,0.147319,0.605091,-12.703965
1790545860.2121,-0.045780,-0.007312,-0.382019,-0.044430,-0.005231,-0.382019,0.428596,0.347993,-0.485826,-1.117504,2.910251,-9.133336
1790545860.2264,-0.036549,-0.008905,-0.393331,-0.038913,-0.007803,-0.393331,0.190624,-0.442414,-0.743224,-2.037376,3.133331,-11.811308
1790545860.2406,-0.035551,-0.005600,-0.406936,-0.036560,-0.006261,-0.406936,-0.143265,0.026245,-0.945986,0.952207,3.653851,-12.626343
1790545860.2547,-0.040159,-0.002269,-0.424707,-0.039079,-0.003466,-0.424707,-0.242825,0.488833,-1.262877,0.492271,0.976891,-8.512357
1790545860.2688,-0.038562,0.001871,-0.445122,-0.038717,0.000270,-0.445122,-0.296247,0.187726,-1.387934,-0.887536,0.753811,-6.261308
1790545860.2831,-0.033407,0.007752,-0.458288,-0.035000,0.005507,-0.458288,-0.548789,0.072382,-1.163317,-3.148887,-0.807749,-6.804665
1790545860.2972,-0.030101,0.012690,-0.472579,-0.031571,0.010535,-0.472579,-0.454085,0.117306,-1.064972,-3.148887,-0.287229,-10.220049
1790545860.3111,-0.041645,0.016801,-0.488832,-0.038623,0.014922,-0.488832,-0.395807,0.912569,-1.098968,2.255358,-0.212869,-11.500819
1790545860.3251,-0.049723,0.027003,-0.505103,-0.046393,0.023379,-0.505103,-0.784332,0.723162,-1.074685,1.297159,0.642271,-12.277042
1790545860.3391,-0.062445,0.041353,-0.519765,-0.057630,0.035961,-0.519765,-1.078155,0.969633,-0.932630,2.446998,0.456371,-9.831937
1790545860.3529,-0.077942,0.054517,-0.533755,-0.071848,0.048951,-0.533755,-1.002878,1.245244,-0.836713,1.412143,0.456371,-8.551168
1790545860.3665,-0.088552,0.063757,-0.544916,-0.083541,0.059315,-0.544916,-0.662918,0.873716,-0.638808,1.565455,1.683311,-10.025993
1790545860.3805,-0.085147,0.057370,-0.544464,-0.084665,0.057953,-0.544464,0.367889,-0.280933,-0.100943,1.488799,0.567911,-10.375294
1790545860.3946,-0.082878,0.051782,-0.539733,-0.083414,0.053633,-0.539733,0.393386,-0.431487,0.390784,3.750150,2.389731,-9.560259
1790545860.4086,-0.083516,0.049529,-0.533791,-0.083486,0.050760,-0.533791,0.165127,-0.217798,0.531625,3.175230,2.538451,-9.599070
1790545860.4225,-0.076753,0.045770,-0.521965,-0.078773,0.047267,-0.521965,0.223406,-0.670673,0.750170,0.990535,2.129471,-10.763406
1790545860.4367,-0.065889,0.038657,-0.508757,-0.069754,0.041240,-0.508757,0.529370,-0.989992,0.920150,0.837223,2.947431,-9.055714
1790545860.4513,-0.063794,0.031331,-0.494960,-0.065582,0.034304,-0.494960,0.637428,-0.520119,1.124126,2.830278,4.211551,-7.542077
1790545860.4654,-0.057864,0.023124,-0.480265,-0.060180,0.026478,-0.480265,0.709063,-0.647604,1.258896,0.185647,4.137191,-8.473546
1790545860.4795,-0.050553,0.015619,-0.462616,-0.053441,0.018876,-0.462616,0.679923,-0.790873,1.411878,0.530599,3.765391,-7.153965
1790545860.4935,-0.041906,0.006667,-0.442358,-0.045367,0.010330,-0.442358,0.741844,-0.856436,1.589143,-0.197632,2.464091,-6.222497
1790545860.5075,-0.031798,-0.004230,-0.419795,-0.035868,0.000138,-0.419795,0.981030,-0.863721,1.739696,-1.615768,3.951291,-6.727042
1790545860.5214,-0.041552,-0.004679,-0.397953,-0.039847,-0.003234,-0.397953,0.049783,0.479120,1.766407,-0.504256,2.984611,-14.760958
1790545860.5354,-0.036626,0.001104,-0.373774,-0.037592,-0.000197,-0.373774,-0.358168,-0.497050,1.895106,-2.688951,3.356411,-11.384385
1790545860.5492,-0.030478,0.003741,-0.342412,-0.032612,0.002560,-0.342412,-0.339956,-0.680386,1.895106,-1.002520,-0.696209,-9.987182
1790545860.5632,-0.034668,0.005749,-0.317289,-0.034051,0.004792,-0.317289,-0.307174,0.091809,1.432518,-0.197632,-1.105189,-10.841028
1790545860.5772,-0.032781,0.005339,-0.301514,-0.033162,0.005175,-0.301514,-0.080130,-0.223868,0.921364,-0.887536,-0.138509,-9.793126
1790545860.5908,-0.029970,0.003817,-0.292138,-0.030928,0.004225,-0.292138,0.027929,-0.188658,0.527982,-1.424128,0.196111,-8.706413
1790545860.6044,-0.027093,0.006183,-0.286419,-0.028243,0.005595,-0.286419,-0.217328,-0.174089,0.333720,-1.155832,0.679451,-7.774944
1790545860.6184,-0.025846,0.011946,-0.280250,-0.026565,0.010041,-0.280250,-0.382451,-0.171660,0.432065,0.223975,2.649991,-12.393476
1790545860.6323,-0.020476,0.013602,-0.272777,-0.022303,0.012533,-0.272777,-0.121411,-0.494622,0.440564,0.377287,1.274331,-8.124245
1790545860.6463,-0.029183,0.007112,-0.272796,-0.027119,0.008738,-0.272796,0.406741,0.573823,-0.011097,1.373815,0.865351,-13.829490
1790545860.6602,-0.033374,-0.000275,-0.280248,-0.031498,0.002429,-0.280248,0.678709,0.477906,-0.468828,-1.539112,3.691031,-8.822846
1790545860.6742,-0.035874,-0.004856,-0.290633,-0.034561,-0.002671,-0.290633,0.530584,0.334637,-0.754152,-0.580912,4.397451,-8.589979
1790545860.6881,-0.033394,-0.010582,-0.303772,-0.033744,-0.008208,-0.303772,0.571865,-0.040533,-1.000622,0.108991,4.062831,-9.831937
1790545860.7026,-0.028380,-0.009496,-0.320302,-0.029989,-0.009110,-0.320302,-0.012138,-0.233582,-1.306586,1.565455,3.207691,-12.936833
1790545860.7165,-0.036690,-0.006045,-0.338790,-0.034680,-0.006965,-0.338790,-0.267108,0.696451,-1.587053,2.561982,1.125611,-10.957462
1790545860.7304,-0.037184,-0.002285,-0.359503,-0.036433,-0.003689,-0.359503,-0.346027,0.281215,-1.557914,-0.120976,-0.026969,-8.085434
1790545860.7443,-0.034637,0.003048,-0.380513,-0.035176,0.001027,-0.380513,-0.432231,0.128233,-1.480209,-1.270816,0.493551,-9.288581
1790545860.7583,-0.030094,0.004930,-0.400767,-0.031619,0.003759,-0.400767,-0.225827,0.027459,-1.449855,-2.114032,-0.138509,-9.987182
1790545860.7723,-0.036800,0.006471,-0.417453,-0.035245,0.005658,-0.417453,-0.188188,0.615104,-1.232524,1.220503,0.158931,-10.646972
1790545860.7864,-0.047286,0.015736,-0.432466,-0.043674,0.012713,-0.432466,-0.692057,0.834864,-1.073471,1.948735,0.902531,-10.802217
1790545860.8004,-0.059376,0.027149,-0.444514,-0.054665,0.022818,-0.444514,-0.871750,0.923496,-0.884065,2.178703,0.382011,-10.530539
1790545860.8140,-0.067686,0.034811,-0.453699,-0.063780,0.031213,-0.453699,-0.662918,0.732876,-0.739582,0.760567,-0.212869,-9.405014
1790545860.8276,-0.072760,0.038168,-0.459995,-0.070066,0.036082,-0.459995,-0.332671,0.456051,-0.535606,0.837223,0.084571,-9.831937
1790545860.8415,-0.073102,0.039706,-0.463569,-0.072191,0.038619,-0.463569,-0.157835,0.068740,-0.323131,0.683911,0.790991,-9.055714
1790545860.8553,-0.070359,0.033378,-0.462564,-0.070909,0.034950,-0.462564,0.410384,-0.212941,-0.020810,0.607255,0.976891,-9.094525
1790545860.8693,-0.062850,0.023572,-0.457167,-0.065268,0.026985,-0.457167,0.718776,-0.735022,0.372572,2.523654,2.464091,-10.297672
1790545860.8833,-0.057570,0.014349,-0.448312,-0.059879,0.018140,-0.448312,0.755200,-0.646390,0.762312,2.638638,3.802571,-9.676693
1790545860.8972,-0.045961,0.003478,-0.434115,-0.050136,0.007876,-0.434115,0.832905,-1.090766,1.009997,1.680439,3.021791,-10.297672
1790545860.9111,-0.041976,-0.006608,-0.416870,-0.044424,-0.002263,-0.416870,0.763699,-0.600252,1.256468,1.833751,2.017931,-8.201867
