t,imu_roll,imu_pitch,imu_yaw,lpf_roll,lpf_pitch,lpf_yaw,gyro_x,gyro_y,gyro_z,acc_x,acc_y,acc_z
1790539183.0994,-0.032676,-0.048648,-0.010403,-0.022874,-0.034054,-0.010403,0.009719,0.003562,-0.003925,0.492271,1.348691,-9.987182
1790539183.1150,-0.020224,-0.055494,-0.005680,-0.021019,-0.049062,-0.005680,-0.008493,-0.001294,0.003360,0.223975,1.237151,-10.142427
1790539183.1287,-0.022317,-0.052057,-0.006604,-0.021927,-0.051159,-0.006604,-0.009707,-0.006151,-0.002711,0.415615,1.385871,-9.909560
1790539183.1425,-0.020335,-0.053366,-0.005925,-0.020813,-0.052704,-0.005925,-0.021848,-0.014650,0.002145,0.300631,1.274331,-10.064805
1790539183.1614,-0.015466,-0.054564,-0.004603,-0.017070,-0.054006,-0.004603,-0.069200,-0.091141,0.000931,0.185647,1.274331,-10.608161
1790539183.1755,-0.021318,-0.052542,-0.007416,-0.020044,-0.052981,-0.007416,-0.196685,-0.089927,0.011859,0.760567,1.348691,-10.491728
1790539183.1900,-0.023647,-0.052986,-0.006854,-0.022566,-0.052984,-0.006854,-0.248893,-0.065644,0.055568,0.607255,1.125611,-10.491728
1790539183.2042,-0.025492,-0.053128,-0.004813,-0.024614,-0.053085,-0.004813,-0.297459,-0.051074,0.112632,0.530599,0.939711,-9.288581
1790539183.2181,-0.025913,-0.053399,0.001167,-0.025524,-0.053305,0.001167,-0.337525,0.012061,0.198836,0.377287,0.865351,-9.405014
1790539183.2321,-0.021199,-0.056923,0.012511,-0.022497,-0.055838,0.012511,-0.235537,-0.245337,0.304467,0.185647,0.642271,-9.482637
1790539183.2459,-0.024832,-0.057751,0.008707,-0.024131,-0.057177,0.008707,-0.202756,-0.212555,0.435594,0.952207,0.902531,-9.831937
1790539183.2598,-0.014876,-0.058993,0.037250,-0.017653,-0.058448,0.037250,-0.296245,-0.273262,0.498730,-0.465928,0.716631,-10.297672
1790539183.2738,-0.006488,-0.052860,0.058152,-0.009837,-0.054537,0.058152,-0.401875,-0.310901,0.495087,-0.350944,1.348691,-9.599070
1790539183.2877,-0.002344,-0.052163,0.067019,-0.004592,-0.052875,0.067019,-0.380020,-0.161561,0.317822,-0.159304,0.790991,-10.724595
1790539183.3017,0.000427,-0.054273,0.063095,-0.001079,-0.053854,0.063095,-0.284103,-0.297545,0.268043,0.300631,0.567911,-12.354665
1790539183.3156,-0.001979,-0.049781,0.056990,-0.001709,-0.051003,0.056990,-0.361808,-0.051074,0.295968,0.607255,1.460231,-11.423196
1790539183.3295,0.001587,-0.045424,0.067114,0.000598,-0.047098,0.067114,-0.315671,-0.199199,0.309323,-0.082648,1.423051,-10.142427
1790539183.3433,0.002054,-0.040789,0.065705,0.001617,-0.042682,0.065705,-0.327812,-0.155490,0.220691,0.300631,1.348691,-9.172147
1790539183.3570,0.003176,-0.033453,0.063085,0.002708,-0.036222,0.063085,-0.339954,-0.225911,0.172125,0.338959,1.720491,-8.512357
1790539183.3706,0.006989,-0.025493,0.063955,0.005705,-0.028711,0.063955,-0.365451,-0.332755,0.108990,0.147319,2.017931,-9.210958
1790539183.3847,0.008996,-0.017553,0.055788,0.008008,-0.020900,0.055788,-0.398233,-0.414103,0.105347,0.760567,2.166651,-10.025993
1790539183.3988,0.011858,-0.010051,0.048695,0.010703,-0.013306,0.048695,-0.480794,-0.476024,0.083493,0.760567,1.906391,-9.948371
1790539183.4127,0.005560,-0.008814,0.038159,0.007103,-0.010162,0.038159,-0.194257,0.058199,-0.005139,1.872079,2.055111,-14.411658
1790539183.4266,0.001354,-0.017658,0.051155,0.003079,-0.015409,0.051155,0.614362,0.804896,-0.312317,-1.769080,2.278191,-14.217602
1790539183.4409,0.010015,-0.006064,0.061921,0.007934,-0.008868,0.061921,0.576724,0.343522,-0.651063,-2.343999,5.029511,-6.144874
1790539183.4548,0.006390,0.000791,0.059947,0.006853,-0.002106,0.059947,0.502661,0.456437,-0.821043,-0.082648,3.728211,-6.338930
1790539183.4689,0.008131,0.007957,0.023571,0.007748,0.004938,0.023571,0.518445,0.508645,-0.780976,-1.002520,3.430771,-5.252217
1790539183.4830,0.007231,0.005508,-0.013222,0.007386,0.005337,-0.013222,0.713922,0.722334,-0.771263,-1.462456,3.356411,-7.969000
1790539183.4969,0.009534,0.006377,0.000455,0.008889,0.006065,0.000455,0.925182,0.424870,-1.037160,-1.692424,5.364131,-8.395923
1790539183.5108,0.031470,0.005538,-0.043472,0.024696,0.005696,-0.043472,0.195483,-1.018745,-1.483965,-1.730752,3.876931,-14.722147
1790539183.5248,0.014049,0.002019,0.059538,0.017243,0.003122,0.059538,0.151774,0.559639,-1.719508,4.861661,1.683311,-13.945924
1790539183.5387,0.018464,0.009812,0.016521,0.018098,0.007805,0.016521,-0.343596,0.177185,-1.497320,-0.695896,2.649991,-8.822846
1790539183.5526,0.020190,0.003571,-0.089480,0.019562,0.004841,-0.089480,-0.097125,0.515930,-1.211997,-1.194160,-0.175689,-9.909560
1790539183.5665,0.014022,-0.000728,-0.120707,0.015684,0.000943,-0.120707,0.282901,0.783042,-1.108795,-0.350944,1.385871,-7.658511
1790539183.5801,0.003740,0.001277,-0.092627,0.007323,0.001177,-0.092627,-0.061915,0.587565,-1.010449,1.335487,1.832031,-8.745224
1790539183.5936,-0.007329,0.002160,-0.085569,-0.002933,0.001865,-0.085569,-0.140834,0.732048,-0.899962,1.373815,1.423051,-10.258860
1790539183.6075,-0.014931,0.005453,-0.096304,-0.011332,0.004376,-0.096304,-0.270748,0.660413,-0.842898,0.492271,1.423051,-8.784035
1790539183.6213,-0.020163,0.007901,-0.115442,-0.017513,0.006844,-0.115442,-0.241608,0.555997,-0.720269,0.223975,1.385871,-9.210958
1790539183.6352,-0.019697,0.014350,-0.141845,-0.019042,0.012098,-0.141845,-0.455297,0.258532,-0.547861,-0.465928,1.943571,-9.599070
1790539183.6492,-0.014051,0.009888,-0.142391,-0.015548,0.010551,-0.142391,0.100780,-0.535517,-0.266180,1.872079,1.162791,-15.420749
1790539183.6632,-0.012753,0.004115,-0.090805,-0.013591,0.006046,-0.090805,0.582794,-0.614436,0.255901,3.328542,3.542311,-12.354665
1790539183.6773,-0.018701,0.001959,-0.046599,-0.017168,0.003185,-0.046599,0.702994,-0.360680,0.838689,3.826806,5.141051,-8.706413
1790539183.6913,-0.015326,-0.006320,-0.015128,-0.015878,-0.003468,-0.015128,0.936110,-0.820840,0.998956,1.642111,2.649991,-6.183686
1790539183.7061,-0.013257,-0.016553,0.025866,-0.014043,-0.012628,0.025866,0.909398,-0.803842,1.132512,1.910407,2.092291,-6.067252
1790539183.7207,-0.031876,-0.017183,0.079516,-0.026526,-0.015817,0.079516,-0.026705,0.597278,1.270924,4.248414,2.203831,-13.130889
1790539183.7351,-0.030980,-0.020666,0.078531,-0.029644,-0.019211,0.078531,0.004863,-0.088713,1.490684,-1.117504,0.753811,-14.916203
1790539183.7495,-0.028073,-0.028303,0.084712,-0.028544,-0.025576,0.084712,0.009719,-0.313329,1.635166,-0.465928,-1.328269,-9.715504
1790539183.7637,-0.024528,-0.032336,0.042873,-0.025733,-0.030308,0.042873,-0.217325,0.018132,1.303706,-2.382327,-1.551348,-9.793126
1790539183.7778,-0.020196,-0.039952,0.039377,-0.021857,-0.037059,0.039377,0.075283,-0.184630,1.032952,-1.615768,-1.551348,-11.306763
1790539183.7918,-0.017387,-0.051920,0.046583,-0.018728,-0.047461,0.046583,0.390960,-0.162775,1.048736,-0.849208,-1.402628,-9.405014
1790539183.8055,-0.016181,-0.054491,0.052240,-0.016945,-0.052382,0.052240,0.123849,0.027845,1.000170,-1.232488,1.051251,-9.599070
1790539183.8191,-0.013511,-0.054301,0.052753,-0.014541,-0.053725,0.052753,-0.070414,0.025417,0.773126,-1.769080,1.051251,-9.560259
1790539183.8326,-0.010374,-0.053668,0.051183,-0.011624,-0.053685,0.051183,-0.104410,-0.003723,0.481732,-1.539112,0.939711,-9.094525
1790539183.8466,-0.009382,-0.053499,0.050217,-0.010054,-0.053554,0.050217,-0.105624,0.024203,0.322679,-0.695896,0.716631,-9.831937
1790539183.8604,-0.009814,-0.052531,0.049412,-0.009886,-0.052838,0.049412,-0.083770,0.129833,0.124774,-0.542584,1.237151,-9.870749
1790539183.8739,-0.005845,-0.046790,0.051686,-0.007057,-0.048605,0.051686,-0.321742,-0.111781,0.044640,-1.040848,1.943571,-9.133336
1790539183.8870,0.001448,-0.043250,0.051118,-0.001104,-0.044856,0.051118,-0.276818,-0.545230,-0.090129,0.108991,1.757671,-12.703965
1790539183.9000,0.009896,-0.035162,0.059109,0.006596,-0.038070,0.059109,-0.450441,-0.683642,-0.195760,0.415615,2.538451,-9.443825
1790539183.9137,0.015263,-0.028955,0.061106,0.012663,-0.031690,0.061106,-0.497792,-0.588939,-0.311103,1.910407,1.311511,-10.802217
1790539183.9276,0.012713,-0.031104,0.049643,0.012698,-0.031279,0.049643,-0.088626,0.094623,-0.501724,1.718767,-0.435949,-13.130889
1790539183.9415,0.008071,-0.033049,0.037051,0.009459,-0.032518,0.037051,0.154202,0.417585,-0.942457,0.683911,1.906391,-11.927742
1790539183.9557,0.006912,-0.031730,0.021379,0.007676,-0.031967,0.021379,0.015790,0.224536,-1.299415,0.568927,2.538451,-10.763406
1790539183.9698,0.005970,-0.031126,-0.001237,0.006482,-0.031378,-0.001237,-0.075271,0.281601,-1.549528,0.185647,0.753811,-6.416553
1790539183.9838,0.013717,-0.029358,-0.018409,0.011546,-0.029964,-0.018409,0.024289,-0.155490,-1.150075,-1.462456,2.166651,-7.736133
1790539183.9978,0.009435,-0.033009,-0.031682,0.010068,-0.032095,-0.031682,0.176057,0.313169,-0.960669,1.067191,0.679451,-8.589979
1790539184.0116,0.009023,-0.033119,-0.047389,0.009336,-0.032812,-0.047389,0.121420,0.269459,-1.202284,-0.465928,2.687171,-11.073895
1790539184.0256,0.010729,-0.032383,-0.066478,0.010311,-0.032512,-0.066478,-0.092269,0.055770,-1.326126,0.262303,1.274331,-11.151518
1790539184.0392,0.005683,-0.030788,-0.079624,0.007071,-0.031305,-0.079624,-0.131121,0.388445,-1.107580,1.182175,1.162791,-8.473546
1790539184.0528,0.008193,-0.032356,-0.096053,0.007857,-0.032041,-0.096053,-0.052202,0.008419,-0.901176,-0.312616,0.047391,-8.046623
1790539184.0667,0.009189,-0.035010,-0.106950,0.008789,-0.034119,-0.106950,0.148131,0.003562,-0.745766,0.377287,1.088431,-9.948371
1790539184.0807,0.008023,-0.034620,-0.115083,0.008253,-0.034470,-0.115083,0.015790,0.087338,-0.668061,0.875551,1.757671,-9.405014
1790539184.0946,0.002686,-0.025934,-0.121913,0.004356,-0.028495,-0.121913,-0.395804,0.381160,-0.677774,0.990535,3.170511,-8.473546
1790539184.1086,0.000465,-0.020473,-0.131369,0.001632,-0.022879,-0.131369,-0.274390,0.318025,-0.547861,-0.542584,2.984611,-11.190329
1790539184.1225,-0.000817,-0.023208,-0.135143,-0.000082,-0.023109,-0.135143,0.378818,0.112835,-0.468942,0.722239,3.505131,-10.530539
1790539184.1365,-0.001695,-0.029316,-0.128160,-0.001211,-0.027454,-0.128160,0.548798,-0.094783,0.062852,2.255358,3.839751,-14.528091
1790539184.1504,-0.010775,-0.031477,-0.121339,-0.007906,-0.030270,-0.121339,0.250119,0.549926,0.560651,0.530599,2.835891,-11.112707
1790539184.1643,-0.017186,-0.038050,-0.105747,-0.014402,-0.035716,-0.105747,0.363035,0.280387,1.049950,0.453943,0.567911,-8.046623
1790539184.1783,-0.015060,-0.043355,-0.107684,-0.014863,-0.041064,-0.107684,0.373962,-0.004937,1.219930,-1.730752,1.088431,-6.106063
1790539184.1923,-0.004145,-0.044548,-0.105623,-0.007360,-0.043503,-0.105623,-0.010921,-0.616864,1.249069,-2.343999,0.605091,-7.270399
1790539184.2070,0.000530,-0.045201,-0.094446,-0.001837,-0.044691,-0.094446,-0.097125,-0.395890,1.241784,-0.849208,0.196111,-9.987182
1790539184.2212,-0.006026,-0.047890,-0.078233,-0.004769,-0.046930,-0.078233,0.040073,0.192968,1.081518,1.757095,0.047391,-12.393476
1790539184.2350,-0.009479,-0.054056,-0.059549,-0.008066,-0.051918,-0.059549,0.327824,-0.015864,1.293993,1.335487,0.493551,-11.656063
1790539184.2491,-0.017929,-0.061158,-0.045669,-0.014970,-0.058386,-0.045669,0.397031,0.505003,1.246641,-0.274288,0.567911,-11.694875
1790539184.2635,-0.022122,-0.065689,-0.031248,-0.019976,-0.063498,-0.031248,0.237978,0.267031,1.185934,-0.772552,0.753811,-9.172147
1790539184.2784,-0.024890,-0.066107,-0.019785,-0.023416,-0.065324,-0.019785,-0.036418,0.237892,0.904253,-1.155832,0.753811,-8.745224
1790539184.2922,-0.026794,-0.067668,-0.011484,-0.025780,-0.066965,-0.011484,0.067998,0.127405,0.713633,-0.312616,1.014071,-10.064805
1790539184.3063,-0.028530,-0.070112,-0.001931,-0.027705,-0.069167,-0.001931,0.196697,0.061841,0.509657,0.453943,1.571771,-9.754315
1790539184.3206,-0.031650,-0.072676,0.011732,-0.030467,-0.071623,0.011732,0.285329,0.138332,0.407669,0.913879,2.649991,-10.841028
1790539184.3358,-0.025862,-0.071408,0.023131,-0.027244,-0.071473,0.023131,-0.007279,-0.432315,0.336034,0.607255,2.464091,-11.229140
1790539184.3503,-0.016713,-0.063051,0.032980,-0.019872,-0.065578,0.032980,-0.562142,-0.775917,0.208550,2.178703,2.129471,-14.101168
1790539184.3646,-0.010768,-0.050956,0.045722,-0.013499,-0.055343,0.045722,-0.993162,-0.786844,-0.002711,4.593365,-0.435949,-9.987182
1790539184.3795,-0.000240,-0.036579,0.049377,-0.004218,-0.042208,0.049377,-1.058726,-0.982321,-0.279536,2.217030,0.196111,-5.795574
1790539184.3936,0.009184,-0.023988,0.047601,0.005164,-0.029454,0.047601,-0.804970,-0.896117,-0.356027,2.178703,1.757671,-6.688231
1790539184.4074,0.001607,-0.033151,0.043851,0.002674,-0.032042,0.043851,0.534229,0.572995,-0.591570,1.373815,0.084571,-14.605714
1790539184.4215,0.007663,-0.038857,0.019823,0.006166,-0.036813,0.019823,0.531800,-0.099640,-1.129435,-2.152360,3.319231,-11.850119
1790539184.4355,0.009965,-0.044253,-0.001416,0.008826,-0.042021,-0.001416,0.403101,-0.012222,-1.635732,1.182175,1.906391,-12.548721
1790539184.4496,-0.005440,-0.051229,-0.018242,-0.001160,-0.048466,-0.018242,0.529372,0.985803,-1.371049,3.405198,1.423051,-8.900469
1790539184.4639,0.006959,-0.054298,-0.043743,0.004523,-0.052548,-0.043743,0.386103,-0.675143,-1.134292,-0.350944,2.278191,-7.231588
1790539184.4780,0.015987,-0.068879,-0.053084,0.012548,-0.063980,-0.053084,0.950679,-0.556157,-1.193785,0.683911,0.196111,-11.073895
1790539184.4919,0.029246,-0.080011,-0.081865,0.024236,-0.075202,-0.081865,0.917897,-0.682428,-1.358908,-1.309144,1.980751,-8.046623
1790539184.5055,0.037860,-0.085144,-0.104039,0.033773,-0.082161,-0.104039,0.552441,-0.552515,-1.300629,0.300631,3.021791,-9.172147
1790539184.5191,0.040375,-0.091322,-0.113176,0.038394,-0.088574,-0.113176,0.519659,-0.225911,-1.034732,1.143847,1.757671,-8.706413
1790539184.5330,0.043896,-0.100548,-0.130157,0.042245,-0.096956,-0.130157,0.739419,-0.160347,-0.797974,-0.465928,1.646131,-8.551168
1790539184.5470,0.021117,-0.102061,-0.122934,0.027456,-0.100529,-0.122934,-0.110481,1.592874,-0.646206,1.565455,-2.369308,-15.731238
1790539184.5609,0.015978,-0.093074,-0.144464,0.019421,-0.095310,-0.144464,-0.812255,0.744189,-0.658348,-5.256926,-1.625708,-13.402567
1790539184.5749,0.014252,-0.081312,-0.160323,0.015803,-0.085512,-0.160323,-1.049013,0.507431,-0.710556,-4.222071,-1.737248,-10.724595
1790539184.5888,0.001618,-0.065528,-0.174598,0.005873,-0.071523,-0.174598,-1.301554,1.271127,-0.668061,-1.845736,-0.547489,-5.485084
1790539184.6028,-0.002387,-0.052873,-0.178371,0.000091,-0.058468,-0.178371,-1.347692,0.716264,-0.462871,-1.500784,-1.551348,-2.884734
1790539184.6166,-0.015160,-0.033332,-0.178732,-0.010585,-0.040873,-0.178732,-1.302768,1.121787,-0.434946,-0.772552,1.571771,-6.028441
1790539184.6306,-0.012341,-0.035521,-0.198172,-0.011814,-0.037127,-0.198172,-0.133550,-0.072929,-0.334172,-1.615768,-4.562928,-21.281238
1790539184.6445,-0.011906,-0.047245,-0.203713,-0.011878,-0.044210,-0.203713,0.778271,-0.315757,0.286255,3.405198,0.679451,-10.491728
1790539184.6584,-0.017692,-0.048069,-0.186166,-0.015948,-0.046911,-0.186166,0.191841,0.167471,0.952819,1.335487,2.389731,-6.959909
1790539184.6723,-0.004385,-0.059519,-0.166688,-0.007854,-0.055737,-0.166688,0.732134,-0.807485,0.616501,-1.615768,0.196111,-5.912007
1790539184.6863,-0.004916,-0.070088,-0.165845,-0.005797,-0.065782,-0.165845,0.690853,-0.216197,0.604360,2.063719,0.419191,-8.434735
1790539184.7003,-0.023800,-0.080589,-0.158709,-0.018399,-0.076147,-0.158709,0.813481,1.158211,0.677208,1.373815,1.460231,-7.037532
1790539184.7148,-0.033429,-0.091646,-0.142841,-0.028920,-0.086996,-0.142841,0.906970,0.576637,0.741558,0.837223,3.356411,-10.491728
1790539184.7286,-0.049141,-0.094728,-0.122576,-0.043074,-0.092408,-0.122576,0.489305,0.944522,0.803479,1.910407,4.100011,-7.852567
1790539184.7422,-0.056333,-0.100705,-0.107216,-0.052355,-0.098216,-0.107216,0.604649,0.429726,0.901825,0.875551,3.319231,-8.745224
1790539184.7563,-0.057227,-0.109210,-0.093768,-0.055766,-0.105912,-0.093768,0.502661,-0.097212,0.814406,2.293686,0.196111,-11.772497
1790539184.7701,-0.049253,-0.109763,-0.083968,-0.051207,-0.108607,-0.083968,-0.032776,-0.608365,0.700277,0.492271,0.605091,-12.820399
1790539184.7839,-0.042073,-0.110008,-0.069880,-0.044813,-0.109588,-0.069880,-0.169974,-0.740707,0.822905,3.290214,-1.291089,-12.703965
1790539184.7977,-0.028886,-0.104977,-0.057104,-0.033664,-0.106360,-0.057104,-0.501435,-1.211794,0.722132,2.983590,-0.473129,-9.909560
1790539184.8117,-0.020452,-0.096582,-0.046054,-0.024415,-0.099515,-0.046054,-0.772188,-0.924042,0.631071,3.136902,-0.882109,-7.852567
1790539184.8255,-0.015284,-0.084747,-0.036855,-0.018023,-0.089177,-0.036855,-1.002875,-0.715210,0.651711,2.676966,-0.435949,-6.610609
1790539184.8393,-0.007582,-0.070286,-0.029388,-0.010715,-0.075953,-0.029388,-1.132788,-0.812341,0.504800,2.446998,0.121751,-8.589979
1790539184.8533,-0.001357,-0.051311,-0.027500,-0.004164,-0.058704,-0.027500,-1.414469,-0.711567,0.311752,2.830278,0.567911,-8.939280
1790539184.8671,0.009373,-0.030338,-0.022467,0.005312,-0.038848,-0.022467,-1.606304,-1.018745,0.140558,2.561982,0.344831,-8.861658
1790539184.8809,0.001789,-0.021204,-0.014192,0.002846,-0.026497,-0.014192,-0.830467,0.339880,-0.035493,4.670021,-0.882109,-14.916203
1790539184.8949,-0.009750,-0.032719,-0.008443,-0.005971,-0.030852,-0.008443,0.768558,1.254129,-0.813758,-5.716862,1.014071,-15.614805
1790539184.9088,0.004030,-0.046378,-0.143987,0.001029,-0.041720,-0.143987,1.386556,-0.142135,-1.476680,-6.751717,3.616671,-1.603965
1790539184.9226,-0.003720,-0.051075,-0.130441,-0.002295,-0.048268,-0.130441,0.331467,0.349593,-0.349956,2.791950,0.902531,-7.115154
1790539184.9366,0.006453,-0.066878,-0.117889,0.003828,-0.061295,-0.117889,1.108518,-0.460240,-0.479869,-3.723807,1.162791,-13.324944
1790539184.9504,0.026998,-0.086873,-0.106457,0.020047,-0.079199,-0.106457,1.482474,-1.128018,-0.760336,-4.298727,1.571771,-10.258860
1790539184.9644,0.037131,-0.095744,-0.117936,0.032006,-0.090781,-0.117936,0.976176,-0.756491,-0.879322,0.913879,3.988471,-5.950818
1790539184.9781,0.044743,-0.101841,-0.133503,0.040922,-0.098523,-0.133503,0.574295,-0.488165,-0.862324,-0.159304,2.166651,-7.425644
1790539184.9920,0.052472,-0.110298,-0.149579,0.049007,-0.106765,-0.149579,0.676283,-0.444456,-0.920603,-0.657568,1.385871,-6.804665
1790539185.0060,0.035753,-0.117858,-0.158445,0.039730,-0.114530,-0.158445,0.491734,1.164282,-0.872037,1.833751,0.828171,-18.564455
1790539185.0202,0.018524,-0.103235,-0.169320,0.024886,-0.106623,-0.169320,-1.039300,1.402254,-0.530863,-4.298727,1.757671,-21.281238
1790539185.0342,0.020153,-0.085942,-0.146967,0.021573,-0.092146,-0.146967,-1.333122,0.462508,-0.574572,-7.671589,-0.733389,-7.270399
1790539185.0482,0.010379,-0.074008,-0.160689,0.013737,-0.079450,-0.160689,-1.282128,0.716264,-0.449515,0.147319,-1.514168,-2.651867
1790539185.0623,-0.015316,-0.045429,-0.150108,-0.006600,-0.055635,-0.150108,-1.396257,1.517597,-0.399736,1.258831,2.166651,0.258972
1790539185.0765,-0.027930,-0.031046,-0.182551,-0.021531,-0.038423,-0.182551,-0.967665,1.333048,-0.612211,-4.260399,1.646131,-8.939280
1790539185.0905,-0.009156,-0.031823,-0.191211,-0.012868,-0.033803,-0.191211,0.093495,-1.136517,-0.439802,-2.842263,2.984611,-15.187882
1790539185.1044,-0.007247,-0.032677,-0.178101,-0.008934,-0.033015,-0.178101,0.177271,-0.291474,0.337249,2.446998,4.955151,-14.760958
1790539185.1184,-0.018335,-0.036092,-0.169129,-0.015515,-0.035169,-0.169129,0.108065,0.684696,0.894540,0.070663,-0.101329,-9.676693
1790539185.1324,-0.018632,-0.046474,-0.141633,-0.017697,-0.043083,-0.141633,0.689639,-0.344896,1.381411,2.485326,1.199971,-9.133336
1790539185.1462,-0.019952,-0.059085,-0.129460,-0.019276,-0.054284,-0.129460,0.917897,-0.019506,0.909110,0.223975,1.348691,-7.580888
1790539185.1602,-0.042190,-0.064016,-0.107384,-0.035316,-0.061096,-0.107384,0.474736,1.161854,0.774340,4.171758,2.464091,-6.338930
1790539185.1742,-0.051113,-0.075834,-0.100469,-0.046374,-0.071412,-0.100469,0.845049,0.571781,0.747629,0.492271,1.869211,-10.996273
1790539185.1877,-0.058670,-0.085272,-0.091959,-0.054981,-0.081114,-0.091959,0.717564,0.466150,0.850831,1.067191,2.464091,-12.199420
1790539185.2015,-0.064812,-0.086880,-0.095016,-0.061863,-0.085150,-0.095016,0.231907,0.463722,0.824120,-0.465928,3.393591,-9.637881
1790539185.2162,-0.060038,-0.089837,-0.080616,-0.060585,-0.088431,-0.080616,0.173628,-0.425030,1.069376,0.798895,2.017931,-11.073895
1790539185.2302,-0.054596,-0.088479,-0.063371,-0.056393,-0.088464,-0.063371,-0.179687,-0.513662,0.974673,1.182175,0.865351,-10.452916
1790539185.2442,-0.050742,-0.085964,-0.038938,-0.052437,-0.086714,-0.038938,-0.278032,-0.485737,1.014740,1.987063,0.567911,-9.133336
1790539185.2581,-0.037646,-0.075594,-0.021807,-0.042084,-0.078930,-0.021807,-0.690841,-1.152301,0.892112,2.217030,2.761531,-9.870749
1790539185.2720,-0.027668,-0.063200,0.009303,-0.031993,-0.067919,0.009303,-1.044156,-0.987178,0.808336,2.945262,-0.361589,-10.375294
1790539185.2860,-0.015615,-0.051205,0.031855,-0.020529,-0.056219,0.031855,-1.013803,-1.047885,0.524226,2.178703,-0.621849,-11.811308
1790539185.3000,-0.004570,-0.036060,0.049286,-0.009357,-0.042108,0.049286,-1.222635,-1.038172,0.300824,3.021918,-0.361589,-9.831937
1790539185.3140,0.004387,-0.022531,0.057566,0.000264,-0.028404,0.057566,-1.049013,-0.680000,-0.031851,0.568927,0.530731,-9.754315
1790539185.3279,-0.000625,-0.031332,0.052825,-0.000359,-0.030454,0.052825,0.545156,0.507431,-0.366954,-1.424128,0.270471,-13.480189
1790539185.3418,-0.001170,-0.051009,0.006665,-0.000927,-0.044842,0.006665,1.437550,0.466150,-0.957027,-4.682006,1.423051,-11.035084
1790539185.3558,-0.001518,-0.061156,-0.043190,-0.001341,-0.056262,-0.043190,1.073308,-0.139706,-0.960669,2.485326,3.058971,-4.010259
1790539185.3697,-0.000106,-0.069402,-0.040562,-0.000476,-0.065460,-0.040562,0.610720,-0.190700,-0.461657,2.446998,1.534591,-10.996273
1790539185.3838,0.014419,-0.086893,-0.056694,0.009950,-0.080463,-0.056694,1.216576,-0.813555,-0.806473,-2.880591,0.753811,-14.644525
1790539185.3980,0.028687,-0.102548,-0.090007,0.023066,-0.095922,-0.090007,1.382914,-0.932541,-1.077227,0.185647,3.765391,-6.921098
1790539185.4120,0.044964,-0.110145,-0.126790,0.038395,-0.105878,-0.126790,0.836550,-0.948325,-1.124578,-1.347472,3.542311,-5.756762
1790539185.4256,0.050822,-0.119983,-0.125440,0.047094,-0.115751,-0.125440,0.849906,-0.499093,-0.869609,0.683911,1.497411,-4.786483
1790539185.4393,0.050051,-0.133530,-0.126804,0.049164,-0.128196,-0.126804,0.899685,0.066698,-0.742124,0.032335,-0.510309,-13.130889
1790539185.4532,0.035488,-0.133019,-0.138724,0.039591,-0.131572,-0.138724,-0.075271,1.124215,-0.495653,-1.807408,0.270471,-18.913756
1790539185.4677,0.030718,-0.123365,-0.163226,0.033380,-0.125827,-0.163226,-0.761261,0.626417,-0.592784,-5.295254,-0.993649,-12.238231
1790539185.4817,0.023692,-0.115092,-0.166661,0.026598,-0.118312,-0.166661,-0.819540,0.758759,-0.614639,-2.957247,-2.369308,-8.124245
1790539185.4955,0.003755,-0.099849,-0.175827,0.010608,-0.105388,-0.175827,-1.222635,1.534595,-0.727554,-0.197632,-0.473129,-4.941727
1790539185.5095,-0.007654,-0.082709,-0.181989,-0.002175,-0.089513,-0.181989,-1.393829,0.959092,-0.614639,-0.619240,-1.030829,-5.873196
1790539185.5235,-0.014365,-0.065701,-0.188885,-0.010708,-0.072845,-0.188885,-1.409613,0.767258,-0.583071,-1.385800,-0.919289,-4.437182
1790539185.5374,-0.019451,-0.046633,-0.196141,-0.016828,-0.054497,-0.196141,-1.514029,0.500146,-0.468942,-0.657568,-0.993649,-8.978091
1790539185.5513,-0.035606,-0.026667,-0.205386,-0.029973,-0.035016,-0.205386,-1.511601,1.274769,-0.421590,-0.005993,0.158931,-12.936833
1790539185.5653,-0.014984,-0.026786,-0.198538,-0.019481,-0.029255,-0.198538,-0.199113,-1.247004,-0.104699,-5.946830,-3.150088,-18.370399
1790539185.5794,-0.005682,-0.034360,-0.186704,-0.009822,-0.032828,-0.186704,0.466237,-0.930113,0.447736,3.788478,0.679451,-11.927742
1790539185.5932,-0.011329,-0.040119,-0.152226,-0.010877,-0.037932,-0.152226,0.500233,-0.138492,0.802265,5.743205,2.241011,-6.300119
1790539185.6071,-0.007800,-0.044213,-0.156373,-0.008723,-0.042329,-0.156373,0.423742,-0.045003,0.094420,-1.845736,1.943571,-5.329839
1790539185.6210,-0.015401,-0.058613,-0.151843,-0.013397,-0.053727,-0.151843,1.067237,0.366591,0.090778,3.366870,1.943571,-11.151518
1790539185.6348,-0.033276,-0.072480,-0.148182,-0.027313,-0.066854,-0.148182,1.089092,1.163068,0.371245,2.523654,3.505131,-13.169700
1790539185.6483,-0.047034,-0.078688,-0.150584,-0.041118,-0.075138,-0.150584,0.672641,1.041654,0.538796,-0.350944,3.430771,-7.037532
1790539185.6619,-0.051229,-0.084729,-0.147972,-0.048195,-0.081852,-0.147972,0.525730,0.321668,0.600717,-0.389272,2.649991,-9.443825
1790539185.6758,-0.055293,-0.089724,-0.141078,-0.053164,-0.087363,-0.141078,0.409172,0.234249,0.518156,0.722239,1.832031,-8.279490
1790539185.6897,-0.047033,-0.095638,-0.132785,-0.048872,-0.093156,-0.132785,0.336323,-0.624149,0.643212,0.185647,0.307651,-13.014455
1790539185.7039,-0.039326,-0.090576,-0.116718,-0.042190,-0.091350,-0.116718,-0.386091,-0.690927,0.685707,2.446998,1.571771,-13.519000
1790539185.7182,-0.033699,-0.084215,-0.086709,-0.036246,-0.086355,-0.086709,-0.577926,-0.695784,0.677208,4.976645,-0.696209,-11.306763
1790539185.7322,-0.020527,-0.075472,-0.066830,-0.025243,-0.078737,-0.066830,-0.743049,-1.192368,0.521798,3.136902,-0.287229,-9.521448
1790539185.7462,-0.002231,-0.059317,-0.053556,-0.009134,-0.065143,-0.053556,-1.231134,-1.436410,0.367602,0.837223,0.196111,-6.338930
1790539185.7601,0.005786,-0.038991,-0.047339,0.001310,-0.046836,-0.047339,-1.476391,-0.898545,0.345748,2.753622,0.828171,-6.067252
1790539185.7742,0.018981,-0.022505,-0.037652,0.013679,-0.029804,-0.037652,-1.203209,-1.125590,0.180624,1.910407,0.939711,-8.279490
1790539185.7881,0.011156,-0.020123,-0.036151,0.011913,-0.023028,-0.036151,-0.197899,0.497718,-0.096200,2.485326,2.352551,-18.642077
1790539185.8021,0.006588,-0.023165,-0.065334,0.008185,-0.023124,-0.065334,0.293828,0.627631,-0.827114,-3.033903,3.282051,-12.509909
1790539185.8160,0.015165,-0.030040,-0.100294,0.013071,-0.027965,-0.100294,0.530586,-0.171274,-1.360122,-4.605350,2.352551,-12.082986
1790539185.8299,0.005425,-0.035359,-0.113590,0.007719,-0.033141,-0.113590,0.586437,0.441868,-0.825900,2.217030,1.534591,-2.535434
1790539185.8438,0.010398,-0.047432,-0.131716,0.009594,-0.043144,-0.131716,0.845049,-0.058359,-0.552718,-2.535639,0.605091,-7.270399
1790539185.8577,0.021527,-0.063485,-0.148800,0.017947,-0.057383,-0.148800,1.171653,-0.602295,-0.876893,-1.884064,1.832031,-12.859210
1790539185.8716,0.036793,-0.073047,-0.182996,0.031139,-0.068347,-0.182996,0.870546,-0.757705,-1.093011,-3.493839,3.988471,-8.745224
1790539185.8852,0.042121,-0.077824,-0.201413,0.038827,-0.074981,-0.201413,0.434669,-0.265977,-1.162217,-0.274288,2.724351,-9.715504
1790539185.8988,0.046443,-0.080749,-0.218319,0.044158,-0.079018,-0.218319,0.252548,-0.197985,-1.052944,-0.312616,1.385871,-6.688231
1790539185.9127,0.050678,-0.090575,-0.228101,0.048722,-0.087108,-0.228101,0.641073,-0.229553,-0.971597,-0.082648,0.419191,-9.754315
1790539185.9266,0.034863,-0.089600,-0.239143,0.039021,-0.088852,-0.239143,-0.084984,1.198278,-0.828328,0.300631,1.794851,-15.731238
1790539185.9404,0.024357,-0.074673,-0.261529,0.028756,-0.078927,-0.261529,-1.095150,1.031941,-0.744552,-5.218598,1.571771,-16.623896
1790539185.9544,0.027299,-0.061029,-0.259386,0.027736,-0.066399,-0.259386,-1.127932,0.262175,-0.717841,-6.253454,-1.291089,-7.852567
1790539185.9687,0.001010,-0.041336,-0.222942,0.009028,-0.048855,-0.222942,-1.334336,1.572234,-0.578215,2.178703,0.790991,-3.272846
1790539185.9829,-0.013363,-0.022844,-0.247297,-0.006645,-0.030647,-0.247297,-1.175283,1.232274,-0.579429,-0.810880,1.832031,-5.174595
1790539185.9970,-0.015830,-0.009632,-0.268713,-0.013075,-0.015936,-0.268713,-0.922742,0.420013,-0.630423,-2.075704,1.943571,-11.811308
1790539186.0108,0.001276,-0.020053,-0.267735,-0.003029,-0.018818,-0.267735,0.591293,-1.215436,-0.188475,0.147319,-1.811608,-21.281238
1790539186.0248,-0.009633,-0.022526,-0.248125,-0.007652,-0.021414,-0.248125,0.165129,0.529286,0.737915,3.251886,2.203831,-13.441378
1790539186.0387,-0.003211,-0.032838,-0.236958,-0.004543,-0.029411,-0.236958,0.689639,-0.561014,1.213859,-1.232488,1.014071,-9.249770
1790539186.0525,0.001956,-0.048855,-0.222070,0.000006,-0.043022,-0.222070,0.961607,-0.510020,0.866615,0.108991,-0.919289,-5.834385
1790539186.0664,-0.007276,-0.062989,-0.209571,-0.005091,-0.056999,-0.209571,0.994388,0.519573,0.792552,0.760567,0.865351,-8.046623
1790539186.0802,-0.026190,-0.081692,-0.193783,-0.019860,-0.074284,-0.193783,1.316136,1.177638,0.946748,1.833751,0.902531,-10.142427
1790539186.0940,-0.042128,-0.096907,-0.181095,-0.035448,-0.090120,-0.181095,1.181366,1.027084,1.124013,0.913879,2.538451,-8.667602
1790539186.1076,-0.058593,-0.102425,-0.174159,-0.051649,-0.098734,-0.174159,0.616790,1.108432,1.037809,1.028863,4.992331,-8.900469
1790539186.1212,-0.061032,-0.111583,-0.165506,-0.058217,-0.107728,-0.165506,0.660499,0.160187,1.176221,-0.274288,1.832031,-9.637881
1790539186.1351,-0.057294,-0.115206,-0.149011,-0.057571,-0.112963,-0.149011,0.201554,-0.352181,1.235714,0.683911,1.274331,-10.414105
1790539186.1490,-0.057748,-0.120482,-0.123502,-0.057695,-0.118226,-0.123502,0.179699,-0.103282,1.342558,1.642111,-1.142369,-11.733686
1790539186.1629,-0.047666,-0.121735,-0.096719,-0.050674,-0.120682,-0.096719,-0.094697,-0.875477,1.377768,1.642111,-0.844929,-11.073895
1790539186.1769,-0.045062,-0.121550,-0.058505,-0.046745,-0.121290,-0.058505,-0.251321,-0.478452,1.385053,4.210086,-2.034688,-10.414105
1790539186.1910,-0.039407,-0.117057,-0.029960,-0.041609,-0.118327,-0.029960,-0.535431,-0.620507,1.228429,3.175230,-1.923148,-11.539630
1790539186.2052,-0.031019,-0.110418,-0.005215,-0.034196,-0.112791,-0.005215,-0.719980,-0.848765,1.111871,3.558510,-2.666748,-9.948371
1790539186.2196,-0.029293,-0.097867,0.008152,-0.030764,-0.102344,0.008152,-1.038085,-0.463882,1.087588,3.788478,-0.956469,-7.425644
1790539186.2336,-0.020537,-0.079862,0.027482,-0.023605,-0.086607,0.027482,-1.420540,-0.892475,1.028095,2.600310,-0.398769,-8.395923
1790539186.2477,-0.006970,-0.055889,0.044742,-0.011961,-0.065105,0.044742,-1.835777,-1.242147,0.860544,2.600310,-0.398769,-8.512357
1790539186.2616,0.010502,-0.027168,0.059900,0.003763,-0.038549,0.059900,-2.207304,-1.545683,0.658996,2.485326,-0.435949,-8.395923
1790539186.2757,-0.010884,-0.021514,0.078457,-0.006490,-0.026625,0.078457,-0.563356,1.453248,0.439237,1.028863,-1.588528,-21.281238
1790539186.2897,-0.014460,-0.026752,0.058357,-0.012069,-0.026714,0.058357,0.356964,0.645843,-0.568501,-8.208181,1.348691,-16.623896
1790539186.3036,-0.000524,-0.012250,-0.012840,-0.003988,-0.016589,-0.012840,-0.690841,-0.693355,-0.663204,-3.570495,6.702610,-7.930189
1790539186.3175,-0.002393,-0.019690,0.006354,-0.002872,-0.018759,0.006354,0.382461,0.335023,0.015501,-3.072231,-0.770569,-10.025993
1790539186.3315,0.011911,-0.037213,0.007828,0.007476,-0.031677,0.007828,1.208077,-0.670287,-0.545433,-5.755190,0.679451,-11.850119
1790539186.3451,0.026991,-0.055743,0.000756,0.021136,-0.048523,0.000756,1.347704,-0.962895,-0.793118,-0.887536,1.088431,-10.181238
1790539186.3586,0.038338,-0.066073,-0.047354,0.033178,-0.060808,-0.047354,1.200793,-0.676357,-0.931530,-0.542584,4.360271,-3.622147
1790539186.3726,0.046008,-0.068524,-0.061660,0.042159,-0.066209,-0.061660,0.496590,-0.428672,-1.000736,-0.235960,3.728211,-4.437182
1790539186.3866,0.052829,-0.074746,-0.080942,0.049628,-0.072185,-0.080942,0.547584,-0.323042,-1.031090,-1.002520,2.835891,-8.240679
1790539186.4010,0.028882,-0.073362,-0.104162,0.035106,-0.073008,-0.104162,-0.033990,1.868485,-0.991023,-3.148887,5.141051,-19.069001
1790539186.4160,0.025702,-0.057311,-0.122827,0.028523,-0.062020,-0.122827,-1.041728,0.598492,-0.906033,-8.169853,3.133331,-14.838581
1790539186.4304,0.019317,-0.044953,-0.123122,0.022079,-0.050073,-0.123122,-1.007732,0.938452,-0.804045,-5.678534,-1.253909,-6.804665
1790539186.4445,0.006053,-0.036253,-0.134901,0.010861,-0.040399,-0.134901,-0.919099,1.144856,-0.516293,-0.695896,-1.402628,-3.699769
1790539186.4592,-0.016583,-0.010132,-0.034028,-0.008350,-0.019212,-0.034028,-1.147358,1.560092,-0.779762,0.300631,2.798711,-0.012706
1790539186.4735,-0.033016,-0.001601,-0.057636,-0.025616,-0.006884,-0.057636,-0.520861,1.394969,-0.757908,-1.040848,2.910251,-11.578441
1790539186.4874,0.000009,-0.022035,-0.059383,-0.007679,-0.017490,-0.059383,1.431480,-2.338518,-0.348742,-0.005993,2.092291,-19.534735
1790539186.5016,-0.019116,-0.024036,-0.090537,-0.015685,-0.022072,-0.090537,0.365463,0.956664,0.571578,8.541148,7.483390,-10.025993
1790539186.5158,-0.019752,-0.037526,-0.084001,-0.018532,-0.032890,-0.084001,0.832908,-0.053502,0.658996,0.377287,-0.064149,-12.277042
1790539186.5297,-0.022805,-0.057286,-0.065727,-0.021523,-0.049967,-0.065727,1.415696,0.015704,0.921251,1.680439,1.646131,-10.375294
1790539186.5435,-0.026886,-0.076216,-0.078043,-0.025277,-0.068341,-0.078043,1.202007,0.373876,0.563079,-1.424128,-0.993649,-8.085434
1790539186.5574,-0.046448,-0.092008,-0.063937,-0.040097,-0.084908,-0.063937,1.107304,1.268698,0.844760,1.987063,1.274331,-12.471098
1790539186.5709,-0.050872,-0.109791,-0.056129,-0.047639,-0.102326,-0.056129,1.210506,0.305884,0.972245,-0.274288,0.121751,-11.772497
1790539186.5845,-0.054943,-0.113839,-0.037951,-0.052752,-0.110385,-0.037951,0.296257,0.166257,1.074233,1.642111,1.869211,-10.336483
1790539186.5984,-0.048516,-0.112235,-0.024559,-0.049787,-0.111680,-0.024559,-0.245251,-0.519733,1.082732,0.338959,-0.175689,-10.957462
1790539186.6121,-0.046098,-0.115885,-0.001792,-0.047205,-0.114623,-0.001792,0.020646,-0.432315,1.284279,3.175230,-1.997508,-9.482637
1790539186.6260,-0.043085,-0.118821,0.019377,-0.044321,-0.117562,0.019377,-0.002422,-0.422602,1.238142,2.676966,-1.737248,-10.414105
1790539186.6400,-0.038984,-0.115721,0.038436,-0.040585,-0.116273,0.038436,-0.373950,-0.608365,1.143439,4.478381,-0.807749,-9.560259
1790539186.6540,-0.033108,-0.102695,0.057095,-0.035351,-0.106768,0.057095,-1.016231,-0.728565,1.211431,3.711822,0.344831,-8.706413
1790539186.6679,-0.028032,-0.088284,0.077368,-0.030228,-0.093829,0.077368,-1.234776,-0.620507,1.001384,2.676966,-1.328269,-8.434735
1790539186.6818,-0.021757,-0.071205,0.094329,-0.024298,-0.077993,0.094329,-1.399900,-0.698212,0.849617,2.446998,-0.993649,-8.240679
1790539186.6956,-0.011512,-0.049704,0.108941,-0.015348,-0.058190,0.108941,-1.684009,-0.894903,0.559437,1.028863,-0.250049,-6.804665
1790539186.7097,0.006510,-0.027313,0.124324,-0.000047,-0.036576,0.124324,-1.719219,-1.392701,0.440451,0.453943,-0.212869,-7.231588
1790539186.7241,0.002093,-0.019301,0.132935,0.001451,-0.024483,0.132935,-0.684770,0.143189,0.438022,2.255358,-0.510309,-12.975644
1790539186.7381,-0.006694,-0.035947,0.130899,-0.004251,-0.032508,0.130899,1.136443,0.803682,-0.286820,-3.033903,0.902531,-17.322497
1790539186.7520,-0.002388,-0.047232,-0.018237,-0.002947,-0.042815,-0.018237,1.403554,-0.066858,-0.728768,-1.117504,5.103871,-2.419000
1790539186.7658,0.004521,-0.053493,-0.002339,0.002281,-0.050290,-0.002339,0.659285,-0.661788,0.153913,1.373815,2.835891,-5.252217
1790539186.7797,0.025706,-0.074610,0.010610,0.018678,-0.067314,0.010610,1.464261,-1.339279,0.003360,-3.762135,0.121751,-10.530539
1790539186.7932,0.054545,-0.105406,0.013903,0.043785,-0.093979,0.013903,2.340872,-1.892928,-0.136267,-4.758662,2.241011,-10.918651
1790539186.8069,0.069228,-0.126014,0.022763,0.061595,-0.116403,0.022763,1.816363,-1.084309,-0.247968,-0.197632,4.732071,-7.309210
1790539186.8204,0.058803,-0.132207,0.021551,0.059641,-0.127466,0.021551,0.620433,0.722334,-0.186047,0.568927,4.062831,-11.811308
1790539186.8343,0.054494,-0.136305,0.018955,0.056038,-0.133653,0.018955,0.171200,0.440653,-0.275893,-3.532167,-2.071868,-15.149070
1790539186.8482,0.041641,-0.135555,0.015861,0.045960,-0.134985,0.015861,-0.205184,1.075650,-0.396093,-2.765607,-2.034688,-11.345574
1790539186.8619,0.023481,-0.130464,0.018654,0.030225,-0.131820,0.018654,-0.591281,1.494529,-0.360883,-2.420655,-2.778288,-8.939280
1790539186.8758,0.009544,-0.117949,0.013317,0.015748,-0.122110,0.013317,-1.028372,1.249272,-0.461657,-2.535639,-1.068009,-6.843476
1790539186.8897,-0.006523,-0.092940,0.013317,0.000158,-0.101691,0.013317,-1.601447,1.523668,-0.487154,-2.267343,1.646131,-3.428091
1790539186.9035,-0.010749,-0.067937,0.003453,-0.007477,-0.078063,0.003453,-1.892841,0.542641,-0.176333,-2.152360,-0.175689,-6.416553
1790539186.9175,-0.017040,-0.039309,-0.002946,-0.014171,-0.050935,-0.002946,-2.241300,0.678625,0.050711,-2.765607,-1.402628,-7.503266
1790539186.9314,-0.023158,-0.014519,-0.008600,-0.020462,-0.025444,-0.008600,-1.955977,0.548712,0.129630,-1.999048,-1.365448,-12.082986
1790539186.9452,-0.019575,-0.014372,-0.010509,-0.019841,-0.017694,-0.010509,-0.199113,-0.320614,0.308109,0.568927,-1.662888,-15.187882
1790539186.9590,-0.002881,-0.027900,0.064804,-0.007969,-0.024838,0.064804,1.062380,-1.854075,0.798623,7.697932,2.352551,-5.019350
1790539186.9733,-0.008026,-0.034941,0.079790,-0.008009,-0.031910,0.079790,0.531800,-0.055931,1.285494,3.405198,2.092291,-7.852567
1790539186.9872,0.005217,-0.036660,0.083684,0.001250,-0.035235,0.083684,0.472307,-0.960467,0.848402,-1.079176,3.876931,-3.816203
1790539187.0011,0.001529,-0.042860,0.095738,0.001445,-0.040573,0.095738,0.507517,-0.017078,0.366388,4.401726,2.724351,-10.375294
1790539187.0150,-0.009313,-0.052158,0.104271,-0.006085,-0.048682,0.104271,0.675069,0.610633,0.452592,2.945262,2.166651,-13.945924
1790539187.0285,-0.026971,-0.061054,0.113553,-0.020705,-0.057343,0.113553,0.743061,1.108432,0.685707,3.213558,3.653851,-12.587532
1790539187.0420,-0.037189,-0.062099,0.111501,-0.032244,-0.060672,0.111501,0.290186,0.683482,0.524226,0.568927,3.653851,-6.727042
1790539187.0559,-0.041114,-0.064760,0.115742,-0.038453,-0.063534,0.115742,0.274402,0.218465,0.489016,0.607255,2.575631,-8.512357
1790539187.0696,-0.040295,-0.066679,0.123232,-0.039742,-0.065735,0.123232,0.191841,-0.146991,0.589790,0.683911,2.092291,-8.007811
1790539187.0835,-0.038171,-0.066143,0.131732,-0.038642,-0.066020,0.131732,-0.006065,-0.240480,0.674780,0.875551,3.133331,-13.286133
1790539187.0974,-0.027132,-0.063281,0.152035,-0.030585,-0.064103,0.152035,-0.263463,-0.993248,0.843546,2.753622,1.497411,-14.644525
1790539187.1113,-0.020806,-0.054478,0.177566,-0.023739,-0.057366,0.177566,-0.682342,-0.778345,0.751271,4.248414,1.125611,-10.258860
1790539187.1251,-0.007310,-0.043961,0.194873,-0.012239,-0.047983,0.194873,-0.745477,-1.245790,0.575220,2.332014,1.460231,-7.037532
1790539187.1390,0.002820,-0.034428,0.211689,-0.001697,-0.038495,0.211689,-0.726051,-0.988392,0.359103,2.600310,0.828171,-7.697322
1790539187.1528,0.007780,-0.026617,0.219916,0.004937,-0.030180,0.219916,-0.557285,-0.562228,0.140558,2.906934,1.757671,-9.637881
1790539187.1666,0.005667,-0.027108,0.206575,0.005448,-0.028030,0.206575,0.083782,0.263389,-0.396093,-0.810880,3.021791,-13.324944
1790539187.1806,0.008340,-0.029139,0.164700,0.007473,-0.028806,0.164700,0.284115,0.134690,-1.130649,-2.382327,3.728211,-10.220049
1790539187.1943,0.014204,-0.040308,0.128508,0.012185,-0.036858,0.128508,0.840192,-0.042575,-1.448754,-2.650623,1.720491,-9.948371
1790539187.2082,0.012639,-0.046342,0.121015,0.012503,-0.043497,0.121015,0.592507,0.080053,-1.116079,1.987063,2.538451,-5.795574
1790539187.2223,0.018018,-0.056779,0.102759,0.016363,-0.052794,0.102759,0.764916,-0.214983,-0.829542,-0.772552,1.348691,-8.201867
1790539187.2368,0.036778,-0.075790,0.074461,0.030654,-0.068891,0.074461,1.262714,-1.010246,-1.239922,-3.302199,0.642271,-13.053266
1790539187.2509,0.046489,-0.087068,0.050565,0.041738,-0.081615,0.050565,0.983461,-0.568299,-1.402617,0.032335,3.616671,-7.309210
1790539187.2645,0.054515,-0.090709,0.023589,0.050682,-0.087981,0.023589,0.511160,-0.426244,-1.340696,-0.619240,3.914111,-6.106063
1790539187.2782,0.050876,-0.099028,0.013621,0.050818,-0.095714,0.013621,0.541513,0.320453,-1.273918,0.607255,0.828171,-12.626343
1790539187.2923,0.047430,-0.109478,-0.007939,0.048446,-0.105349,-0.007939,0.662928,0.390874,-1.167073,-1.692424,0.158931,-15.187882
1790539187.3063,0.034699,-0.109092,-0.019289,0.038823,-0.107969,-0.019289,-0.138406,0.980947,-0.991023,-0.274288,-0.956469,-15.964105
1790539187.3203,0.032379,-0.103255,-0.056422,0.034312,-0.104669,-0.056422,-0.536645,0.513502,-1.114865,-4.796990,-1.030829,-10.685784
1790539187.3341,0.025864,-0.086359,-0.088627,0.028399,-0.091852,-0.088627,-1.291841,0.838892,-1.055372,-3.417183,-0.064149,-7.153965
1790539187.3481,0.018418,-0.069782,-0.103030,0.021412,-0.076403,-0.103030,-1.386544,0.723549,-0.885392,-1.002520,-1.365448,-6.377742
1790539187.3620,0.012126,-0.052447,-0.118408,0.014912,-0.059633,-0.118408,-1.431467,0.756330,-0.774906,-1.960720,-1.068009,-5.679140
1790539187.3759,0.007002,-0.034659,-0.132382,0.009375,-0.042151,-0.132382,-1.448465,0.701694,-0.776120,-3.225543,-1.365448,-8.706413
1790539187.3900,-0.004472,-0.014959,-0.150151,-0.000318,-0.023116,-0.150151,-1.545597,1.057438,-0.771263,-1.730752,-1.142369,-10.724595
1790539187.4040,0.001058,0.000435,-0.160608,0.000645,-0.006630,-0.160608,-1.211708,-0.111781,-0.613425,-4.260399,-0.324409,-14.838581
1790539187.4180,0.017615,-0.012553,-0.155222,0.012524,-0.010776,-0.155222,0.762487,-1.294356,0.263186,1.067191,-1.774428,-17.206063
1790539187.4320,0.011786,-0.021666,-0.115005,0.012007,-0.018399,-0.115005,0.619219,0.001134,0.824120,7.046356,1.237151,-13.984735
1790539187.4459,0.014714,-0.024747,-0.063334,0.013902,-0.022842,-0.063334,0.559726,-0.019506,0.538796,-2.842263,3.728211,-3.660958
1790539187.4598,0.010397,-0.031034,-0.048262,0.011448,-0.028577,-0.048262,0.482020,0.054556,0.203693,3.021918,1.534591,-7.619700
1790539187.4738,-0.007103,-0.048037,-0.038371,-0.001537,-0.042199,-0.038371,1.149799,0.971234,0.463519,4.785005,0.233291,-11.462007
1790539187.4880,-0.028304,-0.062990,-0.025795,-0.020274,-0.056752,-0.025795,1.123088,1.331834,0.690564,1.795423,2.724351,-9.831937
1790539187.5016,-0.040135,-0.071048,-0.018838,-0.034176,-0.066760,-0.018838,0.689639,0.838892,0.784053,-0.350944,3.319231,-9.831937
1790539187.5157,-0.041952,-0.076624,-0.013319,-0.039619,-0.073664,-0.013319,0.494162,0.139546,0.825334,-0.849208,2.761531,-7.619700
1790539187.5297,-0.033404,-0.079240,-0.002972,-0.035269,-0.077567,-0.002972,0.077711,-0.695784,0.877542,0.300631,0.084571,-10.181238
1790539187.5435,-0.025006,-0.078222,0.015846,-0.028085,-0.078025,0.015846,-0.139620,-0.788058,0.998956,2.140375,1.014071,-13.829490
1790539187.5574,-0.016861,-0.072297,0.038241,-0.020228,-0.074015,0.038241,-0.508719,-0.841481,1.053592,3.328542,0.456371,-12.820399
1790539187.5713,-0.007437,-0.061899,0.061369,-0.011274,-0.065534,0.061369,-0.837752,-1.036957,0.985600,4.133430,0.121751,-9.482637
1790539187.5852,0.001448,-0.044678,0.079210,-0.002369,-0.050935,0.079210,-1.313696,-1.028458,0.790124,3.941790,0.270471,-7.658511
1790539187.5992,0.010009,-0.025698,0.093509,0.006296,-0.033269,0.093509,-1.391401,-0.937398,0.582505,2.753622,0.790991,-6.804665
1790539187.6130,0.019125,-0.009181,0.105084,0.015276,-0.016407,0.105084,-1.181354,-0.934970,0.487802,2.178703,1.423051,-7.076343
1790539187.6268,0.013863,-0.001917,0.109219,0.014287,-0.006264,0.109219,-0.478366,0.218465,0.302038,1.757095,2.426911,-9.210958
1790539187.6406,0.005841,-0.007841,0.101806,0.008375,-0.007368,0.101806,0.455309,0.642201,-0.409449,0.760567,3.430771,-15.847672
1790539187.6545,0.013824,-0.018799,0.076071,0.012190,-0.015370,0.076071,0.794055,-0.242909,-1.168288,-3.225543,2.352551,-14.566903
1790539187.6685,0.011279,-0.033274,0.067466,0.011552,-0.027903,0.067466,1.006530,0.229393,-1.012877,2.102047,1.088431,-10.841028
1790539187.6824,0.009429,-0.039463,0.058824,0.010066,-0.035995,0.058824,0.541513,0.001134,-0.426447,2.255358,1.980751,-6.261308
1790539187.6963,0.021720,-0.054694,0.045926,0.018224,-0.049084,0.045926,1.036883,-0.684856,-0.636493,-2.497311,0.307651,-12.315854
1790539187.7102,0.036941,-0.072741,0.026303,0.031326,-0.065644,0.026303,1.320993,-0.891260,-0.908461,-2.190688,2.017931,-11.966553
1790539187.7241,0.050819,-0.077913,-0.007000,0.044971,-0.074233,-0.007000,0.656857,-0.958038,-1.039589,0.645583,4.137191,-5.717951
1790539187.7382,0.053340,-0.083696,-0.013147,0.050829,-0.080857,-0.013147,0.488091,-0.247765,-0.916960,1.527127,1.943571,-6.300119
1790539187.7523,0.045325,-0.091205,-0.025893,0.046977,-0.088101,-0.025893,0.518445,0.623989,-1.028661,0.530599,1.534591,-11.500819
1790539187.7661,0.029481,-0.085856,-0.051192,0.034730,-0.086530,-0.051192,-0.418873,1.356117,-1.079655,-2.612295,1.199971,-14.683336
1790539187.7801,0.024752,-0.076351,-0.077585,0.027746,-0.079405,-0.077585,-0.824396,0.647058,-1.125793,-4.260399,-1.625708,-13.053266
1790539187.7941,0.016424,-0.066288,-0.093808,0.019821,-0.070223,-0.093808,-0.960380,0.876530,-0.942457,-2.535639,-2.592388,-8.512357
1790539187.8079,0.011297,-0.047183,-0.126065,0.013854,-0.054095,-0.126065,-1.245704,0.808538,-0.862324,-1.539112,0.976891,-2.419000
1790539187.8218,-0.001215,-0.030676,-0.133390,0.003306,-0.037702,-0.133390,-1.181354,0.956664,-0.734839,0.798895,1.088431,-6.959909
1790539187.8357,-0.010370,-0.016977,-0.154493,-0.006267,-0.023195,-0.154493,-1.030801,0.948165,-0.855039,-2.535639,0.679451,-12.393476
1790539187.8495,-0.007207,-0.003374,-0.167865,-0.006925,-0.009320,-0.167865,-1.016231,-0.015864,-0.549075,-2.382327,1.497411,-14.101168
1790539187.8634,0.006211,-0.002643,-0.166082,0.002270,-0.004646,-0.166082,-0.203970,-0.948325,0.000931,-0.695896,-0.882109,-13.945924
1790539187.8774,0.001448,-0.010544,-0.142367,0.001694,-0.008775,-0.142367,0.500233,0.039987,0.529083,3.903462,0.716631,-10.608161
1790539187.8913,0.005279,-0.024163,-0.130797,0.004204,-0.019547,-0.130797,0.973748,-0.412888,0.735487,0.185647,1.199971,-6.959909
1790539187.9053,0.007695,-0.034510,-0.128268,0.006647,-0.030021,-0.128268,0.819552,-0.138492,0.417382,-1.040848,1.906391,-6.338930
1790539187.9192,-0.004655,-0.043842,-0.120294,-0.001264,-0.039696,-0.120294,0.645930,0.770900,0.405241,1.795423,1.385871,-13.596623
1790539187.9332,-0.017897,-0.056296,-0.111226,-0.012907,-0.051316,-0.111226,0.879045,0.823108,0.548509,1.527127,1.646131,-12.393476
1790539187.9467,-0.036896,-0.064818,-0.096703,-0.029699,-0.060767,-0.096703,0.745489,1.216490,0.787695,1.872079,3.058971,-8.318301
1790539187.9603,-0.047494,-0.066850,-0.090651,-0.042156,-0.065025,-0.090651,0.299899,0.729619,0.720918,0.147319,3.691031,-8.279490
1790539187.9742,-0.049442,-0.072634,-0.082900,-0.047256,-0.070352,-0.082900,0.460166,0.083696,0.750057,0.185647,2.389731,-9.016902
1790539187.9886,-0.042112,-0.077453,-0.068513,-0.043655,-0.075323,-0.068513,0.322968,-0.631434,0.729416,1.527127,2.092291,-12.121798
1790539188.0027,-0.029583,-0.077711,-0.053654,-0.033805,-0.076994,-0.053654,-0.055844,-1.018745,0.574006,1.833751,0.530731,-13.053266
1790539188.0166,-0.017265,-0.074751,-0.021447,-0.022227,-0.075424,-0.021447,-0.365451,-1.209366,0.576435,4.670021,-1.105189,-9.754315
1790539188.0305,-0.006670,-0.067785,0.005370,-0.011337,-0.070077,0.005370,-0.631348,-1.129232,0.690564,4.325070,-0.621849,-8.124245
1790539188.0444,0.001479,-0.056305,0.017474,-0.002366,-0.060437,0.017474,-0.964023,-1.045456,0.470804,4.171758,-0.733389,-4.747672
1790539188.0584,0.007580,-0.043866,0.033347,0.004596,-0.048837,0.033347,-1.055083,-0.723709,0.253473,2.945262,-0.919289,-6.532986
1790539188.0723,0.016229,-0.032896,0.045591,0.012739,-0.037678,0.045591,-0.937312,-0.828125,0.085921,2.638638,-0.770569,-8.395923
1790539188.0864,0.023994,-0.022029,0.049020,0.020618,-0.026724,0.049020,-0.836538,-0.757705,0.019143,2.983590,0.456371,-9.055714
1790539188.1003,0.014391,-0.016701,0.048085,0.016259,-0.019707,0.048085,-0.467439,0.598492,-0.334172,3.635166,0.493551,-13.868301
1790539188.1143,0.008772,-0.022252,0.020614,0.011018,-0.021488,0.020614,0.403101,0.783042,-1.082083,-4.911974,2.203831,-14.838581
1790539188.1281,0.018712,-0.020806,-0.173870,0.016404,-0.021011,-0.173870,0.603435,-0.278119,-1.310342,-1.194160,4.657711,-0.439629
1790539188.1419,0.017728,-0.025767,-0.170705,0.017331,-0.024340,-0.170705,0.539085,0.060627,-0.490796,0.645583,2.203831,-4.281937
1790539188.1565,0.024419,-0.045279,-0.168612,0.022293,-0.038997,-0.168612,1.255429,-0.233195,-0.524792,-2.688951,0.010211,-9.327392
1790539188.1707,0.043097,-0.060337,-0.186928,0.036856,-0.053935,-0.186928,1.205649,-1.100093,-1.083298,-1.232488,3.096151,-7.231588
1790539188.1844,0.050420,-0.074203,-0.199244,0.046351,-0.068123,-0.199244,1.084235,-0.461454,-1.114865,0.415615,2.538451,-8.900469
1790539188.1981,0.060062,-0.085290,-0.204504,0.055949,-0.080140,-0.204504,0.906970,-0.690927,-0.891463,0.645583,2.798711,-8.395923
1790539188.2120,0.062891,-0.099452,-0.212102,0.060808,-0.093659,-0.212102,0.959178,-0.125137,-0.627994,-1.002520,0.344831,-11.772497
1790539188.2260,0.044564,-0.101558,-0.214299,0.049437,-0.099188,-0.214299,0.076497,1.308765,-0.626780,0.722239,0.270471,-15.614805
1790539188.2405,0.037525,-0.091957,-0.212869,0.041099,-0.094126,-0.212869,-0.821968,0.716264,-0.652277,-4.298727,-1.923148,-12.432287
1790539188.2545,0.034316,-0.079290,-0.208401,0.036351,-0.083741,-0.208401,-1.096364,0.488005,-0.708128,-3.532167,-1.960328,-9.599070
1790539188.2685,0.022279,-0.060955,-0.213730,0.026501,-0.067791,-0.213730,-1.475177,1.116931,-0.784619,-1.692424,-0.770569,-6.028441
1790539188.2825,0.005931,-0.043300,-0.189377,0.012102,-0.050647,-0.189377,-1.561381,1.165496,-0.620710,0.607255,-1.551348,-4.010259
1790539188.2965,0.003980,-0.020875,-0.203758,0.006416,-0.029807,-0.203758,-1.540740,0.564496,-0.589142,-1.270816,0.530731,-1.953266
1790539188.3105,-0.012428,-0.005417,-0.208341,-0.006775,-0.012734,-0.208341,-1.118219,1.186137,-0.422804,1.028863,0.939711,-6.882287
1790539188.3244,-0.014601,0.003375,-0.212717,-0.012253,-0.001458,-0.212717,-0.760047,0.411514,-0.330530,-6.176798,-0.993649,-21.281238
1790539188.3384,0.001519,-0.007350,-0.199877,-0.002612,-0.005583,-0.199877,0.649572,-1.270073,0.499944,0.377287,0.158931,-18.021098
1790539188.3523,0.000077,-0.009869,-0.183365,-0.000730,-0.008583,-0.183365,0.314469,-0.184630,1.007455,1.757095,3.653851,-8.085434
1790539188.3661,0.003881,-0.023253,-0.165898,0.002498,-0.018852,-0.165898,0.795269,-0.369179,0.966174,-0.619240,-0.584669,-5.485084
1790539188.3800,-0.006705,-0.032580,-0.139854,-0.003944,-0.028462,-0.139854,0.831693,0.235463,0.559437,3.826806,1.980751,-2.962357
1790539188.3940,-0.020494,-0.047786,-0.131983,-0.015529,-0.041989,-0.131983,1.097591,0.802468,0.516942,2.063719,1.534591,-8.706413
1790539188.4079,-0.042337,-0.062365,-0.125473,-0.034294,-0.056252,-0.125473,1.100019,1.398612,0.786481,2.332014,2.984611,-11.539630
1790539188.4214,-0.057813,-0.072944,-0.126370,-0.050758,-0.067936,-0.126370,0.857190,1.169139,0.836261,-1.079176,3.133331,-10.336483
1790539188.4353,-0.055022,-0.076791,-0.119810,-0.053742,-0.074135,-0.119810,0.315683,-0.265977,0.893326,0.223975,3.133331,-10.996273
1790539188.4493,-0.040874,-0.073490,-0.108722,-0.044735,-0.073683,-0.108722,-0.263463,-1.095236,0.825334,0.377287,1.757671,-10.763406
1790539188.4633,-0.036101,-0.071340,-0.078733,-0.038691,-0.072043,-0.078733,-0.338740,-0.625363,0.986815,3.558510,-1.068009,-10.646972
1790539188.4779,-0.025720,-0.071201,-0.041175,-0.029611,-0.071454,-0.041175,-0.247679,-1.109806,1.079089,5.781533,-2.406488,-9.987182
1790539188.4935,-0.013656,-0.059923,-0.015592,-0.018443,-0.063382,-0.015592,-0.834110,-1.106164,1.070590,4.095102,-0.175689,-9.482637
1790539188.5081,-0.003278,-0.047561,0.007374,-0.007828,-0.052307,0.007374,-0.989520,-1.016317,0.876328,3.366870,-0.659029,-9.793126
1790539188.5225,0.006631,-0.032861,0.022994,0.002294,-0.038695,0.022994,-1.117005,-0.970180,0.652926,2.830278,0.084571,-8.861658
1790539188.5375,0.014244,-0.012756,0.028803,0.010659,-0.020538,0.028803,-1.369546,-0.701854,0.269257,2.178703,1.014071,-8.357112
1790539188.5514,0.023395,0.004011,0.034903,0.019574,-0.003354,0.034903,-1.267558,-0.781988,-0.023352,1.833751,0.828171,-9.715504
1790539188.5652,0.015420,-0.001452,0.035332,0.016666,-0.002023,0.035332,0.286544,0.724763,-0.553932,-0.734224,0.382011,-15.808861
1790539188.5792,0.014945,-0.021726,0.016990,0.015462,-0.015815,0.016990,1.381700,0.454009,-1.316413,-4.796990,0.828171,-14.799770
1790539188.5930,0.015337,-0.020101,-0.204381,0.015375,-0.018815,-0.204381,0.648358,-0.017078,-1.216853,2.293686,4.992331,1.306874
1790539188.6070,0.008410,-0.030563,-0.207906,0.010499,-0.027038,-0.207906,0.730920,0.534142,-0.561217,0.837223,1.125611,-8.551168
1790539188.6210,0.021486,-0.048698,-0.205927,0.018190,-0.042200,-0.205927,1.280926,-0.605937,-0.884178,-5.218598,1.608951,-13.441378
1790539188.6345,0.041711,-0.065591,-0.219346,0.034655,-0.058574,-0.219346,1.397484,-1.222721,-1.042017,-2.420655,3.505131,-8.395923
1790539188.6481,0.048239,-0.073189,-0.194607,0.044164,-0.068804,-0.194607,0.853548,-0.523375,-0.988595,1.182175,4.397451,-4.941727
1790539188.6617,0.053511,-0.083139,-0.208947,0.050707,-0.078839,-0.208947,0.852334,-0.346111,-0.982524,0.492271,2.798711,-7.658511
1790539188.6757,0.049027,-0.098298,-0.208146,0.049531,-0.092460,-0.208146,0.956750,0.324096,-1.061443,1.680439,-0.547489,-15.187882
1790539188.6896,0.032976,-0.096810,-0.222910,0.037942,-0.095505,-0.222910,-0.190614,1.322121,-1.059015,-2.458983,0.010211,-17.400119
1790539188.7036,0.029142,-0.089234,-0.226230,0.031782,-0.091116,-0.226230,-0.706625,0.520787,-1.009235,-3.493839,-1.774428,-12.238231
1790539188.7174,0.024955,-0.079834,-0.216924,0.027003,-0.083218,-0.216924,-0.899673,0.702908,-0.989809,-3.915447,-1.774428,-6.377742
1790539188.7316,0.012278,-0.061224,-0.224406,0.016696,-0.067822,-0.224406,-1.424183,1.023442,-0.879322,-0.159304,-0.212869,-3.855014
1790539188.7464,0.009425,-0.040484,-0.228797,0.011606,-0.048685,-0.228797,-1.557738,0.559639,-0.853825,-2.573967,-0.882109,-5.329839
1790539188.7605,-0.005464,-0.019368,-0.240117,-0.000343,-0.028163,-0.240117,-1.539526,1.192207,-0.805259,0.262303,0.790991,-9.288581
1790539188.7744,-0.019303,-0.003258,-0.245348,-0.013615,-0.010729,-0.245348,-1.313696,1.226203,-0.757908,-1.462456,-1.662888,-12.898021
1790539188.7884,0.000932,-0.004134,-0.247243,-0.003432,-0.006113,-0.247243,0.000006,-1.219079,-0.402164,-4.873646,1.088431,-16.662707
1790539188.8023,-0.004414,-0.001814,-0.237161,-0.004119,-0.003104,-0.237161,-0.138406,0.116478,0.546081,4.286742,3.356411,-13.363756
1790539188.8162,-0.006670,-0.007066,-0.219015,-0.005904,-0.005877,-0.219015,0.341180,-0.195557,0.923679,3.596838,1.534591,-10.220049
1790539188.8302,0.000211,-0.015311,-0.220578,-0.001623,-0.012481,-0.220578,0.802554,-0.525804,0.552152,-0.619240,3.319231,-5.562707
1790539188.8441,-0.014455,-0.023738,-0.205946,-0.010605,-0.020361,-0.205946,0.633788,0.698052,0.399170,4.670021,1.794851,-7.542077
1790539188.8579,-0.031836,-0.040381,-0.197594,-0.025467,-0.034375,-0.197594,1.193508,1.080506,0.622572,2.600310,2.055111,-12.781588
1790539188.8715,-0.049362,-0.053585,-0.194178,-0.042193,-0.047822,-0.194178,1.069665,1.121787,0.882398,1.872079,4.025651,-11.035084
1790539188.8851,-0.058104,-0.056575,-0.194283,-0.053331,-0.053949,-0.194283,0.350893,0.574209,0.956461,-0.005993,3.914111,-8.628791
1790539188.8990,-0.054959,-0.054966,-0.191951,-0.054471,-0.054661,-0.191951,0.007291,-0.306044,0.866615,0.223975,4.100011,-8.939280
1790539188.9130,-0.035820,-0.055887,-0.177668,-0.041416,-0.055519,-0.177668,-0.012135,-1.455836,0.950390,-0.389272,1.423051,-12.781588
1790539188.9269,-0.025028,-0.051255,-0.150206,-0.029944,-0.052534,-0.150206,-0.438299,-1.067311,0.921251,3.788478,0.567911,-12.238231
1790539188.9408,-0.017441,-0.045068,-0.110812,-0.021192,-0.047308,-0.110812,-0.582782,-0.998105,1.120370,5.781533,-0.064149,-10.258860
1790539188.9547,-0.009637,-0.036904,-0.078583,-0.013103,-0.040025,-0.078583,-0.729693,-0.990820,0.977101,4.593365,-0.287229,-8.589979
1790539188.9686,0.004887,-0.023763,-0.062422,-0.000510,-0.028642,-0.062422,-0.991948,-1.181440,0.813192,0.032335,0.642271,-5.562707
1790539188.9826,0.007118,-0.006978,-0.044981,0.004830,-0.013477,-0.044981,-1.269987,-0.548872,0.683279,3.750150,0.605091,-7.580888
1790539188.9971,0.006900,0.001532,-0.034460,0.006279,-0.002971,-0.034460,-0.641061,-0.110567,0.322679,1.948735,1.794851,-16.352217
1790539189.0111,0.001604,-0.004853,-0.036254,0.003007,-0.004288,-0.036254,0.450453,0.435797,-0.030636,-0.925864,2.538451,-14.955014
1790539189.0249,0.010580,-0.012323,-0.075961,0.008308,-0.009912,-0.075961,0.677497,-0.165203,-1.039589,-6.138470,4.025651,-10.452916
1790539189.0389,0.006465,-0.025969,-0.093045,0.007018,-0.021152,-0.093045,1.027170,0.406657,-1.010449,0.530599,1.125611,-4.825294
1790539189.0529,0.011161,-0.034544,-0.114492,0.009918,-0.030526,-0.114492,0.800126,-0.268406,-0.512651,0.147319,2.501271,-5.446273
1790539189.0667,0.027373,-0.050215,-0.119562,0.022137,-0.044309,-0.119562,1.096376,-1.034529,-0.553932,-1.385800,0.828171,-10.802217
1790539189.0807,0.045661,-0.070027,-0.139382,0.038603,-0.062311,-0.139382,1.473975,-1.098879,-0.921817,-1.999048,2.278191,-9.870749
1790539189.0943,0.061058,-0.078899,-0.167240,0.054321,-0.073923,-0.167240,0.905756,-1.023602,-0.959455,-0.350944,4.471811,-7.153965
1790539189.1079,0.067146,-0.088989,-0.184398,0.063299,-0.084469,-0.184398,0.855976,-0.411674,-0.910889,0.338959,2.798711,-7.774944
1790539189.1216,0.056868,-0.099027,-0.196186,0.058797,-0.094660,-0.196186,0.710279,0.792755,-0.907247,0.415615,1.646131,-13.635434
1790539189.1354,0.044296,-0.104535,-0.209715,0.048646,-0.101573,-0.209715,0.290186,1.044082,-1.056587,-1.654096,-0.398769,-15.071448
1790539189.1493,0.026832,-0.103732,-0.221670,0.033376,-0.103084,-0.221670,-0.190614,1.410753,-1.113651,-1.615768,-1.328269,-14.489280
1790539189.1634,0.021601,-0.102012,-0.230197,0.025134,-0.102334,-0.230197,-0.329026,0.722334,-1.107580,-4.988630,-2.852648,-9.793126
1790539189.1773,0.010009,-0.085212,-0.253315,0.014547,-0.090349,-0.253315,-1.204423,1.192207,-0.977667,-2.727279,0.567911,-5.795574
1790539189.1913,0.007131,-0.067122,-0.266413,0.009356,-0.074090,-0.266413,-1.401114,0.571781,-0.830756,-3.723807,-0.696209,-7.542077
1790539189.2051,0.000023,-0.047603,-0.277468,0.002823,-0.055549,-0.277468,-1.532241,0.755116,-0.767621,-1.615768,-0.621849,-7.503266
1790539189.2190,-0.005170,-0.028202,-0.283479,-0.002772,-0.036406,-0.283479,-1.567451,0.634916,-0.546647,-2.075704,-1.142369,-7.425644
1790539189.2334,-0.016480,-0.006294,-0.293643,-0.012368,-0.015327,-0.293643,-1.549239,0.961520,-0.477441,-1.002520,0.753811,-8.473546
1790539189.2483,0.000425,-0.003011,-0.291885,-0.003413,-0.006706,-0.291885,-0.406732,-0.925256,-0.269822,-4.068759,-2.146228,-12.471098
1790539189.2623,0.007378,-0.011531,-0.279273,0.004141,-0.010084,-0.279273,0.467451,-0.700640,0.532725,3.136902,-0.993649,-18.253966
1790539189.2764,0.008304,-0.019812,-0.266952,0.007055,-0.016894,-0.266952,0.670213,-0.245337,0.791338,0.645583,2.501271,-7.697322
1790539189.2904,0.012985,-0.020394,-0.260448,0.011206,-0.019344,-0.260448,0.286544,-0.170060,0.264400,-1.769080,2.761531,-3.932637
1790539189.3044,0.002055,-0.029537,-0.248876,0.004800,-0.026479,-0.248876,0.666570,0.513502,0.312966,3.290214,1.460231,-7.930189
1790539189.3184,-0.014314,-0.044176,-0.241428,-0.008580,-0.038867,-0.241428,1.080593,0.988232,0.429523,2.983590,2.538451,-11.888930
1790539189.3319,-0.034865,-0.054103,-0.235028,-0.026980,-0.049532,-0.235028,0.877831,1.385256,0.666281,1.258831,3.430771,-8.240679
1790539189.3455,-0.048469,-0.058950,-0.229598,-0.042022,-0.056125,-0.229598,0.478378,0.945737,0.750057,0.108991,3.876931,-9.715504
1790539189.3594,-0.044303,-0.068920,-0.223646,-0.043619,-0.065081,-0.223646,0.695709,-0.293903,0.646855,-0.849208,1.646131,-10.763406
1790539189.3733,-0.038169,-0.071644,-0.209746,-0.039804,-0.069675,-0.209746,0.165129,-0.598652,0.751271,1.987063,1.683311,-12.393476
1790539189.3874,-0.026984,-0.069417,-0.197151,-0.030830,-0.069495,-0.197151,-0.201542,-0.907044,0.701491,1.143847,1.348691,-12.781588
1790539189.4015,-0.016187,-0.066818,-0.170018,-0.020580,-0.067621,-0.170018,-0.326598,-1.115877,0.825334,5.359925,-0.882109,-11.151518
1790539189.4155,-0.002898,-0.056895,-0.149691,-0.008203,-0.060113,-0.149691,-0.778259,-1.254289,0.746414,3.673494,0.456371,-9.831937
1790539189.4294,0.008022,-0.045335,-0.129548,0.003154,-0.049768,-0.129548,-0.957952,-1.095236,0.673566,2.715294,-0.435949,-7.348021
1790539189.4434,0.015780,-0.032206,-0.116781,0.011993,-0.037475,-0.116781,-0.968879,-0.875477,0.516942,3.060246,0.753811,-7.231588
1790539189.4573,0.024913,-0.018973,-0.111902,0.021037,-0.024524,-0.111902,-0.891174,-0.865763,0.342105,1.757095,1.980751,-7.348021
1790539189.4711,0.017233,-0.016725,-0.108843,0.018374,-0.019065,-0.108843,-0.195471,0.456437,0.027642,2.830278,2.055111,-17.283686
1790539189.4850,0.017078,-0.020834,-0.124892,0.017467,-0.020303,-0.124892,0.341180,0.229393,-0.672918,-2.612295,3.505131,-14.644525
1790539189.4995,0.023078,-0.030185,-0.146593,0.021395,-0.027220,-0.146593,0.642287,-0.114209,-1.305486,-2.190688,1.980751,-12.626343
1790539189.5136,0.012692,-0.036967,-0.167625,0.015302,-0.034043,-0.167625,0.616790,0.795183,-0.942457,1.143847,2.612811,-6.610609
1790539189.5276,0.026065,-0.041366,-0.187910,0.022836,-0.039169,-0.187910,0.409172,-0.695784,-0.688701,-1.999048,2.092291,-6.727042
1790539189.5416,0.033384,-0.056271,-0.199585,0.030219,-0.051141,-0.199585,1.017457,-0.343682,-0.818615,-1.730752,0.828171,-12.548721
1790539189.5552,0.045712,-0.066050,-0.226192,0.041064,-0.061577,-0.226192,0.910613,-0.669072,-1.089368,-1.654096,3.839751,-7.542077
1790539189.5688,0.056386,-0.070779,-0.244708,0.051790,-0.068018,-0.244708,0.477164,-0.673929,-1.112437,-0.120976,2.612811,-6.532986
1790539189.5824,0.053957,-0.078859,-0.249906,0.053307,-0.075607,-0.249906,0.647144,0.114049,-0.893891,1.297159,1.497411,-5.679140
1790539189.5963,0.032932,-0.084040,-0.259667,0.039044,-0.081510,-0.259667,0.309612,1.575876,-0.754265,0.300631,0.790991,-18.719700
1790539189.6102,0.017905,-0.073088,-0.277078,0.024247,-0.075614,-0.277078,-0.836538,1.303908,-0.727554,-3.762135,0.642271,-16.274595
1790539189.6241,0.023016,-0.061129,-0.290966,0.023386,-0.065475,-0.290966,-1.015017,-0.048646,-0.738481,-5.448566,-1.997508,-12.898021
1790539189.6380,0.012787,-0.041131,-0.307502,0.015967,-0.048434,-0.307502,-1.458179,0.942094,-0.827114,-0.772552,0.605091,-5.407462
1790539189.6518,-0.001407,-0.021693,-0.312972,0.003805,-0.029716,-0.312972,-1.654870,1.201921,-0.770049,-0.159304,-0.770569,-2.923546
1790539189.6657,-0.006225,-0.009852,-0.321864,-0.003216,-0.015811,-0.321864,-1.121861,0.713835,-0.787047,-2.229015,-2.071868,-5.523895
1790539189.6797,-0.011022,0.003648,-0.328972,-0.008680,-0.002190,-0.328972,-1.028372,0.440653,-0.504152,0.338959,0.790991,-12.587532
1790539189.6935,-0.010696,0.009828,-0.335574,-0.010091,0.006223,-0.335574,-0.517218,0.148045,-0.413091,-2.075704,0.976891,-16.779140
1790539189.7075,-0.001423,0.005382,-0.331581,-0.004023,0.005634,-0.331581,0.224622,-0.659359,0.162412,-1.117504,0.790991,-17.827042
1790539189.7215,-0.003588,-0.009049,-0.318304,-0.003719,-0.004644,-0.318304,0.953108,-0.100854,0.798623,2.102047,0.642271,-10.414105
1790539189.7356,-0.000417,-0.022605,-0.304860,-0.001408,-0.017216,-0.304860,1.011386,-0.471167,0.833833,1.565455,2.278191,-8.124245
1790539189.7502,-0.002751,-0.025989,-0.303447,-0.002348,-0.023357,-0.303447,0.361820,0.137118,0.221905,-0.005993,3.839751,-9.366203
1790539189.7642,-0.011936,-0.036603,-0.297321,-0.009059,-0.032629,-0.297321,0.719992,0.519573,0.366388,2.332014,1.311511,-13.635434
1790539189.7781,-0.030634,-0.049856,-0.287690,-0.024162,-0.044688,-0.287690,0.951893,1.149712,0.747629,2.868606,2.166651,-12.975644
1790539189.7916,-0.049221,-0.053751,-0.279356,-0.041703,-0.051032,-0.279356,0.439526,1.133929,0.827762,2.293686,3.393591,-7.037532
1790539189.8053,-0.049843,-0.058059,-0.274535,-0.047401,-0.055951,-0.274535,0.358178,0.112835,0.805907,-1.577440,2.055111,-7.115154
1790539189.8192,-0.044513,-0.063151,-0.266341,-0.045379,-0.060991,-0.266341,0.462594,-0.451741,0.752485,0.108991,3.021791,-8.046623
1790539189.8330,-0.034670,-0.062942,-0.253026,-0.037883,-0.062357,-0.253026,-0.144477,-0.783202,0.839903,-0.197632,-0.101329,-14.683336
1790539189.8467,-0.023177,-0.058492,-0.234525,-0.027589,-0.059652,-0.234525,-0.462582,-1.022388,0.929750,1.833751,-0.361589,-12.898021
1790539189.8606,-0.014780,-0.055171,-0.208920,-0.018623,-0.056515,-0.208920,-0.452869,-0.928899,0.975887,3.750150,-1.885968,-10.297672
1790539189.8745,-0.005978,-0.044689,-0.191360,-0.009771,-0.048237,-0.191360,-0.798899,-0.948325,0.877542,2.178703,0.679451,-6.261308
1790539189.8883,0.005216,-0.033335,-0.176623,0.000720,-0.037806,-0.176623,-0.910600,-0.982321,0.656568,0.760567,0.158931,-6.377742
1790539189.9023,0.009620,-0.023488,-0.164302,0.006950,-0.027783,-0.164302,-0.785544,-0.582868,0.473233,2.753622,0.196111,-8.240679
1790539189.9162,0.016452,-0.012354,-0.160650,0.013602,-0.016983,-0.160650,-0.791615,-0.588939,0.193980,1.067191,2.315371,-11.811308
1790539189.9302,0.008103,-0.011670,-0.162083,0.009753,-0.013264,-0.162083,-0.109267,0.586350,-0.239469,1.757095,1.237151,-16.817952
1790539189.9441,0.008439,-0.022546,-0.178365,0.008833,-0.019762,-0.178365,0.795269,0.276744,-1.017734,-2.612295,2.129471,-12.354665
1790539189.9579,0.012228,-0.039315,-0.199314,0.011209,-0.033449,-0.199314,1.263928,0.075197,-1.230209,-2.305671,1.832031,-8.357112
1790539189.9719,0.010317,-0.042782,-0.214109,0.010584,-0.039982,-0.214109,0.448025,-0.041361,-0.513865,3.021918,3.133331,-5.717951
1790539189.9858,0.017257,-0.054657,-0.220346,0.015255,-0.050255,-0.220346,0.815910,-0.370393,-0.553932,-0.964192,0.716631,-10.142427
1790539190.0005,0.034329,-0.069769,-0.242122,0.028607,-0.063915,-0.242122,1.149799,-0.924042,-1.017734,-2.114032,3.096151,-8.628791
1790539190.0142,0.048798,-0.082894,-0.262528,0.042740,-0.077200,-0.262528,1.049025,-0.849980,-1.134292,-1.845736,3.021791,-9.987182
1790539190.0280,0.053262,-0.091076,-0.272508,0.050106,-0.086913,-0.272508,0.681140,-0.369179,-0.807687,1.182175,2.055111,-6.959909
1790539190.0417,0.059941,-0.108035,-0.268936,0.056991,-0.101699,-0.268936,1.011386,-0.524590,-0.685059,1.105519,-2.703928,-10.569350
1790539190.0556,0.050230,-0.115307,-0.275726,0.052258,-0.111224,-0.275726,0.444382,0.733262,-0.612211,-0.312616,-0.250049,-17.827042
1790539190.0695,0.039666,-0.110288,-0.285799,0.043444,-0.110569,-0.285799,-0.405517,0.866817,-0.631637,-2.152360,0.530731,-16.740329
1790539190.0836,0.038790,-0.103432,-0.298128,0.040186,-0.105573,-0.298128,-0.592495,0.342308,-0.716627,-4.413711,-0.807749,-10.336483
1790539190.0974,0.030160,-0.090112,-0.312916,0.033168,-0.094750,-0.312916,-1.124290,0.955450,-0.952170,-2.650623,-0.956469,-5.795574
1790539190.1113,0.014126,-0.075406,-0.324104,0.019838,-0.081209,-0.324104,-1.161928,1.313622,-0.728768,-0.734224,-0.324409,-5.368651
1790539190.1253,0.010533,-0.057231,-0.337379,0.013324,-0.064425,-0.337379,-1.365904,0.718692,-0.710556,-2.957247,-0.101329,-3.777392
1790539190.1392,0.000701,-0.035245,-0.346270,0.004488,-0.043999,-0.346270,-1.652441,0.847391,-0.496867,-0.695896,0.270471,-8.124245
1790539190.1530,-0.015029,-0.017604,-0.357085,-0.009174,-0.025523,-0.357085,-1.473962,1.329405,-0.510223,-1.462456,-2.220588,-11.462007
1790539190.1670,-0.008245,-0.004680,-0.361843,-0.008523,-0.010933,-0.361843,-1.000447,-0.219840,-0.459229,-4.068759,0.270471,-13.441378
1790539190.1810,0.004531,-0.012012,-0.361000,0.000615,-0.011688,-0.361000,0.327824,-1.062454,0.189123,2.293686,-2.071868,-13.363756
1790539190.1951,-0.002518,-0.021718,-0.356544,-0.001578,-0.018709,-0.356544,0.632574,0.124977,0.680851,5.359925,0.753811,-10.530539
1790539190.2090,-0.005558,-0.035371,-0.348289,-0.004364,-0.030372,-0.348289,1.025956,0.025417,0.712419,1.220503,1.832031,-7.464455
1790539190.2228,-0.013889,-0.045461,-0.344081,-0.011031,-0.040935,-0.344081,0.915469,0.452795,0.408883,1.258831,3.133331,-6.106063
1790539190.2370,-0.027554,-0.062561,-0.338396,-0.022597,-0.056073,-0.338396,1.248144,0.792755,0.578863,3.021918,2.798711,-13.053266
1790539190.2516,-0.051719,-0.079995,-0.331155,-0.042982,-0.072818,-0.331155,1.284568,1.489672,0.751271,2.025391,2.910251,-8.667602
1790539190.2654,-0.068289,-0.089296,-0.322179,-0.060697,-0.084352,-0.322179,0.790413,1.141213,0.862972,0.492271,4.062831,-10.142427
1790539190.2797,-0.061289,-0.097273,-0.310939,-0.061111,-0.093397,-0.310939,0.534229,-0.437171,0.779196,-1.615768,1.794851,-11.462007
1790539190.2936,-0.046479,-0.097805,-0.298628,-0.050868,-0.096482,-0.298628,0.018218,-1.113448,0.816835,0.262303,1.757671,-11.112707
1790539190.3076,-0.034728,-0.095362,-0.282769,-0.039570,-0.095698,-0.282769,-0.252535,-1.026030,0.941891,2.753622,0.679451,-12.781588
1790539190.3214,-0.029166,-0.097493,-0.260425,-0.032287,-0.096954,-0.260425,-0.037632,-0.732208,1.065734,5.398253,-1.923148,-11.384385
1790539190.3353,-0.014970,-0.088980,-0.243053,-0.020165,-0.091372,-0.243053,-0.715124,-1.307711,0.955247,3.750150,-0.138509,-10.336483
1790539190.3491,0.002535,-0.070942,-0.227115,-0.004275,-0.077071,-0.227115,-1.407185,-1.478905,0.815621,2.063719,-0.250049,-9.676693
1790539190.3632,0.014562,-0.048123,-0.212809,0.008911,-0.056807,-0.212809,-1.755643,-1.285857,0.593433,4.478381,-0.770569,-6.338930
1790539190.3772,0.026246,-0.025611,-0.197084,0.021045,-0.034970,-0.197084,-1.770213,-1.158372,0.586148,2.178703,-0.733389,-5.601518
1790539190.3912,0.039104,-0.006368,-0.185562,0.033686,-0.014948,-0.185562,-1.446037,-1.096450,0.441665,1.105519,0.344831,-8.745224
1790539190.4052,0.008665,-0.017388,-0.183532,0.016171,-0.016656,-0.183532,0.659285,2.065176,0.183053,4.171758,-0.919289,-21.281238
1790539190.4190,0.014223,-0.027188,-0.192445,0.014807,-0.024029,-0.192445,0.717564,-0.018292,-0.960669,-6.943357,3.021791,-17.167252
1790539190.4331,0.012227,-0.029847,-0.209675,0.013001,-0.028102,-0.209675,0.308398,0.517144,-0.924245,-4.183743,3.653851,-9.715504
1790539190.4470,0.013184,-0.038549,-0.218783,0.013129,-0.035414,-0.218783,0.717564,0.213609,-0.523578,-3.148887,2.649991,-8.589979
1790539190.4609,0.018973,-0.055633,-0.223874,0.017220,-0.049567,-0.223874,1.180152,-0.225911,-0.625566,-2.267343,0.679451,-12.548721
1790539190.4745,0.034542,-0.072136,-0.233884,0.029346,-0.065365,-0.233884,1.259071,-0.909473,-0.852611,-2.114032,1.683311,-8.240679
1790539190.4882,0.046742,-0.079429,-0.257123,0.041523,-0.075210,-0.257123,0.756417,-0.927685,-0.953384,1.373815,3.542311,-6.222497
1790539190.5023,0.055733,-0.086801,-0.274841,0.051470,-0.083324,-0.274841,0.639859,-0.625363,-0.950956,0.645583,2.426911,-6.804665
1790539190.5164,0.057078,-0.103427,-0.286927,0.055395,-0.097396,-0.286927,1.149799,-0.063216,-0.853825,0.453943,1.385871,-14.722147
1790539190.5303,0.038542,-0.098466,-0.303610,0.043598,-0.098145,-0.303610,-0.347239,1.460533,-0.955813,-1.730752,3.021791,-18.797322
1790539190.5443,0.029875,-0.084553,-0.314569,0.033992,-0.088630,-0.314569,-1.084223,0.837678,-0.851396,-4.030431,-0.398769,-16.352217
1790539190.5593,0.020438,-0.069041,-0.324157,0.024504,-0.074918,-0.324157,-1.208065,0.909312,-0.880536,-2.343999,-1.402628,-6.571797
1790539190.5741,0.004191,-0.048737,-0.334717,0.010285,-0.056591,-0.334717,-1.509173,1.153355,-0.732411,0.147319,-0.138509,-1.448720
1790539190.5888,-0.011249,-0.028590,-0.348059,-0.004788,-0.036990,-0.348059,-1.402328,1.206777,-0.841683,-0.120976,0.419191,-6.998721
1790539190.6034,-0.022051,-0.016533,-0.360800,-0.016873,-0.022670,-0.360800,-0.774617,1.039225,-0.796760,-2.343999,2.055111,-9.715504
1790539190.6179,-0.003895,-0.021422,-0.361321,-0.007789,-0.021796,-0.361321,0.245263,-1.022388,-0.390023,-4.682006,-0.175689,-15.964105
1790539190.6319,-0.008871,-0.023886,-0.358075,-0.008546,-0.023259,-0.358075,0.210053,0.094623,0.544867,3.711822,2.649991,-11.073895
1790539190.6457,-0.010600,-0.035216,-0.346135,-0.009984,-0.031629,-0.346135,0.763701,-0.179773,1.000170,2.676966,0.939711,-9.676693
1790539190.6596,-0.004150,-0.055251,-0.334952,-0.005900,-0.048164,-0.334952,1.395055,-0.818412,0.951605,2.983590,0.642271,-7.503266
1790539190.6737,-0.013541,-0.064804,-0.337046,-0.011249,-0.059812,-0.337046,0.863261,0.355663,0.604360,2.945262,2.947431,-5.640329
1790539190.6879,-0.026512,-0.076203,-0.328786,-0.021933,-0.071286,-0.328786,0.784342,0.826751,0.689350,0.990535,1.534591,-14.256413
1790539190.7019,-0.045582,-0.089842,-0.319776,-0.038488,-0.084275,-0.319776,0.994388,1.204349,0.975887,1.297159,1.608951,-7.813756
1790539190.7156,-0.060097,-0.095544,-0.312662,-0.053614,-0.092164,-0.312662,0.513588,1.028298,1.006241,-0.082648,3.021791,-8.551168
1790539190.7292,-0.060528,-0.097356,-0.305637,-0.058454,-0.095799,-0.305637,0.256190,0.042415,0.921251,-0.580912,3.096151,-7.386832
1790539190.7435,-0.047416,-0.100205,-0.291186,-0.050728,-0.098883,-0.291186,0.157845,-0.925256,1.035380,-0.810880,1.608951,-11.035084
1790539190.7581,-0.037632,-0.095786,-0.272943,-0.041561,-0.096715,-0.272943,-0.406732,-0.836624,1.006241,2.408670,0.233291,-13.363756
1790539190.7723,-0.030624,-0.094518,-0.247994,-0.033905,-0.095177,-0.247994,-0.275604,-0.758919,1.086374,4.631693,-1.885968,-13.480189
1790539190.7864,-0.018250,-0.084940,-0.228975,-0.022946,-0.088011,-0.228975,-0.767332,-1.158372,1.046308,2.983590,0.270471,-8.939280
1790539190.8002,-0.008327,-0.071795,-0.209998,-0.012713,-0.076660,-0.209998,-1.081795,-0.933755,0.892112,1.948735,-0.510309,-8.978091
1790539190.8141,-0.005817,-0.059960,-0.185248,-0.007886,-0.064970,-0.185248,-1.109720,-0.434743,0.850831,1.412143,-1.402628,-4.902916
1790539190.8280,0.002805,-0.047563,-0.174540,-0.000402,-0.052785,-0.174540,-0.928813,-0.728565,0.609216,0.492271,0.976891,-10.064805
1790539190.8419,0.011129,-0.033501,-0.167991,0.007670,-0.039286,-0.167991,-1.104863,-0.803842,0.263186,3.098574,-0.026969,-11.306763
1790539190.8558,0.021016,-0.014654,-0.168418,0.017012,-0.022043,-0.168418,-1.391401,-0.845123,-0.069489,2.217030,1.088431,-10.103616
1790539190.8697,0.011931,-0.020583,-0.166015,0.013455,-0.021021,-0.166015,0.280473,0.770900,-0.438588,-0.810880,-1.142369,-17.982287
1790539190.8836,0.002835,-0.038431,-0.178824,0.006021,-0.033208,-0.178824,1.299138,1.035583,-1.050516,-4.720334,2.129471,-13.674245
1790539190.8975,0.003761,-0.035809,-0.215224,0.004439,-0.035029,-0.215224,0.172414,0.220894,-0.806473,-2.267343,5.475671,-5.795574
1790539190.9114,0.000488,-0.042083,-0.212111,0.001673,-0.039967,-0.212111,0.315683,0.405443,-0.359669,-1.769080,-0.882109,-10.258860
1790539190.9253,0.018899,-0.063060,-0.210651,0.013731,-0.056132,-0.210651,1.435122,-1.077024,-0.501724,-4.605350,-0.101329,-13.907112
1790539190.9388,0.038481,-0.082893,-0.218083,0.031056,-0.074864,-0.218083,1.510399,-1.272501,-0.693558,-1.999048,1.832031,-9.909560
1790539190.9524,0.048216,-0.091739,-0.239250,0.043068,-0.086676,-0.239250,0.815910,-0.846337,-0.756693,1.872079,2.426911,-5.795574
1790539190.9663,0.058823,-0.100830,-0.251953,0.054096,-0.096584,-0.251953,0.746703,-0.811127,-0.583071,0.760567,1.757671,-6.494175
1790539190.9802,0.040280,-0.108008,-0.254377,0.044425,-0.104581,-0.254377,0.246477,1.320906,-0.862324,1.757095,-4.265488,-13.169700
1790539190.9941,0.035665,-0.096677,-0.260029,0.038293,-0.099048,-0.260029,-0.874176,0.579066,-0.668061,-5.640206,0.270471,-16.158161
1790539191.0083,0.031803,-0.082752,-0.263262,0.033750,-0.087641,-0.263262,-1.114576,0.540213,-0.663204,-5.295254,-1.700068,-13.829490
1790539191.0225,0.016280,-0.070160,-0.268715,0.021521,-0.075404,-0.268715,-1.115791,1.464175,-0.691130,-2.918919,-1.700068,-5.135783
1790539191.0366,-0.000951,-0.045583,-0.283113,0.005790,-0.054529,-0.283113,-1.613589,1.688792,-0.693558,-1.270816,0.679451,-1.603965
1790539191.0504,-0.006528,-0.027502,-0.296940,-0.002832,-0.035611,-0.296940,-1.418112,0.929953,-0.702057,-3.072231,-0.473129,-3.428091
1790539191.0644,-0.023151,-0.016523,-0.304806,-0.017055,-0.022249,-0.304806,-0.656845,1.391327,-0.580643,-0.849208,2.761531,-7.697322
1790539191.0783,-0.008999,-0.020756,-0.304993,-0.011416,-0.021204,-0.304993,0.268331,-0.802628,-0.273465,-4.413711,1.497411,-15.731238
1790539191.0922,-0.008413,-0.025061,-0.299937,-0.009314,-0.023904,-0.299937,0.346037,-0.230767,0.504800,3.021918,3.653851,-14.955014
1790539191.1061,-0.010676,-0.033680,-0.289649,-0.010268,-0.030747,-0.289649,0.573081,-0.154276,1.096087,3.443526,1.534591,-12.626343
1790539191.1201,-0.009736,-0.052394,-0.278897,-0.009896,-0.045900,-0.278897,1.306423,-0.444456,1.217502,3.175230,1.014071,-8.434735
1790539191.1339,-0.016719,-0.067357,-0.268043,-0.014672,-0.060920,-0.268043,1.172867,0.517144,0.673566,-0.580912,1.423051,-4.631238
1790539191.1479,-0.030767,-0.075957,-0.260940,-0.025939,-0.071446,-0.260940,0.627718,0.853462,0.712419,2.255358,2.092291,-12.509909
1790539191.1618,-0.043610,-0.087791,-0.251316,-0.038309,-0.082888,-0.251316,0.889972,0.858318,0.745200,0.607255,2.873071,-12.936833
1790539191.1755,-0.050377,-0.096353,-0.237988,-0.046757,-0.092313,-0.237988,0.609505,0.381160,1.012312,1.182175,1.906391,-11.733686
1790539191.1893,-0.046833,-0.098377,-0.223353,-0.046810,-0.096558,-0.223353,0.137204,-0.314543,0.992885,0.147319,1.943571,-10.996273
1790539191.2034,-0.040946,-0.101556,-0.209293,-0.042705,-0.100056,-0.209293,0.061927,-0.542802,1.062091,0.952207,-0.733389,-8.745224
1790539191.2172,-0.041427,-0.105301,-0.199037,-0.041810,-0.103727,-0.199037,0.129919,-0.212555,1.003813,2.906934,-0.584669,-8.551168
1790539191.2310,-0.035962,-0.109445,-0.186586,-0.037716,-0.107730,-0.186586,0.128705,-0.607151,1.053592,2.906934,-1.291089,-10.879840
1790539191.2454,-0.026342,-0.099359,-0.175869,-0.029754,-0.101870,-0.175869,-0.792829,-0.914329,0.946748,3.520182,0.047391,-10.530539
1790539191.2599,-0.021751,-0.084259,-0.169112,-0.024152,-0.089542,-0.169112,-1.174069,-0.568299,0.646855,4.171758,-1.105189,-10.879840
1790539191.2740,-0.009607,-0.065805,-0.163330,-0.013971,-0.072926,-0.163330,-1.407185,-1.066097,0.462305,2.370342,-0.212869,-8.512357
1790539191.2879,0.001723,-0.044982,-0.162395,-0.002985,-0.053365,-0.162395,-1.540740,-0.956824,0.123560,1.335487,0.419191,-6.261308
1790539191.3019,0.011899,-0.026532,-0.161279,0.007434,-0.034582,-0.161279,-1.467892,-0.987178,0.055568,2.217030,-0.547489,-5.135783
1790539191.3158,0.022202,-0.008969,-0.160672,0.017772,-0.016653,-0.160672,-1.311267,-0.836624,-0.020923,1.297159,0.753811,-9.016902
1790539191.3298,0.011700,-0.016981,-0.164996,0.013522,-0.016882,-0.164996,0.381247,0.733262,-0.550289,4.440053,-3.150088,-20.039280
1790539191.3437,0.012508,-0.030768,-0.171366,0.012812,-0.026602,-0.171366,1.115803,0.467365,-1.225352,-5.601878,3.467951,-8.512357
1790539191.3577,0.001667,-0.026722,-0.222817,0.005011,-0.026686,-0.222817,0.110493,0.515930,-0.919388,3.328542,3.393591,-1.681588
1790539191.3716,0.006737,-0.030376,-0.223960,0.006219,-0.029269,-0.223960,0.308398,-0.055931,-0.596427,-2.650623,1.646131,-7.037532
1790539191.3858,0.020148,-0.050193,-0.222117,0.015970,-0.043916,-0.222117,1.435122,-0.632648,-0.546647,-4.643678,2.017931,-10.142427
1790539191.3994,0.041357,-0.066577,-0.229632,0.033741,-0.059778,-0.229632,1.380486,-1.283428,-0.750623,-2.765607,3.505131,-7.309210
1790539191.4132,0.045785,-0.072781,-0.241808,0.042172,-0.068880,-0.241808,0.779485,-0.364323,-0.634065,1.105519,4.546171,-5.213406
1790539191.4272,0.055133,-0.082768,-0.252543,0.051245,-0.078602,-0.252543,0.764916,-0.527018,-0.695986,-1.615768,2.166651,-9.754315
1790539191.4410,0.047290,-0.091961,-0.261339,0.048477,-0.087953,-0.261339,0.540299,0.579066,-0.847754,1.182175,-0.733389,-13.713056
1790539191.4548,0.040701,-0.083314,-0.271286,0.043033,-0.084706,-0.271286,-0.668986,0.665270,-0.725126,-3.915447,1.162791,-17.788231
1790539191.4686,0.032605,-0.071966,-0.276161,0.035733,-0.075788,-0.276161,-0.964023,0.838892,-0.626780,-3.072231,-0.993649,-9.366203
1790539191.4826,0.018282,-0.061636,-0.279873,0.023517,-0.065881,-0.279873,-0.972522,1.181280,-0.564859,-0.964192,-1.848788,-6.959909
1790539191.4966,0.007000,-0.048453,-0.285067,0.011955,-0.053681,-0.285067,-1.160714,0.963949,-0.601283,-0.542584,-1.179549,-4.864105
1790539191.5108,-0.004299,-0.029706,-0.292936,0.000578,-0.036899,-0.292936,-1.313696,1.031941,-0.635279,-1.769080,1.237151,-8.395923
1790539191.5248,-0.010419,-0.017136,-0.300260,-0.007120,-0.023065,-0.300260,-0.849893,0.678625,-0.619495,-2.229015,2.501271,-11.035084
1790539191.5387,0.006771,-0.026378,-0.295923,0.002604,-0.025384,-0.295923,0.547584,-1.147444,0.004574,-3.378855,-0.621849,-21.281238
1790539191.5526,-0.002165,-0.030204,-0.292038,-0.000734,-0.028758,-0.292038,0.263475,0.322882,0.762198,3.175230,1.237151,-8.395923
1790539191.5665,0.000890,-0.039346,-0.280430,0.000403,-0.036170,-0.280430,0.758845,-0.400747,0.890897,0.568927,2.166651,-6.222497
1790539191.5804,-0.000030,-0.061313,-0.270879,0.000100,-0.053770,-0.270879,1.529825,-0.065644,0.720918,0.492271,0.382011,-6.843476
1790539191.5943,-0.011521,-0.071076,-0.266920,-0.008035,-0.065884,-0.266920,0.823194,0.683482,0.549723,1.603783,3.133331,-9.172147
1790539191.6082,-0.026116,-0.082311,-0.259453,-0.020692,-0.077383,-0.259453,0.792841,0.978518,0.656568,0.760567,1.497411,-14.139979
1790539191.6221,-0.038814,-0.096353,-0.248439,-0.033377,-0.090662,-0.248439,1.040526,0.818252,0.933392,0.683911,1.906391,-9.288581
1790539191.6356,-0.051818,-0.100301,-0.239108,-0.046286,-0.097409,-0.239108,0.501447,0.834035,0.937035,1.067191,3.653851,-6.416553
1790539191.6492,-0.050231,-0.108121,-0.225900,-0.049047,-0.104907,-0.225900,0.596150,-0.157919,1.023239,-0.005993,1.980751,-8.822846
1790539191.6632,-0.045279,-0.113386,-0.210643,-0.046410,-0.110842,-0.210643,0.297471,-0.462668,1.041451,1.488799,0.679451,-13.324944
1790539191.6772,-0.040609,-0.115086,-0.195426,-0.042349,-0.113813,-0.195426,-0.042489,-0.463882,0.929750,2.293686,-1.625708,-14.217602
1790539191.6911,-0.031583,-0.114518,-0.179666,-0.034813,-0.114306,-0.179666,-0.216111,-0.873048,0.933392,4.018446,-1.885968,-12.703965
1790539191.7050,-0.016441,-0.104069,-0.167067,-0.021952,-0.107140,-0.167067,-0.837752,-1.404843,0.828976,4.401726,-0.175689,-8.861658
1790539191.7189,-0.005718,-0.090774,-0.153194,-0.010589,-0.095684,-0.153194,-1.100007,-1.083095,0.769483,3.060246,-0.844929,-6.727042
1790539191.7328,-0.001015,-0.073753,-0.141249,-0.003887,-0.080332,-0.141249,-1.365904,-0.682428,0.696635,3.366870,-0.844929,-6.494175
1790539191.7470,0.007677,-0.052877,-0.132699,0.004208,-0.061114,-0.132699,-1.562595,-0.863335,0.485374,2.676966,-0.138509,-8.007811
1790539191.7616,0.021387,-0.032393,-0.122669,0.016233,-0.041009,-0.122669,-1.528599,-1.149873,0.278970,2.600310,-0.733389,-8.939280
1790539191.7757,0.030486,-0.009260,-0.123968,0.026210,-0.018785,-0.123968,-1.673082,-0.965323,0.244974,3.366870,0.753811,-7.192776
1790539191.7896,0.017023,-0.006175,-0.117848,0.019779,-0.009958,-0.117848,-0.403089,0.912955,-0.149622,3.520182,-2.294948,-21.281238
1790539191.8035,0.001452,-0.021118,-0.127914,0.006950,-0.017770,-0.127914,1.084235,1.475103,-0.931530,-4.413711,2.724351,-15.614805
1790539191.8175,0.013367,-0.017553,-0.182541,0.011442,-0.017618,-0.182541,0.261047,-0.357038,-1.142791,-3.302199,5.215411,-1.060609
1790539191.8314,0.002445,-0.023955,-0.184431,0.005144,-0.022054,-0.184431,0.380033,0.835250,-0.377881,0.377287,0.158931,-6.416553
1790539191.8452,0.014180,-0.042562,-0.177846,0.011469,-0.036409,-0.177846,1.297924,-0.479666,-0.562431,-6.176798,0.716631,-11.694875
1790539191.8588,0.030957,-0.061224,-0.183483,0.025111,-0.053779,-0.183483,1.376843,-0.937398,-0.833184,-3.608823,1.608951,-10.569350
1790539191.8724,0.045741,-0.073964,-0.204004,0.039552,-0.067909,-0.204004,1.151013,-1.026030,-0.969168,0.223975,2.649991,-4.980539
1790539191.8863,0.056583,-0.082613,-0.221296,0.051474,-0.078202,-0.221296,0.711493,-0.826911,-0.995879,1.412143,2.092291,-6.765853
1790539191.9003,0.061518,-0.097446,-0.233216,0.058505,-0.091673,-0.233216,1.080593,-0.365537,-0.732411,0.645583,1.274331,-7.348021
1790539191.9142,0.035229,-0.093416,-0.248315,0.042212,-0.092893,-0.248315,-0.292602,2.045749,-0.821043,-2.918919,3.021791,-21.281238
1790539191.9281,0.026721,-0.078676,-0.253621,0.031368,-0.082941,-0.253621,-1.124290,0.842534,-0.602497,-6.215126,0.196111,-20.466203
1790539191.9420,0.025399,-0.065873,-0.254790,0.027190,-0.070994,-0.254790,-1.062368,0.481934,-0.785833,-6.866701,-1.514168,-12.082986
1790539191.9558,0.008444,-0.043711,-0.265263,0.014068,-0.051896,-0.265263,-1.149786,0.921454,-0.495653,1.565455,1.943571,-0.245574
1790539191.9697,-0.013201,-0.021816,-0.280447,-0.005021,-0.030840,-0.280447,-1.437538,1.648725,-0.506580,0.185647,1.906391,-4.980539
1790539191.9835,-0.029878,-0.009642,-0.291574,-0.022421,-0.016001,-0.291574,-0.894817,1.390113,-0.651063,-0.235960,0.567911,-5.562707
1790539191.9972,-0.002708,-0.017994,-0.290215,-0.008622,-0.017396,-0.290215,0.562154,-1.905069,-0.301390,-0.887536,1.497411,-15.614805
1790539192.0116,-0.012649,-0.025476,-0.280579,-0.011441,-0.023052,-0.280579,0.702994,0.327738,0.645641,7.506292,7.185950,-11.927742
1790539192.0257,-0.023008,-0.032992,-0.265891,-0.019538,-0.030010,-0.265891,0.522087,0.471007,0.947962,3.328542,2.501271,-13.363756
1790539192.0396,-0.020114,-0.044256,-0.247163,-0.019941,-0.039982,-0.247163,0.696924,-0.380107,0.945534,0.952207,0.196111,-11.539630
1790539192.0535,-0.026393,-0.054701,-0.235541,-0.024458,-0.050286,-0.235541,0.728491,0.321668,0.899396,0.568927,1.274331,-8.939280
1790539192.0675,-0.042381,-0.066537,-0.219503,-0.037004,-0.061662,-0.219503,0.811053,0.855890,1.057235,2.178703,0.865351,-6.261308
1790539192.0814,-0.054429,-0.079673,-0.210556,-0.049202,-0.074270,-0.210556,0.990746,0.677411,1.160437,0.990535,1.683311,-5.485084
1790539192.0951,-0.063267,-0.085914,-0.207430,-0.059047,-0.082420,-0.207430,0.524515,0.619132,0.975887,-0.235960,3.021791,-9.637881
1790539192.1087,-0.064097,-0.087067,-0.200949,-0.062582,-0.085673,-0.200949,0.126277,0.002348,1.049950,0.185647,3.988471,-13.441378
1790539192.1227,-0.056291,-0.086153,-0.187828,-0.058179,-0.086009,-0.187828,-0.121408,-0.641147,1.009883,0.607255,1.869211,-13.674245
1790539192.1366,-0.045257,-0.081332,-0.170840,-0.049133,-0.082735,-0.170840,-0.450441,-0.911901,0.907895,1.335487,0.567911,-13.674245
1790539192.1505,-0.039272,-0.075608,-0.146683,-0.042230,-0.077746,-0.146683,-0.573069,-0.660573,0.752485,3.366870,-0.844929,-11.151518
1790539192.1645,-0.025411,-0.065374,-0.126641,-0.030457,-0.069086,-0.126641,-0.860821,-1.198438,0.620144,2.446998,-0.287229,-9.482637
1790539192.1787,-0.014550,-0.048390,-0.109104,-0.019322,-0.054599,-0.109104,-1.286985,-1.023602,0.561865,1.987063,0.158931,-5.756762
1790539192.1926,-0.008253,-0.031757,-0.093178,-0.011574,-0.038610,-0.093178,-1.306411,-0.632648,0.486588,1.373815,0.047391,-7.115154
1790539192.2065,-0.000768,-0.020358,-0.080145,-0.004010,-0.025834,-0.080145,-0.939740,-0.602295,0.246188,0.377287,-0.064149,-9.094525
1790539192.2203,0.002586,-0.015359,-0.070986,0.000608,-0.018501,-0.070986,-0.492936,-0.302402,-0.052491,1.258831,-0.361589,-10.608161
1790539192.2343,0.002075,-0.022493,-0.076489,0.001635,-0.021295,-0.076489,0.455309,0.268245,-0.630423,-2.727279,0.828171,-13.907112
1790539192.2482,0.006934,-0.038532,-0.089779,0.005344,-0.033361,-0.089779,1.137657,-0.097212,-1.090582,-1.922392,1.497411,-14.217602
1790539192.2628,-0.002003,-0.045290,-0.109736,0.000201,-0.041711,-0.109736,0.518445,0.643415,-0.953384,2.523654,2.389731,-11.500819
1790539192.2769,0.005528,-0.050212,-0.118289,0.003930,-0.047662,-0.118289,0.358178,-0.380107,-0.634065,-1.079176,1.311511,-9.637881
1790539192.2908,0.020955,-0.065517,-0.126777,0.015847,-0.060160,-0.126777,1.051453,-0.837838,-0.761550,-3.608823,0.456371,-11.539630
1790539192.3048,0.037148,-0.082082,-0.155385,0.030758,-0.075506,-0.155385,1.301566,-0.757705,-0.903605,-4.068759,2.129471,-6.261308
1790539192.3185,0.051032,-0.093671,-0.182322,0.044950,-0.088222,-0.182322,1.079378,-0.893689,-0.929102,-0.580912,3.207691,-5.795574
1790539192.3320,0.055510,-0.105493,-0.194451,0.052342,-0.100312,-0.194451,0.953108,-0.363109,-0.665633,0.722239,1.720491,-6.843476
1790539192.3459,0.047924,-0.117906,-0.201070,0.049249,-0.112628,-0.201070,0.820766,0.553569,-0.678988,0.722239,-0.138509,-19.030189
1790539192.3597,0.039125,-0.117156,-0.208497,0.042162,-0.115797,-0.208497,-0.140834,0.780613,-0.606140,-3.148887,-0.733389,-16.662707
1790539192.3737,0.034534,-0.113987,-0.213115,0.036823,-0.114530,-0.213115,-0.403089,0.541427,-0.637707,-3.992103,-2.703928,-12.393476
1790539192.3879,0.028903,-0.111015,-0.218221,0.031279,-0.112070,-0.218221,-0.460154,0.711407,-0.658348,-3.110559,-2.332128,-5.717951
1790539192.4018,0.014610,-0.098026,-0.226729,0.019611,-0.102239,-0.226729,-1.042942,1.205563,-0.686273,-1.270816,-0.584669,-6.144874
1790539192.4157,0.010427,-0.083645,-0.236713,0.013182,-0.089224,-0.236713,-1.157071,0.682268,-0.651063,-2.535639,-0.584669,-4.165504
1790539192.4295,0.000374,-0.061086,-0.243969,0.004216,-0.069527,-0.243969,-1.681581,0.872888,-0.502938,-1.002520,0.307651,-8.279490
1790539192.4433,-0.012007,-0.039709,-0.251124,-0.007140,-0.048654,-0.251124,-1.735003,1.081720,-0.430089,-2.075704,-2.332128,-12.160609
1790539192.4572,-0.018733,-0.018721,-0.255531,-0.015255,-0.027701,-0.255531,-1.614803,0.694409,-0.340243,-2.343999,-0.398769,-10.724595
1790539192.4711,-0.006567,-0.014375,-0.257748,-0.009173,-0.018373,-0.257748,-0.512362,-0.771060,-0.220043,-1.884064,-2.852648,-16.585084
1790539192.4849,-0.004001,-0.022829,-0.255372,-0.005553,-0.021492,-0.255372,0.559726,-0.496664,0.680851,5.053301,1.385871,-14.605714
1790539192.4988,-0.004450,-0.028268,-0.243915,-0.004780,-0.026235,-0.243915,0.434669,-0.212555,1.018382,1.872079,3.133331,-11.811308
1790539192.5135,-0.007863,-0.037186,-0.238205,-0.006938,-0.033901,-0.238205,0.677497,0.027845,0.667495,1.450471,2.092291,-6.765853
1790539192.5276,-0.018010,-0.048090,-0.235549,-0.014689,-0.043833,-0.235549,0.772200,0.377518,0.736701,4.325070,1.497411,-8.978091
1790539192.5416,-0.033081,-0.062356,-0.229103,-0.027563,-0.056799,-0.229103,1.041740,0.886244,0.810764,2.293686,2.241011,-10.879840
1790539192.5553,-0.050010,-0.072359,-0.221320,-0.043276,-0.067691,-0.221320,0.838978,1.109646,0.952819,1.067191,3.505131,-9.327392
1790539192.5688,-0.059807,-0.076321,-0.212621,-0.054848,-0.073732,-0.212621,0.411600,0.615490,0.949176,0.837223,3.765391,-8.939280
1790539192.5827,-0.060993,-0.083504,-0.200093,-0.059150,-0.080572,-0.200093,0.519659,0.043629,0.963746,-0.197632,2.166651,-9.521448
1790539192.5966,-0.051363,-0.088442,-0.185501,-0.053699,-0.086081,-0.185501,0.290186,-0.837838,1.003813,1.833751,1.534591,-13.402567
1790539192.6104,-0.041340,-0.085228,-0.172667,-0.045047,-0.085484,-0.172667,-0.273176,-0.900974,0.894540,2.485326,1.646131,-12.587532
1790539192.6244,-0.034482,-0.081327,-0.154936,-0.037651,-0.082574,-0.154936,-0.437085,-0.811127,0.884827,5.053301,-1.030829,-10.802217
1790539192.6398,-0.016882,-0.068576,-0.140384,-0.023113,-0.072776,-0.140384,-0.894817,-1.404843,0.767055,2.600310,0.344831,-6.998721
1790539192.6544,-0.004118,-0.054763,-0.128553,-0.009816,-0.060167,-0.128553,-1.010160,-1.092808,0.641998,1.642111,0.382011,-6.688231
1790539192.6687,0.005923,-0.041030,-0.122883,0.001201,-0.046771,-0.122883,-0.970093,-0.908258,0.385814,2.561982,1.385871,-9.831937
1790539192.6833,0.014726,-0.023870,-0.124498,0.010669,-0.030740,-0.124498,-1.130360,-0.805056,0.028857,3.826806,2.538451,-10.724595
1790539192.6973,0.009249,-0.022669,-0.130131,0.009675,-0.025090,-0.130131,-0.144477,0.330167,-0.556360,3.750150,0.865351,-13.829490
1790539192.7114,0.006122,-0.030979,-0.144256,0.007188,-0.029212,-0.144256,0.604649,0.625203,-1.220496,-3.532167,1.646131,-10.025993
1790539192.7254,0.015783,-0.044079,-0.161371,0.013205,-0.039619,-0.161371,0.937324,-0.292688,-1.522817,-2.573967,1.125611,-8.318301
1790539192.7393,0.017128,-0.052500,-0.181675,0.015951,-0.048636,-0.181675,0.829265,0.043629,-0.773691,-0.465928,3.579491,-6.571797
1790539192.7535,0.023209,-0.066439,-0.190843,0.021031,-0.061098,-0.190843,0.965249,-0.179773,-0.806473,-3.340527,1.237151,-12.471098
1790539192.7680,0.037702,-0.080851,-0.209364,0.032701,-0.074925,-0.209364,1.074522,-0.711567,-1.205926,-3.340527,2.947431,-10.414105
1790539192.7817,0.046247,-0.093048,-0.231866,0.042183,-0.087611,-0.231866,0.991960,-0.393462,-1.426900,-1.309144,2.203831,-6.688231
1790539192.7954,0.051946,-0.098420,-0.248139,0.049017,-0.095177,-0.248139,0.564582,-0.493022,-1.226566,1.067191,1.720491,-3.505713
1790539192.8095,0.047248,-0.113990,-0.259144,0.047778,-0.108346,-0.259144,1.055096,0.343522,-0.901176,0.837223,0.493551,-12.044175
1790539192.8235,0.035581,-0.109216,-0.272733,0.039240,-0.108955,-0.272733,-0.381235,1.046510,-0.828328,-4.452038,0.716631,-15.964105
1790539192.8374,0.032201,-0.099910,-0.281679,0.034313,-0.102624,-0.281679,-0.808613,0.551140,-0.844112,-6.023486,-1.811608,-13.480189
1790539192.8513,0.023566,-0.085566,-0.295193,0.026790,-0.090683,-0.295193,-1.163142,0.956664,-1.067514,-3.532167,-0.919289,-8.318301
1790539192.8652,0.009218,-0.069776,-0.309449,0.014489,-0.076048,-0.309449,-1.305197,1.149712,-1.116079,0.070663,-0.696209,-4.126693
1790539192.8791,-0.002565,-0.050722,-0.321196,0.002551,-0.058320,-0.321196,-1.464249,1.019799,-0.835613,-0.312616,-0.138509,-3.932637
1790539192.8930,-0.007415,-0.034121,-0.331596,-0.004425,-0.041381,-0.331596,-1.226277,0.640987,-0.802831,-1.462456,0.344831,-5.407462
1790539192.9069,-0.017282,-0.018682,-0.342740,-0.013425,-0.025492,-0.342740,-1.101221,0.898385,-0.705699,-1.232488,2.166651,-15.381938
1790539192.9208,-0.001049,-0.023494,-0.347920,-0.004762,-0.024093,-0.347920,0.235550,-0.953182,-0.624352,-4.145415,-0.956469,-21.281238
1790539192.9349,-0.006353,-0.029169,-0.340296,-0.005876,-0.027646,-0.340296,0.394602,0.026631,0.692992,4.401726,1.534591,-9.405014
1790539192.9489,0.000980,-0.043750,-0.328125,-0.001077,-0.038919,-0.328125,1.021100,-0.648432,0.782839,0.147319,1.088431,-8.163056
1790539192.9627,-0.004212,-0.060048,-0.324793,-0.003271,-0.053709,-0.324793,1.306423,0.234249,0.351818,0.722239,1.348691,-3.777392
1790539192.9768,-0.018016,-0.073349,-0.323534,-0.013593,-0.067457,-0.323534,1.028384,0.910526,0.249830,1.412143,3.467951,-12.898021
1790539192.9908,-0.036371,-0.090949,-0.319843,-0.029538,-0.083901,-0.319843,1.301566,1.217704,0.423453,2.408670,2.575631,-14.760958
1790539193.0047,-0.061245,-0.102618,-0.312553,-0.051733,-0.097003,-0.312553,0.913041,1.693648,0.751271,1.412143,2.798711,-10.181238
1790539193.0189,-0.067365,-0.107316,-0.304124,-0.062676,-0.104222,-0.304124,0.482020,0.440653,0.765841,-0.312616,3.616671,-7.813756
1790539193.0326,-0.055970,-0.111627,-0.294241,-0.057982,-0.109405,-0.294241,0.320540,-0.812341,0.767055,-0.427600,1.423051,-7.580888
1790539193.0465,-0.050188,-0.112838,-0.279673,-0.052526,-0.111808,-0.279673,-0.002422,-0.548872,0.903039,1.910407,0.307651,-10.879840
1790539193.0604,-0.040396,-0.114569,-0.263023,-0.044035,-0.113741,-0.263023,-0.018206,-0.820840,1.008669,1.795423,-0.844929,-13.907112
1790539193.0745,-0.029548,-0.112319,-0.243956,-0.033894,-0.112746,-0.243956,-0.264677,-1.043028,0.975887,4.746677,-0.287229,-11.617252
1790539193.0885,-0.015977,-0.101114,-0.226208,-0.021352,-0.104603,-0.226208,-0.877819,-1.278572,0.904253,4.133430,0.121751,-9.133336
1790539193.1026,-0.006780,-0.087583,-0.208726,-0.011152,-0.092689,-0.208726,-1.131574,-0.883976,0.731845,2.102047,-1.142369,-6.882287
1790539193.1165,-0.004152,-0.071217,-0.195995,-0.006252,-0.077658,-0.195995,-1.320981,-0.484523,0.575220,2.638638,-0.733389,-6.028441
1790539193.1303,0.003007,-0.053476,-0.185074,0.000229,-0.060731,-0.185074,-1.392615,-0.710353,0.469590,1.565455,-0.250049,-6.804665
1790539193.1443,0.013866,-0.035760,-0.176763,0.009775,-0.043251,-0.176763,-1.392615,-0.979893,0.237689,2.600310,-0.473129,-9.676693
1790539193.1582,0.020006,-0.015241,-0.174483,0.016936,-0.023644,-0.174483,-1.517672,-0.680000,0.204907,3.060246,0.753811,-8.978091
1790539193.1728,0.000219,-0.023479,-0.177104,0.005234,-0.023528,-0.177104,0.441954,1.268698,-0.268608,4.631693,-0.919289,-16.585084
1790539193.1871,-0.012760,-0.035977,-0.190222,-0.007362,-0.032243,-0.190222,0.865689,1.312407,-1.122150,-5.218598,1.237151,-14.916203
1790539193.2012,-0.013921,-0.026907,-0.245332,-0.011953,-0.028508,-0.245332,-0.115337,0.315597,-0.641350,-2.229015,9.491110,-4.747672
1790539193.2152,-0.023801,-0.035384,-0.248111,-0.020246,-0.033321,-0.248111,0.557297,0.751474,-0.354812,0.568927,0.419191,-8.628791
1790539193.2292,-0.003146,-0.054555,-0.247779,-0.008276,-0.048184,-0.247779,1.388985,-1.067311,-0.580643,-6.521750,1.571771,-10.103616
1790539193.2427,0.011425,-0.069668,-0.260307,0.005515,-0.063223,-0.260307,1.203221,-0.913115,-0.847754,-0.925864,2.017931,-8.395923
1790539193.2564,0.019636,-0.076458,-0.273436,0.015400,-0.072488,-0.273436,0.639859,-0.571941,-0.698415,0.645583,3.021791,-8.473546
1790539193.2713,0.040553,-0.087338,-0.283831,0.033007,-0.082883,-0.283831,0.721206,-1.289499,-0.814972,-0.734224,0.753811,-7.697322
1790539193.2856,0.049820,-0.100252,-0.290492,0.044776,-0.095041,-0.290492,0.891186,-0.663002,-0.575786,0.607255,0.753811,-8.395923
1790539193.2996,0.029169,-0.091610,-0.302850,0.033851,-0.092640,-0.302850,-0.574283,1.564949,-0.570930,-1.615768,3.988471,-20.931938
1790539193.3137,0.014775,-0.069576,-0.311260,0.020498,-0.076495,-0.311260,-1.596591,1.263842,-0.517507,-4.490366,1.088431,-14.528091
1790539193.3276,0.014270,-0.053232,-0.315983,0.016139,-0.060211,-0.315983,-1.283342,0.449152,-0.763978,-6.598406,-0.882109,-10.879840
1790539193.3415,-0.001957,-0.026340,-0.320412,0.003472,-0.036501,-0.320412,-1.435110,1.126644,-0.618281,0.645583,2.426911,-1.060609
1790539193.3554,-0.024456,-0.011440,-0.330003,-0.016078,-0.018958,-0.330003,-1.223849,1.789565,-0.671703,-0.082648,-0.361589,-2.768301
1790539193.3694,-0.027127,-0.004322,-0.342805,-0.023812,-0.008713,-0.342805,-0.511148,0.469793,-0.708128,-1.309144,0.790991,-6.377742
1790539193.3834,-0.010549,-0.017496,-0.340865,-0.014528,-0.014861,-0.340865,1.016243,-1.311354,-0.252824,3.443526,3.542311,-11.617252
1790539193.3972,-0.024719,-0.021330,-0.330313,-0.021661,-0.019389,-0.330313,0.479592,0.625203,0.571578,7.467964,6.591070,-9.599070
1790539193.4112,-0.028251,-0.031116,-0.316316,-0.026274,-0.027598,-0.316316,0.609505,0.100694,0.854473,1.067191,0.939711,-14.877392
1790539193.4252,-0.018314,-0.040108,-0.303785,-0.020702,-0.036355,-0.303785,0.662928,-0.824483,1.032952,-0.465928,2.575631,-10.220049
1790539193.4390,-0.017700,-0.052562,-0.289662,-0.018601,-0.047700,-0.289662,0.780699,-0.106925,0.945534,-0.619240,-0.101329,-7.619700
1790539193.4529,-0.035887,-0.061665,-0.272312,-0.030701,-0.057476,-0.272312,0.687210,0.957878,1.153152,2.561982,1.460231,-5.679140
1790539193.4665,-0.043670,-0.072933,-0.260743,-0.039780,-0.068296,-0.260743,0.874188,0.434583,1.213859,0.415615,1.906391,-6.571797
1790539193.4800,-0.052204,-0.077840,-0.252748,-0.048477,-0.074977,-0.252748,0.463808,0.524429,1.138582,0.453943,3.244871,-8.318301
1790539193.4939,-0.053879,-0.079413,-0.243794,-0.052259,-0.078082,-0.243794,0.154202,0.064269,1.096087,-0.235960,2.873071,-9.599070
1790539193.5080,-0.044176,-0.078073,-0.230892,-0.046600,-0.078076,-0.230892,-0.099554,-0.779559,1.083946,0.185647,2.649991,-11.850119
1790539193.5223,-0.035979,-0.074555,-0.212794,-0.039165,-0.075611,-0.212794,-0.342382,-0.701854,1.081518,0.837223,0.716631,-13.208511
1790539193.5362,-0.027016,-0.071369,-0.194568,-0.030661,-0.072641,-0.194568,-0.346024,-0.784416,0.950390,1.028863,0.010211,-11.733686
1790539193.5501,-0.019332,-0.063087,-0.178577,-0.022730,-0.065953,-0.178577,-0.673843,-0.729780,0.668709,1.603783,0.344831,-8.512357
1790539193.5639,-0.012055,-0.047747,-0.163948,-0.015257,-0.053209,-0.163948,-1.165570,-0.747992,0.465948,2.332014,0.642271,-8.163056
1790539193.5778,-0.001248,-0.032081,-0.151029,-0.005451,-0.038419,-0.151029,-1.212922,-0.996891,0.135701,2.868606,0.270471,-8.628791
1790539193.5917,0.005886,-0.019162,-0.141127,0.002485,-0.024939,-0.141127,-1.046584,-0.682428,-0.104699,2.370342,-0.175689,-7.697322
1790539193.6055,0.002923,-0.019710,-0.142138,0.002792,-0.021279,-0.142138,-0.063129,0.260960,-0.529649,1.028863,-0.064149,-12.509909
1790539193.6193,0.001873,-0.032244,-0.162718,0.002148,-0.028954,-0.162718,0.945823,0.377518,-1.085726,-2.267343,2.203831,-11.384385
1790539193.6332,0.013761,-0.044078,-0.192466,0.010277,-0.039541,-0.192466,0.919112,-0.432315,-1.560455,-2.842263,1.794851,-7.969000
1790539193.6471,0.008852,-0.048553,-0.211988,0.009280,-0.045849,-0.211988,0.455309,0.218465,-1.205926,2.370342,1.534591,-3.777392
1790539193.6610,0.013862,-0.054950,-0.220328,0.012487,-0.052219,-0.220328,0.421313,-0.337612,-1.028661,2.063719,0.753811,-11.306763
1790539193.6749,0.029260,-0.070582,-0.237807,0.024228,-0.065074,-0.237807,1.093948,-0.868192,-1.261777,-2.075704,0.939711,-12.471098
1790539193.6888,0.044523,-0.085341,-0.266065,0.038435,-0.079261,-0.266065,1.161940,-0.853622,-1.344338,-1.577440,2.389731,-7.580888
1790539193.7024,0.055227,-0.094899,-0.297878,0.050189,-0.090207,-0.297878,0.932467,-0.648432,-1.362550,-0.312616,3.170511,-5.407462
1790539193.7160,0.055925,-0.108365,-0.310490,0.054205,-0.102918,-0.310490,1.033241,-0.040147,-0.882964,0.530599,1.832031,-8.939280
1790539193.7298,0.042039,-0.115277,-0.323813,0.045689,-0.111569,-0.323813,0.465022,1.059866,-0.942457,-0.044320,1.088431,-15.575993
1790539193.7438,0.036542,-0.115418,-0.333077,0.039286,-0.114263,-0.333077,-0.142049,0.540213,-0.835613,-2.650623,-2.332128,-15.459560
1790539193.7578,0.029942,-0.116702,-0.340657,0.032745,-0.115971,-0.340657,-0.120194,0.664056,-0.802831,-2.957247,-3.187268,-11.462007
1790539193.7722,0.021017,-0.109711,-0.351288,0.024536,-0.111589,-0.351288,-0.642275,0.848605,-0.694772,-2.573967,-1.551348,-7.930189
1790539193.7863,0.017815,-0.099416,-0.361499,0.019831,-0.103068,-0.361499,-0.865677,0.456437,-0.659562,-1.769080,-0.882109,-5.640329
1790539193.8004,0.010197,-0.088130,-0.369046,0.013088,-0.092611,-0.369046,-0.960380,0.708979,-0.590356,-1.347472,-1.291089,-7.192776
1790539193.8142,0.003874,-0.071414,-0.375991,0.006638,-0.077773,-0.375991,-1.361047,0.672555,-0.475012,-1.999048,-1.142369,-7.619700
1790539193.8281,-0.004839,-0.050371,-0.380698,-0.001396,-0.058591,-0.380698,-1.674296,0.763615,-0.345099,-1.117504,-1.291089,-8.667602
1790539193.8420,-0.013823,-0.029661,-0.386369,-0.010095,-0.038340,-0.386369,-1.669439,0.851033,-0.386380,-1.692424,-1.439808,-7.930189
1790539193.8560,-0.007953,-0.022227,-0.390219,-0.008596,-0.027061,-0.390219,-0.550000,-0.327898,-0.349956,-0.350944,0.902531,-7.270399
1790539193.8699,0.002387,-0.028668,-0.381239,-0.000908,-0.028186,-0.381239,0.435883,-1.129232,0.574006,6.854716,1.608951,-12.626343
1790539193.8838,-0.002847,-0.034393,-0.369009,-0.002265,-0.032531,-0.369009,0.434669,0.103122,0.984386,2.791950,2.612811,-12.044175
1790539193.8978,-0.003883,-0.042390,-0.361360,-0.003398,-0.039432,-0.361360,0.616790,0.239106,0.552152,-2.688951,1.534591,-6.300119
1790539193.9117,-0.017367,-0.055314,-0.353007,-0.013176,-0.050549,-0.353007,0.964035,0.611847,0.724560,4.976645,2.129471,-9.288581
1790539193.9254,-0.034894,-0.072631,-0.345816,-0.028379,-0.066006,-0.345816,1.340419,1.059866,0.771911,2.906934,2.687171,-9.715504
1790539193.9390,-0.055966,-0.084654,-0.341083,-0.047690,-0.079059,-0.341083,1.100019,1.316050,0.831404,2.600310,4.100011,-6.765853
1790539193.9526,-0.067402,-0.098253,-0.333253,-0.061488,-0.092495,-0.333253,1.064809,0.749046,0.890897,1.182175,3.282051,-10.957462
1790539193.9665,-0.057451,-0.104631,-0.322538,-0.058662,-0.100990,-0.322538,0.455309,-0.744349,0.921251,-0.082648,2.687171,-13.286133
1790539193.9804,-0.045422,-0.101357,-0.310086,-0.049394,-0.101247,-0.310086,-0.268319,-0.925256,0.900611,0.492271,1.683311,-12.548721
1790539193.9944,-0.044064,-0.101034,-0.283567,-0.045663,-0.101097,-0.283567,-0.233109,-0.425030,0.906681,6.049829,-2.294948,-11.462007
1790539194.0083,-0.029312,-0.097660,-0.262901,-0.034218,-0.098692,-0.262901,-0.444370,-1.205723,0.882398,1.373815,-1.476988,-8.978091
1790539194.0228,-0.014682,-0.085943,-0.246736,-0.020542,-0.089768,-0.246736,-0.944596,-1.170513,0.652926,1.450471,-0.659029,-7.348021
1790539194.0369,-0.005100,-0.068354,-0.236234,-0.009733,-0.074778,-0.236234,-1.280914,-0.960467,0.644427,3.136902,0.716631,-8.046623
1790539194.0507,0.008811,-0.052976,-0.224330,0.003248,-0.059516,-0.224330,-1.197138,-1.249432,0.484160,3.060246,0.084571,-10.297672
1790539194.0646,0.020240,-0.034326,-0.221578,0.015142,-0.041883,-0.221578,-1.339193,-1.104949,0.232832,2.945262,1.051251,-6.921098
1790539194.0786,0.021620,-0.018106,-0.222179,0.019677,-0.025239,-0.222179,-1.160714,-0.315757,0.004574,2.868606,1.199971,-7.658511
1790539194.0925,0.006817,-0.026189,-0.227950,0.010675,-0.025904,-0.227950,0.511160,1.113288,-0.601283,2.217030,0.865351,-18.603266
1790539194.1064,0.010968,-0.037957,-0.253776,0.010880,-0.034341,-0.253776,0.937324,0.053342,-1.354051,-2.880591,3.319231,-11.384385
1790539194.1204,0.007051,-0.040039,-0.306797,0.008200,-0.038329,-0.306797,0.659285,0.201467,-0.881750,1.872079,4.285911,-2.030888
1790539194.1343,0.010512,-0.053207,-0.322787,0.009819,-0.048744,-0.322787,1.029599,-0.032862,-0.671703,-1.155832,1.385871,-5.562707
1790539194.1481,0.028625,-0.073106,-0.338275,0.022983,-0.065797,-0.338275,1.489758,-1.016317,-0.878108,-3.685479,2.092291,-10.414105
1790539194.1616,0.042266,-0.087523,-0.361341,0.036481,-0.081005,-0.361341,1.234789,-0.856050,-1.154932,-0.619240,2.947431,-7.037532
1790539194.1751,0.053422,-0.097138,-0.382420,0.048339,-0.092298,-0.382420,0.868118,-0.718852,-1.142791,-0.312616,3.021791,-7.309210
1790539194.1891,0.042056,-0.102543,-0.392976,0.043941,-0.099470,-0.392976,0.329039,0.870460,-0.878108,0.108991,0.642271,-16.041728
1790539194.2030,0.035136,-0.096322,-0.402335,0.037777,-0.097267,-0.402335,-0.491721,0.677411,-0.502938,-4.107087,0.530731,-16.546273
1790539194.2168,0.030313,-0.084914,-0.403865,0.032552,-0.088620,-0.403865,-0.934883,0.555997,-0.324459,-4.873646,-1.179549,-15.265504
