t,imu_roll,imu_pitch,imu_yaw,lpf_roll,lpf_pitch,lpf_yaw,gyro_x,gyro_y,gyro_z,acc_x,acc_y,acc_z
1790542199.8058,-0.031034,-0.038724,0.008863,-0.021724,-0.027107,0.008863,-0.014890,-0.010419,0.001577,0.338959,1.237151,-10.025993
1790542199.8212,-0.026661,-0.040894,0.012986,-0.025180,-0.036758,0.012986,0.002108,0.007794,0.001577,0.223975,1.274331,-10.336483
1790542199.8349,-0.029463,-0.038300,0.009851,-0.028178,-0.037837,0.009851,0.016678,0.007794,0.001577,0.338959,1.311511,-9.793126
1790542199.8485,-0.024082,-0.038490,0.013317,-0.025310,-0.038294,0.013317,0.016678,0.002937,0.004005,0.070663,1.274331,-9.948371
1790542199.8629,-0.022965,-0.038018,0.013883,-0.023668,-0.038101,0.013883,-0.012461,-0.015275,0.004005,0.185647,1.274331,-9.831937
1790542199.8771,-0.021671,-0.034803,0.014021,-0.022270,-0.035792,0.014021,-0.095023,-0.046843,0.011290,0.185647,1.460231,-10.336483
1790542199.8912,-0.026193,-0.031553,0.011870,-0.025016,-0.032824,0.011870,-0.135090,0.028434,0.025859,0.530599,1.497411,-10.452916
1790542199.9056,-0.027702,-0.027066,0.011309,-0.026896,-0.028793,0.011309,-0.112021,0.077000,0.080496,0.300631,1.646131,-10.258860
1790542199.9197,-0.029057,-0.023944,0.012685,-0.028409,-0.025399,0.012685,-0.093809,0.123137,0.171556,0.223975,1.534591,-9.715504
1790542199.9336,-0.026507,-0.020791,0.016310,-0.027077,-0.022173,0.016310,-0.121734,0.017507,0.295399,-0.044320,1.534591,-9.560259
1790542199.9476,-0.025438,-0.018253,0.022458,-0.025930,-0.019429,0.022458,-0.127805,-0.158544,0.431383,0.262303,1.497411,-9.482637
1790542199.9616,-0.025757,-0.022157,0.031934,-0.025809,-0.021338,0.031934,-0.057385,-0.242320,0.562510,0.530599,0.939711,-9.987182
1790542199.9756,-0.025344,-0.026631,0.042543,-0.025483,-0.025043,0.042543,0.028819,-0.140332,0.628074,0.262303,0.865351,-9.288581
1790542199.9894,-0.019871,-0.021913,0.053327,-0.021555,-0.022852,0.053327,0.059173,-0.089338,0.653571,-0.504256,2.092291,-9.405014
1790542200.0032,-0.014027,-0.025432,0.059378,-0.016285,-0.024658,0.059378,0.019106,-0.085695,0.458094,-0.657568,0.976891,-10.103616
1790542200.0172,-0.016098,-0.032099,0.056838,-0.016154,-0.029867,0.056838,0.030034,-0.000705,0.299041,0.415615,0.456371,-11.112707
1790542200.0313,-0.015430,-0.034476,0.061702,-0.015647,-0.033093,0.061702,0.017892,0.053931,0.274759,-0.159304,0.976891,-9.909560
1790542200.0456,-0.014505,-0.034076,0.068175,-0.014848,-0.033781,0.068175,-0.020960,0.013864,0.261403,-0.120976,1.237151,-9.172147
1790542200.0597,-0.017551,-0.031572,0.069569,-0.016740,-0.032235,0.069569,-0.082882,0.103711,0.141203,0.377287,1.460231,-9.133336
1790542200.0737,-0.016818,-0.027874,0.074210,-0.016795,-0.029182,0.074210,-0.079239,-0.048057,0.101136,0.108991,1.757671,-9.288581
1790542200.0876,-0.015286,-0.023170,0.077548,-0.015738,-0.024973,0.077548,-0.155730,-0.165829,0.057427,0.262303,1.832031,-9.366203
1790542200.1016,-0.015065,-0.019137,0.078814,-0.015267,-0.020888,0.078814,-0.169086,-0.271459,0.052571,0.837223,1.757671,-9.560259
1790542200.1155,-0.013719,-0.010410,0.081000,-0.014183,-0.013553,0.081000,-0.381561,-0.429298,0.071997,1.067191,2.203831,-9.405014
1790542200.1295,-0.009780,-0.002255,0.084114,-0.011101,-0.005645,0.084114,-0.427698,-0.581065,0.082924,1.028863,2.241011,-10.297672
1790542200.1435,-0.022160,-0.003674,0.090755,-0.018843,-0.004266,0.090755,0.017892,0.368394,-0.056702,2.791950,1.869211,-13.790679
1790542200.1580,-0.024062,-0.012775,0.070287,-0.022496,-0.010222,0.070287,0.873862,0.503164,-0.323814,-1.232488,3.244871,-13.402567
1790542200.1721,-0.015808,-0.002453,0.012234,-0.017814,-0.004784,0.012234,0.570327,0.342897,-0.643133,-1.845736,4.062831,-5.135783
1790542200.1860,-0.008043,-0.010253,-0.021292,-0.010975,-0.008612,-0.021292,0.497478,-0.096623,-0.828897,-0.964192,1.162791,-8.822846
1790542200.2000,0.004508,-0.003814,-0.016734,-0.000137,-0.005253,-0.016734,0.149020,-0.458437,-0.972165,-1.040848,3.170511,-7.580888
1790542200.2139,0.003315,-0.003042,0.014102,0.002280,-0.003706,0.014102,-0.102308,-0.199825,-1.290271,2.217030,1.832031,-12.703965
1790542200.2278,-0.008910,-0.010171,0.040512,-0.005553,-0.008231,0.040512,0.140521,0.511663,-1.324267,2.332014,0.010211,-9.754315
1790542200.2417,-0.002101,-0.009606,0.006457,-0.003136,-0.009193,0.006457,-0.209152,-0.078411,-1.333980,-0.810880,0.828171,-10.181238
1790542200.2556,-0.004842,-0.011652,-0.011684,-0.004331,-0.010914,-0.011684,0.003322,0.375679,-1.346121,0.185647,0.865351,-9.599070
1790542200.2695,-0.009640,-0.011786,-0.035910,-0.008047,-0.011524,-0.035910,0.061601,0.619721,-1.544026,-0.044320,1.757671,-10.103616
1790542200.2831,-0.012244,-0.009212,-0.050771,-0.010985,-0.009905,-0.050771,-0.143589,0.334398,-1.408042,0.453943,1.683311,-9.754315
1790542200.2966,-0.018489,-0.006628,-0.062099,-0.016238,-0.007611,-0.062099,-0.284429,0.534731,-1.279343,0.798895,1.088431,-10.103616
1790542200.3107,-0.019702,-0.008121,-0.075138,-0.018663,-0.007968,-0.075138,-0.082882,0.211769,-0.955167,0.338959,0.567911,-10.181238
1790542200.3248,-0.016623,-0.008659,-0.091819,-0.017235,-0.008452,-0.091819,-0.062241,0.026006,-0.740264,-0.465928,0.976891,-9.793126
1790542200.3386,-0.016044,-0.008032,-0.100350,-0.016401,-0.008158,-0.100350,-0.044029,0.047860,-0.647989,0.223975,1.571771,-10.181238
1790542200.3525,-0.019527,0.003710,-0.115712,-0.018590,0.000149,-0.115712,-0.385203,0.375679,-0.745121,0.185647,3.728211,-8.667602
1790542200.3664,-0.018427,0.008580,-0.125133,-0.018476,0.006051,-0.125133,-0.234649,0.040575,-0.667416,0.185647,2.835891,-12.121798
1790542200.3804,-0.014893,-0.005740,-0.111080,-0.015968,-0.002203,-0.111080,1.004990,-0.497290,-0.337169,2.446998,2.092291,-13.945924
1790542200.3944,-0.026402,-0.008575,-0.105565,-0.023272,-0.006663,-0.105565,0.629820,0.362323,0.183698,2.523654,3.653851,-8.318301
1790542200.4087,-0.031522,-0.014213,-0.106551,-0.029047,-0.011948,-0.106551,0.444056,0.338040,0.466593,0.070663,2.055111,-10.918651
1790542200.4227,-0.038854,-0.026517,-0.079092,-0.035912,-0.022146,-0.079092,0.565470,0.300402,0.963177,0.798895,-0.250049,-9.560259
1790542200.4367,-0.031754,-0.033486,-0.101911,-0.033002,-0.030084,-0.101911,0.318999,-0.220465,1.153797,-1.730752,0.344831,-7.464455
1790542200.4505,-0.020011,-0.035065,-0.127339,-0.023908,-0.033571,-0.127339,-0.044029,-0.386803,1.026312,-3.263871,0.493551,-9.172147
1790542200.4645,-0.022494,-0.033473,-0.112038,-0.022918,-0.033503,-0.112038,-0.255290,-0.014061,0.987460,0.645583,0.605091,-10.763406
1790542200.4784,-0.026707,-0.039753,-0.101455,-0.025570,-0.037878,-0.101455,0.091955,0.227553,1.032383,-0.120976,-0.956469,-10.918651
1790542200.4922,-0.038002,-0.046133,-0.083621,-0.034273,-0.043657,-0.083621,0.225511,0.525018,1.116159,1.105519,-0.101329,-7.969000
1790542200.5061,-0.044895,-0.055157,-0.072331,-0.041708,-0.051707,-0.072331,0.458626,0.590582,0.947393,-0.849208,0.084571,-9.754315
1790542200.5197,-0.048007,-0.058095,-0.057862,-0.046118,-0.056179,-0.057862,0.248579,0.387820,0.802910,-1.002520,1.348691,-8.861658
1790542200.5332,-0.049038,-0.058459,-0.048899,-0.048162,-0.057775,-0.048899,-0.006391,0.310115,0.578294,-1.424128,0.976891,-9.482637
1790542200.5474,-0.045686,-0.058810,-0.033795,-0.046429,-0.058499,-0.033795,0.134450,-0.105122,0.438668,-0.925864,2.203831,-11.073895
1790542200.5615,-0.043191,-0.060628,-0.030349,-0.044162,-0.059990,-0.030349,0.083456,-0.218037,0.368247,0.492271,0.976891,-11.423196
1790542200.5755,-0.037790,-0.058638,-0.025436,-0.039702,-0.059043,-0.025436,-0.177585,-0.533714,0.263831,1.565455,1.162791,-12.820399
1790542200.5892,-0.033577,-0.050705,-0.021062,-0.035414,-0.053206,-0.021062,-0.719092,-0.687910,0.214051,3.328542,0.158931,-11.151518
1790542200.6031,-0.031346,-0.041577,-0.018670,-0.032567,-0.045066,-0.018670,-0.906070,-0.619918,0.071997,3.405198,-0.621849,-8.900469
1790542200.6169,-0.024209,-0.029613,-0.016105,-0.026717,-0.034249,-0.016105,-0.971634,-1.133500,-0.142906,2.676966,0.233291,-4.825294
1790542200.6307,-0.015211,-0.018487,-0.020481,-0.018663,-0.023216,-0.020481,-0.834436,-1.013300,-0.190258,1.642111,0.642271,-5.213406
1790542200.6445,-0.017302,-0.014325,-0.022950,-0.017710,-0.016992,-0.022950,-0.370633,-0.085695,-0.292246,1.987063,0.790991,-8.357112
1790542200.6589,-0.019767,-0.026387,-0.022101,-0.019150,-0.023569,-0.022101,0.856864,0.544444,-0.583640,-2.880591,1.980751,-13.441378
1790542200.6729,-0.013971,-0.027539,-0.047804,-0.015525,-0.026348,-0.047804,0.360280,0.044218,-1.162786,-2.842263,4.174371,-11.539630
1790542200.6869,-0.013524,-0.029678,-0.072760,-0.014124,-0.028679,-0.072760,0.385777,-0.046843,-1.123933,1.335487,2.761531,-8.551168
1790542200.7007,-0.012914,-0.034357,-0.088035,-0.013277,-0.032653,-0.088035,0.411274,0.245765,-0.763333,-0.810880,1.051251,-5.717951
1790542200.7146,-0.000279,-0.046024,-0.090393,-0.004178,-0.042013,-0.090393,0.716024,-0.584708,-0.700198,-2.152360,0.121751,-10.569350
1790542200.7285,0.015389,-0.060475,-0.099297,0.009519,-0.054936,-0.099297,0.972208,-0.911312,-0.856822,-1.347472,0.605091,-11.190329
1790542200.7421,0.020373,-0.062533,-0.109798,0.017117,-0.060254,-0.109798,0.408846,-0.490005,-0.986735,1.412143,2.835891,-8.124245
1790542200.7558,0.024492,-0.065697,-0.119576,0.022279,-0.064064,-0.119576,0.276504,-0.354021,-0.949097,0.990535,1.571771,-9.909560
1790542200.7698,0.030615,-0.071998,-0.129689,0.028114,-0.069618,-0.129689,0.372422,-0.350378,-0.936955,-0.274288,0.456371,-9.327392
1790542200.7837,0.022094,-0.077975,-0.131436,0.023900,-0.075468,-0.131436,0.355424,0.484951,-0.713553,2.178703,0.642271,-14.683336
1790542200.7976,0.005325,-0.069801,-0.145699,0.010897,-0.071501,-0.145699,-0.589179,1.406485,-0.632206,-2.152360,1.794851,-17.206063
1790542200.8114,0.006577,-0.057298,-0.158755,0.007873,-0.061559,-0.158755,-1.001987,0.413317,-0.618850,-5.985158,0.233291,-13.907112
1790542200.8253,0.003183,-0.049949,-0.158356,0.004590,-0.053432,-0.158356,-1.049339,0.767847,-0.598210,-2.190688,-2.034688,-4.437182
1790542200.8392,-0.005886,-0.036002,-0.164752,-0.002743,-0.041231,-0.164752,-1.148898,0.913544,-0.437943,-0.734224,-0.026969,-4.087881
1790542200.8533,-0.012581,-0.024369,-0.174146,-0.009630,-0.029427,-0.174146,-0.849005,0.504378,-0.408803,0.262303,0.753811,-6.338930
1790542200.8672,-0.027579,-0.009014,-0.167586,-0.022194,-0.015138,-0.167586,-0.747017,1.087166,-0.337169,0.875551,5.661571,-10.841028
1790542200.8810,-0.009201,-0.018286,-0.179916,-0.013099,-0.017342,-0.179916,0.428272,-1.122573,-0.218183,-3.723807,-1.774428,-21.281238
1790542200.8949,-0.013730,-0.019960,-0.184636,-0.013541,-0.019174,-0.184636,0.112595,-0.037130,0.503017,4.248414,2.055111,-14.139979
1790542200.9092,-0.011241,-0.028061,-0.176141,-0.011931,-0.025395,-0.176141,0.453769,-0.368590,0.919468,0.645583,0.344831,-9.443825
1790542200.9234,-0.011497,-0.047908,-0.172615,-0.011627,-0.041154,-0.172615,1.009846,-0.269031,0.858761,0.837223,-1.253909,-4.475993
1790542200.9374,-0.013236,-0.059837,-0.135614,-0.012753,-0.054232,-0.135614,0.901788,0.380535,0.388888,-2.497311,1.385871,-8.900469
1790542200.9513,-0.031773,-0.073813,-0.136123,-0.026067,-0.067938,-0.136123,0.920000,1.240148,0.560082,0.952207,0.233291,-13.208511
1790542200.9653,-0.044250,-0.085796,-0.119311,-0.038795,-0.080439,-0.119311,0.892075,0.847980,0.903684,0.147319,1.794851,-11.966553
1790542200.9788,-0.060597,-0.089073,-0.095785,-0.054056,-0.086482,-0.095785,0.459840,1.189154,0.961963,0.108991,2.724351,-7.891378
1790542200.9924,-0.065974,-0.092233,-0.068937,-0.062399,-0.090508,-0.068937,0.357852,0.590582,1.002030,-1.462456,1.832031,-6.959909
1790542201.0063,-0.053304,-0.095468,-0.057583,-0.056032,-0.093980,-0.057583,0.180587,-0.717049,0.811409,-2.267343,0.753811,-10.608161
1790542201.0201,-0.049721,-0.092384,-0.056274,-0.051614,-0.092863,-0.056274,-0.332995,-0.358877,0.702137,1.220503,0.047391,-12.781588
1790542201.0340,-0.045806,-0.092436,-0.075051,-0.047548,-0.092564,-0.075051,-0.256504,-0.519144,0.862403,2.600310,-1.774428,-11.888930
1790542201.0478,-0.043173,-0.093738,-0.090601,-0.044485,-0.093386,-0.090601,-0.182441,-0.519144,0.846619,3.520182,-2.034688,-10.802217
1790542201.0617,-0.040801,-0.088114,-0.091242,-0.041906,-0.089696,-0.091242,-0.569753,-0.612633,0.823551,3.290214,-0.510309,-6.959909
1790542201.0755,-0.032661,-0.076157,-0.091138,-0.035435,-0.080219,-0.091138,-0.955850,-0.894314,0.682710,1.757095,0.084571,-5.873196
1790542201.0894,-0.025054,-0.064598,-0.076496,-0.028168,-0.069284,-0.076496,-1.038411,-0.911312,0.595292,3.865134,-1.179549,-10.336483
1790542201.1033,-0.017371,-0.047535,-0.082607,-0.020610,-0.054060,-0.082607,-1.231460,-0.981732,0.170342,4.325070,1.014071,-8.667602
1790542201.1172,-0.009573,-0.027669,-0.088766,-0.012884,-0.035586,-0.088766,-1.439078,-0.878530,0.105993,2.830278,1.014071,-8.163056
1790542201.1312,-0.030722,-0.027266,-0.079825,-0.025370,-0.029762,-0.079825,-0.172728,1.317853,-0.195114,4.171758,-0.324409,-13.363756
1790542201.1449,-0.031735,-0.042404,-0.016715,-0.029826,-0.038611,-0.016715,1.127618,0.636719,-0.946668,-4.375383,1.646131,-10.025993
1790542201.1592,-0.025190,-0.036627,-0.148727,-0.026581,-0.037223,-0.148727,0.363923,-0.346736,-0.929670,-0.082648,4.880791,-2.884734
1790542201.1732,-0.032880,-0.046205,-0.140167,-0.030990,-0.043510,-0.140167,0.782802,0.334398,-0.403947,2.178703,1.423051,-5.989630
1790542201.1871,-0.018159,-0.057906,-0.127113,-0.022009,-0.053587,-0.127113,0.943068,-0.721906,-0.715981,-3.493839,2.575631,-11.811308
1790542201.2006,-0.007841,-0.070424,-0.144477,-0.012092,-0.065373,-0.144477,1.063269,-0.760758,-0.825254,0.952207,2.426911,-10.297672
1790542201.2141,-0.000396,-0.077687,-0.164723,-0.003905,-0.073993,-0.164723,0.695383,-0.493647,-0.953953,0.223975,1.906391,-7.309210
1790542201.2277,0.014730,-0.084775,-0.175843,0.009140,-0.081540,-0.175843,0.530260,-0.980518,-0.826468,-0.619240,0.716631,-7.231588
1790542201.2418,0.021747,-0.093974,-0.186206,0.017965,-0.090244,-0.186206,0.685670,-0.538570,-0.862893,0.990535,1.274331,-9.599070
1790542201.2558,0.006259,-0.094731,-0.188647,0.009771,-0.093385,-0.188647,-0.036744,1.112663,-0.832539,0.952207,-0.212869,-16.235784
1790542201.2697,-0.008725,-0.076989,-0.190274,-0.003176,-0.081908,-0.190274,-1.366230,1.265645,-0.786402,-1.730752,-0.026969,-13.907112
1790542201.2834,-0.007506,-0.062809,-0.138546,-0.006207,-0.068539,-0.138546,-1.310379,0.324685,-0.655274,-4.490366,-2.592388,-10.258860
1790542201.2974,-0.012489,-0.047190,-0.136387,-0.010604,-0.053594,-0.136387,-1.352874,0.715638,-0.677129,-2.267343,-1.253909,-6.727042
1790542201.3112,-0.027291,-0.026679,-0.159640,-0.022285,-0.034754,-0.159640,-1.210820,1.124804,-0.463440,0.262303,2.612811,-5.329839
1790542201.3249,-0.047303,-0.013454,-0.169436,-0.039797,-0.019844,-0.169436,-0.910926,1.696665,-0.571499,-0.657568,0.976891,-5.446273
1790542201.3389,-0.041089,-0.014537,-0.180530,-0.040701,-0.016129,-0.180530,0.311715,-0.301813,-0.512006,-0.389272,3.430771,-7.852567
1790542201.3527,-0.028900,-0.020979,-0.176942,-0.032440,-0.019524,-0.176942,0.584897,-0.985375,0.237120,1.297159,3.914111,-12.432287
1790542201.3667,-0.029173,-0.022309,-0.165940,-0.030153,-0.021474,-0.165940,0.082242,-0.137903,0.731276,1.028863,1.720491,-11.151518
1790542201.3806,-0.026004,-0.029965,-0.149634,-0.027249,-0.027418,-0.149634,0.486551,-0.441439,0.993531,1.182175,0.976891,-10.336483
1790542201.3945,-0.033687,-0.041325,-0.140753,-0.031756,-0.037153,-0.140753,0.824083,0.200842,0.635359,1.833751,0.716631,-4.631238
1790542201.4085,-0.053447,-0.049828,-0.132030,-0.046939,-0.046025,-0.132030,0.616464,1.081095,0.796840,2.983590,1.274331,-7.774944
1790542201.4229,-0.069698,-0.058022,-0.125247,-0.062870,-0.054423,-0.125247,0.580040,1.043457,0.958321,0.453943,1.683311,-8.978091
1790542201.4365,-0.079901,-0.062553,-0.122903,-0.074791,-0.060114,-0.122903,0.360280,0.805485,1.060308,-1.117504,2.055111,-9.055714
1790542201.4502,-0.086278,-0.065843,-0.116053,-0.082832,-0.064125,-0.116053,0.246151,0.471596,1.148941,-0.619240,2.315371,-10.569350
1790542201.4642,-0.087908,-0.067974,-0.106551,-0.086385,-0.066819,-0.106551,0.087098,0.130422,1.002030,-0.542584,1.237151,-9.987182
1790542201.4779,-0.079788,-0.071007,-0.097734,-0.081767,-0.069751,-0.097734,0.158733,-0.583494,0.810195,-0.350944,1.311511,-12.121798
1790542201.4918,-0.071615,-0.068064,-0.084041,-0.074661,-0.068570,-0.084041,-0.274716,-0.712193,0.782270,1.527127,1.199971,-12.005364
1790542201.5070,-0.062056,-0.063881,-0.063840,-0.065838,-0.065287,-0.063840,-0.413128,-0.781399,0.702137,1.872079,-0.212869,-10.879840
1790542201.5215,-0.054840,-0.055551,-0.041549,-0.058139,-0.058472,-0.041549,-0.691167,-0.757116,0.580722,2.945262,0.010211,-9.016902
1790542201.5364,-0.041229,-0.040686,-0.029749,-0.046302,-0.046022,-0.029749,-1.065123,-1.089791,0.257761,1.680439,0.456371,-7.270399
1790542201.5510,-0.027322,-0.025094,-0.020995,-0.033016,-0.031372,-0.020995,-1.134329,-1.155355,-0.012993,2.332014,0.456371,-7.774944
1790542201.5665,-0.020357,-0.013846,-0.016738,-0.024155,-0.019104,-0.016738,-0.799225,-0.593207,-0.263106,2.446998,0.382011,-8.706413
1790542201.5804,-0.024640,-0.019827,-0.038440,-0.024494,-0.019610,-0.038440,0.499907,0.622149,-0.862893,-3.110559,2.947431,-14.062357
1790542201.5942,-0.020992,-0.027737,-0.066947,-0.022043,-0.025299,-0.066947,0.678386,0.108567,-1.395901,-2.880591,3.058971,-13.363756
1790542201.6082,-0.017577,-0.034762,-0.089163,-0.018916,-0.031923,-0.089163,0.564256,-0.060198,-1.404400,0.262303,2.055111,-11.345574
1790542201.6221,-0.018775,-0.044112,-0.105102,-0.018817,-0.040455,-0.105102,0.711167,0.319828,-0.791258,-1.155832,1.125611,-7.309210
1790542201.6360,-0.008874,-0.062472,-0.114034,-0.011857,-0.055867,-0.114034,1.245390,-0.476649,-0.935741,-2.114032,-0.212869,-12.315854
1790542201.6501,0.009929,-0.078410,-0.133908,0.003393,-0.071647,-0.133908,1.153115,-1.054581,-1.295127,-2.803935,1.385871,-11.927742
1790542201.6641,0.020203,-0.084160,-0.155906,0.015160,-0.080406,-0.155906,0.588539,-0.712193,-1.459036,0.837223,2.612811,-7.076343
1790542201.6779,0.024982,-0.090387,-0.167709,0.022036,-0.087393,-0.167709,0.526618,-0.414728,-1.173713,1.335487,1.534591,-6.921098
1790542201.6919,0.032603,-0.103349,-0.177593,0.029433,-0.098562,-0.177593,0.796157,-0.447510,-1.053513,-0.695896,-0.733389,-10.297672
1790542201.7058,0.023589,-0.105784,-0.192295,0.025342,-0.103618,-0.192295,0.158733,0.704711,-0.995234,-0.235960,1.311511,-17.012007
1790542201.7196,0.009404,-0.095415,-0.207836,0.014185,-0.097875,-0.207836,-0.828365,1.187940,-0.986735,-2.190688,-0.175689,-16.119350
1790542201.7335,0.011666,-0.086837,-0.223768,0.012422,-0.090149,-0.223768,-0.823508,0.226339,-0.980664,-6.023486,-2.741108,-12.199420
1790542201.7474,0.013137,-0.070342,-0.242601,0.012922,-0.076284,-0.242601,-1.328591,0.331970,-1.213780,-2.765607,-0.547489,-5.329839
1790542201.7614,-0.005647,-0.049742,-0.254856,-0.000076,-0.057705,-0.254856,-1.562921,1.090808,-0.963666,2.178703,-0.064149,-3.816203
1790542201.7752,-0.011132,-0.035274,-0.260566,-0.007816,-0.042003,-0.260566,-1.332234,0.845552,-0.943026,-1.654096,-1.142369,-3.272846
1790542201.7892,-0.026266,-0.015936,-0.273718,-0.020731,-0.023756,-0.273718,-1.423294,1.288713,-0.856822,-0.810880,0.828171,-11.345574
1790542201.8032,-0.029855,-0.003290,-0.284001,-0.027118,-0.009430,-0.284001,-0.964349,0.534731,-0.848323,-2.458983,0.605091,-14.916203
1790542201.8170,-0.015679,-0.023545,-0.295194,-0.019110,-0.019311,-0.295194,1.172541,-0.817823,-0.240038,-3.302199,-3.744968,-12.781588
1790542201.8309,-0.017418,-0.027674,-0.298380,-0.017925,-0.025165,-0.298380,0.423416,-0.124548,0.345179,1.872079,2.017931,-5.873196
1790542201.8450,-0.013395,-0.033220,-0.290907,-0.014754,-0.030803,-0.290907,0.538759,-0.508217,0.564938,1.833751,2.947431,-7.969000
1790542201.8589,-0.014021,-0.043699,-0.284735,-0.014241,-0.039830,-0.284735,0.861721,-0.034701,0.317254,0.645583,2.612811,-9.055714
1790542201.8729,-0.026364,-0.057044,-0.286014,-0.022727,-0.051880,-0.286014,0.994062,0.636719,0.354892,3.750150,1.980751,-11.112707
1790542201.8869,-0.042192,-0.068113,-0.282368,-0.036352,-0.063243,-0.282368,0.852008,1.081095,0.392530,0.875551,2.612811,-13.208511
1790542201.9004,-0.057476,-0.071822,-0.276003,-0.051139,-0.069248,-0.276003,0.441628,1.024031,0.523658,1.488799,3.616671,-9.793126
1790542201.9141,-0.062232,-0.073856,-0.268090,-0.058904,-0.072473,-0.268090,0.219440,0.347753,0.585579,-0.159304,2.501271,-10.336483
1790542201.9287,-0.069850,-0.075661,-0.259871,-0.066566,-0.074705,-0.259871,0.156304,0.443671,0.584365,0.837223,1.460231,-7.542077
1790542201.9427,-0.072458,-0.075591,-0.252004,-0.070690,-0.075325,-0.252004,0.134450,0.191129,0.554011,-0.044320,3.096151,-8.667602
1790542201.9566,-0.053380,-0.076686,-0.242274,-0.058573,-0.076278,-0.242274,-0.114449,-1.318050,0.694852,-1.462456,-1.402628,-12.238231
1790542201.9706,-0.040304,-0.066840,-0.227073,-0.045785,-0.069672,-0.227073,-0.713021,-1.167496,0.600149,3.711822,1.646131,-12.432287
1790542201.9845,-0.034543,-0.057063,-0.208522,-0.037916,-0.060845,-0.208522,-0.839292,-0.752259,0.557654,4.133430,-0.621849,-8.822846
1790542201.9985,-0.024920,-0.042731,-0.199157,-0.028819,-0.048165,-0.199157,-1.113688,-1.050938,0.357320,3.366870,0.047391,-6.377742
1790542202.0124,-0.007462,-0.025763,-0.192670,-0.013869,-0.032484,-0.192670,-1.253315,-1.437036,0.205552,1.220503,0.530731,-5.523895
1790542202.0263,0.001311,-0.012139,-0.190826,-0.003243,-0.018242,-0.190826,-0.993488,-0.904027,0.186126,2.523654,0.939711,-7.037532
1790542202.0402,-0.010053,-0.013447,-0.192834,-0.008010,-0.014886,-0.192834,0.090741,0.731422,0.002791,2.217030,2.166651,-14.722147
1790542202.0541,-0.019465,-0.021920,-0.204069,-0.016028,-0.019810,-0.204069,0.633462,0.776346,-0.573927,0.147319,3.058971,-18.409210
1790542202.0680,-0.019467,-0.030930,-0.229143,-0.018435,-0.027594,-0.229143,0.741521,0.208127,-1.236848,-0.427600,3.096151,-13.402567
1790542202.0818,-0.019776,-0.042716,-0.235671,-0.019374,-0.038180,-0.235671,0.809513,0.108567,-0.975808,0.875551,0.456371,-11.267951
1790542202.0957,-0.011797,-0.053125,-0.261351,-0.014070,-0.048642,-0.261351,0.904216,-0.304241,-0.672272,-2.229015,2.538451,-7.619700
1790542202.1096,0.003480,-0.070896,-0.274025,-0.001785,-0.064220,-0.274025,1.314596,-0.933167,-0.745121,-1.424128,1.385871,-9.870749
1790542202.1235,0.025543,-0.084317,-0.298174,0.017345,-0.078288,-0.298174,1.123976,-1.400611,-1.011018,-1.424128,2.612811,-7.619700
1790542202.1372,0.040267,-0.091012,-0.308049,0.033391,-0.087195,-0.308049,0.688099,-1.126215,-0.913887,1.028863,3.133331,-7.192776
1790542202.1511,0.044953,-0.098480,-0.315450,0.041484,-0.095094,-0.315450,0.588539,-0.390445,-0.845895,1.028863,1.720491,-8.473546
1790542202.1651,0.024145,-0.102627,-0.297593,0.029346,-0.100367,-0.297593,0.062815,1.447766,-0.895674,2.102047,-3.707788,-17.206063
1790542202.1797,0.009946,-0.088928,-0.314293,0.015766,-0.092360,-0.314293,-0.959492,1.089594,-0.894460,-1.385800,1.125611,-15.886483
1790542202.1937,0.015196,-0.078811,-0.319619,0.015367,-0.082875,-0.319619,-0.988632,-0.039558,-0.896889,-4.988630,-3.856508,-10.802217
1790542202.2078,0.008739,-0.060296,-0.336932,0.010728,-0.067070,-0.336932,-1.391727,0.742350,-0.898103,-1.884064,0.010211,-6.067252
1790542202.2217,0.002508,-0.039147,-0.350475,0.004974,-0.047524,-0.350475,-1.537424,0.665859,-0.683200,-1.002520,0.567911,-4.941727
1790542202.2357,-0.008046,-0.020796,-0.361184,-0.004140,-0.028814,-0.361184,-1.524068,1.036172,-0.671058,-1.615768,-1.142369,-5.873196
1790542202.2496,-0.025514,-0.006076,-0.373487,-0.019102,-0.012898,-0.373487,-1.102761,1.468407,-0.709911,-1.117504,0.679451,-10.181238
1790542202.2635,-0.023856,-0.001628,-0.381811,-0.022429,-0.005009,-0.381811,-0.505403,0.097640,-0.533860,-3.685479,-3.038548,-21.242427
1790542202.2775,-0.015269,-0.014240,-0.382511,-0.017417,-0.011471,-0.382511,0.801014,-0.627203,0.002791,0.262303,-0.026969,-15.381938
1790542202.2914,-0.009863,-0.018213,-0.383398,-0.012129,-0.016191,-0.383398,0.276504,-0.577423,0.316039,2.446998,1.608951,-11.423196
1790542202.3053,-0.015179,-0.027596,-0.382462,-0.014264,-0.024174,-0.382462,0.790087,0.027220,0.728848,4.095102,3.207691,-9.210958
1790542202.3192,-0.017682,-0.044362,-0.378905,-0.016657,-0.038306,-0.378905,1.187111,0.006579,0.419241,2.063719,1.051251,-10.375294
1790542202.3331,-0.035911,-0.056775,-0.378770,-0.030134,-0.051234,-0.378770,0.957638,1.026459,0.456880,3.750150,2.017931,-8.706413
1790542202.3470,-0.054540,-0.065830,-0.380520,-0.047218,-0.061451,-0.380520,0.764590,1.270501,0.511516,0.798895,2.724351,-8.978091
1790542202.3606,-0.069644,-0.071307,-0.375106,-0.062916,-0.068350,-0.375106,0.436771,1.085952,0.753131,0.070663,2.426911,-11.888930
1790542202.3743,-0.077742,-0.075392,-0.366490,-0.073295,-0.073279,-0.366490,0.294717,0.599081,0.791983,-0.427600,1.869211,-11.306763
1790542202.3883,-0.080854,-0.082791,-0.357882,-0.078586,-0.079937,-0.357882,0.509620,0.209341,0.738561,0.032335,1.571771,-10.918651
1790542202.4023,-0.074122,-0.085832,-0.345802,-0.075461,-0.084063,-0.345802,0.169660,-0.607776,0.781056,1.987063,1.237151,-11.927742
1790542202.4165,-0.063037,-0.080578,-0.331820,-0.066764,-0.081624,-0.331820,-0.460480,-0.890672,0.657213,1.757095,0.270471,-12.121798
1790542202.4311,-0.054576,-0.072579,-0.296219,-0.058232,-0.075292,-0.296219,-0.738518,-0.878530,0.733704,4.746677,-1.514168,-10.336483
1790542202.4452,-0.047468,-0.059343,-0.275885,-0.050697,-0.064128,-0.275885,-1.117331,-0.846962,0.569795,4.631693,-1.253909,-8.434735
1790542202.4592,-0.035259,-0.040761,-0.271575,-0.039890,-0.047771,-0.271575,-1.394155,-1.132286,0.411957,2.178703,0.270471,-5.912007
1790542202.4731,-0.021681,-0.022301,-0.266298,-0.027144,-0.029942,-0.266298,-1.386870,-1.207563,0.360963,1.527127,0.456371,-5.446273
1790542202.4870,-0.012207,-0.006541,-0.262280,-0.016688,-0.013561,-0.262280,-1.176824,-0.916169,0.308755,1.488799,0.493551,-5.058161
1790542202.5009,-0.020639,-0.005730,-0.256426,-0.019454,-0.008080,-0.256426,-0.091381,0.515305,0.326967,1.565455,2.017931,-16.973196
1790542202.5147,-0.028502,-0.014163,-0.272230,-0.025787,-0.012338,-0.272230,0.717238,0.714424,-0.233967,-2.114032,4.694891,-15.770049
1790542202.5286,-0.018993,-0.019865,-0.290773,-0.021031,-0.017607,-0.290773,0.521761,-0.356449,-1.009804,-3.877119,4.025651,-13.868301
1790542202.5426,-0.026447,-0.024866,-0.340830,-0.024822,-0.022688,-0.340830,0.726951,0.658574,-0.850751,0.108991,2.241011,-2.884734
1790542202.5565,-0.015707,-0.032314,-0.315512,-0.018441,-0.029426,-0.315512,0.667458,-0.339451,-0.469511,-3.953775,2.203831,-5.368651
1790542202.5705,-0.005968,-0.049345,-0.320249,-0.009710,-0.043369,-0.320249,1.182254,-0.576209,-0.617636,-0.887536,0.753811,-13.208511
1790542202.5841,0.012979,-0.062857,-0.342668,0.006172,-0.057011,-0.342668,1.145830,-1.194207,-0.832539,-1.654096,2.947431,-8.473546
1790542202.5976,0.026281,-0.069467,-0.349428,0.020249,-0.065730,-0.349428,0.656531,-1.054581,-0.817969,1.297159,2.426911,-6.028441
1790542202.6115,0.035224,-0.075771,-0.358277,0.030732,-0.072759,-0.358277,0.469553,-0.645415,-0.905388,0.607255,1.051251,-6.610609
1790542202.6254,0.024096,-0.080997,-0.374087,0.026087,-0.078526,-0.374087,0.403989,0.850408,-0.867749,0.377287,2.947431,-17.206063
1790542202.6393,0.006626,-0.067698,-0.390820,0.012464,-0.070947,-0.390820,-1.008058,1.451409,-0.896889,-3.110559,0.716631,-17.943476
1790542202.6531,0.003564,-0.053515,-0.392391,0.006234,-0.058744,-0.392391,-1.201106,0.532303,-0.938169,-4.222071,-1.923148,-12.082986
1790542202.6670,0.005255,-0.040114,-0.398342,0.005548,-0.045703,-0.398342,-1.112474,0.365965,-0.923600,-4.222071,-0.882109,-5.795574
1790542202.6813,-0.014438,-0.018315,-0.406070,-0.008442,-0.026532,-0.406070,-1.501000,1.370061,-0.717196,0.760567,0.679451,-3.699769
1790542202.6952,-0.018721,-0.001150,-0.423066,-0.015637,-0.008764,-0.423066,-1.339519,0.711996,-0.774260,-2.688951,-0.212869,-6.067252
1790542202.7092,-0.021112,0.004229,-0.433731,-0.019470,0.000331,-0.433731,-0.476264,0.357466,-0.654060,-1.577440,0.084571,-17.128441
1790542202.7231,-0.017399,-0.008846,-0.430655,-0.018020,-0.006093,-0.430655,0.905430,-0.375875,0.002791,2.983590,1.757671,-16.429840
1790542202.7370,-0.019892,-0.010969,-0.420334,-0.019330,-0.009506,-0.420334,0.338426,-0.035916,0.504231,2.102047,4.025651,-7.930189
1790542202.7510,-0.019851,-0.026165,-0.403523,-0.019694,-0.021167,-0.403523,1.003776,-0.224108,0.802910,1.258831,0.233291,-7.076343
1790542202.7650,-0.011618,-0.043941,-0.395570,-0.014041,-0.037109,-0.395570,1.108192,-0.480292,0.490876,-2.650623,-1.216729,-9.560259
1790542202.7790,-0.027529,-0.049749,-0.391683,-0.023483,-0.045957,-0.391683,0.549686,0.964538,0.481163,1.603783,2.426911,-6.765853
1790542202.7928,-0.040583,-0.061528,-0.384929,-0.035453,-0.056857,-0.384929,0.853222,0.838267,0.528514,1.527127,1.646131,-12.548721
1790542202.8066,-0.058686,-0.068262,-0.378200,-0.051716,-0.064841,-0.378200,0.588539,1.147873,0.770129,1.680439,2.538451,-7.969000
1790542202.8202,-0.073050,-0.070792,-0.376629,-0.066650,-0.069006,-0.376629,0.360280,0.969394,0.815052,0.568927,2.426911,-5.213406
1790542202.8336,-0.078822,-0.077574,-0.371473,-0.075170,-0.075004,-0.371473,0.446484,0.449741,0.801696,-0.542584,0.790991,-9.055714
1790542202.8475,-0.081662,-0.084238,-0.368920,-0.079714,-0.081468,-0.368920,0.512048,0.226339,0.668141,-0.427600,2.464091,-11.617252
1790542202.8614,-0.071287,-0.088622,-0.356691,-0.073815,-0.086475,-0.356691,0.123523,-0.725548,0.773771,-0.887536,-1.700068,-13.519000
1790542202.8752,-0.061566,-0.086276,-0.332264,-0.065241,-0.086336,-0.332264,-0.359706,-0.893100,0.653571,3.175230,-1.737248,-11.656063
1790542202.8889,-0.054587,-0.083495,-0.302000,-0.057783,-0.084347,-0.302000,-0.426484,-0.831179,0.682710,4.286742,-1.923148,-8.085434
1790542202.9028,-0.047005,-0.071001,-0.290888,-0.050238,-0.075005,-0.290888,-0.984989,-0.900385,0.772557,3.060246,0.121751,-5.601518
1790542202.9167,-0.036022,-0.055404,-0.269560,-0.040287,-0.061285,-0.269560,-1.301880,-0.931952,0.552797,1.028863,-0.807749,-6.300119
1790542202.9313,-0.029975,-0.033187,-0.267367,-0.033068,-0.041616,-0.267367,-1.609058,-0.679411,0.330609,3.251886,-0.138509,-7.580888
1790542202.9453,-0.014977,-0.019190,-0.247849,-0.020404,-0.025918,-0.247849,-1.180466,-1.212419,0.243191,1.872079,-1.291089,-11.229140
1790542202.9593,-0.008012,-0.003940,-0.261101,-0.011730,-0.010533,-0.261101,-1.076050,-0.720692,0.144845,2.830278,1.497411,-8.667602
1790542202.9733,-0.028736,-0.015263,-0.245695,-0.023634,-0.013844,-0.245695,0.643175,1.421055,0.025859,2.408670,-1.625708,-15.808861
1790542202.9873,-0.024295,-0.033080,-0.256897,-0.024096,-0.027309,-0.256897,1.242962,0.100068,-0.621278,-3.838791,0.270471,-6.610609
1790542203.0012,-0.016698,-0.032240,-0.346176,-0.018918,-0.030761,-0.346176,0.361494,-0.271459,-1.052299,-1.577440,4.992331,-5.213406
1790542203.0151,-0.020492,-0.042681,-0.356894,-0.020020,-0.039105,-0.356894,0.809513,0.263978,-0.490151,1.335487,1.906391,-9.521448
1790542203.0290,-0.011908,-0.053641,-0.364368,-0.014342,-0.049280,-0.364368,0.839866,-0.453580,-0.516862,-1.577440,1.757671,-9.676693
1790542203.0425,0.004537,-0.065968,-0.376974,-0.001127,-0.060962,-0.376974,1.014703,-1.055795,-0.651632,-1.500784,2.575631,-9.676693
1790542203.0561,0.012021,-0.070814,-0.393729,0.008076,-0.067858,-0.393729,0.499907,-0.459651,-0.819183,-0.312616,2.724351,-8.163056
1790542203.0700,0.022632,-0.071617,-0.409085,0.018265,-0.070489,-0.409085,0.164803,-0.675768,-0.775474,-0.504256,2.798711,-9.676693
1790542203.0839,0.032566,-0.074992,-0.421087,0.028276,-0.073641,-0.421087,0.318999,-0.679411,-0.782759,0.185647,2.055111,-8.279490
1790542203.0978,0.018866,-0.072924,-0.418496,0.021689,-0.073139,-0.418496,-0.243148,0.976679,-0.762119,1.680439,-0.175689,-15.343126
1790542203.1116,0.004584,-0.056852,-0.431071,0.009716,-0.061738,-0.431071,-1.153755,1.183083,-0.569070,-2.190688,1.869211,-14.605714
1790542203.1256,0.005170,-0.042128,-0.404907,0.006534,-0.048011,-0.404907,-1.232674,0.282190,-0.499864,-4.643678,-1.662888,-9.521448
1790542203.1395,-0.004757,-0.026161,-0.396694,-0.001370,-0.032716,-0.396694,-1.383228,0.945111,-0.462226,-1.002520,-0.956469,-3.699769
1790542203.1534,-0.015768,-0.006675,-0.403238,-0.011448,-0.014487,-0.403238,-1.463361,0.963323,-0.470725,-0.542584,0.196111,-4.126693
1790542203.1673,-0.017185,0.005671,-0.411887,-0.015464,-0.000376,-0.411887,-0.859933,0.356252,-0.556929,-1.884064,1.497411,-7.580888
1790542203.1816,-0.012299,-0.015969,-0.410356,-0.013248,-0.011291,-0.410356,1.421440,-0.361306,0.000362,0.683911,-0.324409,-21.281238
1790542203.1956,-0.014508,-0.022247,-0.402186,-0.014130,-0.018960,-0.402186,0.496264,-0.073554,0.711850,1.795423,1.906391,-7.852567
1790542203.2094,-0.012802,-0.029522,-0.387563,-0.013200,-0.026353,-0.387563,0.537545,-0.315168,1.074878,0.837223,1.980751,-11.112707
1790542203.2234,-0.000917,-0.043134,-0.372575,-0.004602,-0.038100,-0.372575,0.895717,-0.810538,0.793197,-1.960720,0.010211,-7.891378
1790542203.2373,-0.011002,-0.054624,-0.363419,-0.009082,-0.049667,-0.363419,0.854436,0.528661,0.823551,1.680439,1.534591,-9.288581
1790542203.2512,-0.032184,-0.066645,-0.353281,-0.025254,-0.061552,-0.353281,0.844723,1.389487,0.895185,1.258831,1.199971,-12.432287
1790542203.2651,-0.046209,-0.074982,-0.342280,-0.039922,-0.070953,-0.342280,0.679600,0.996105,1.043310,-0.619240,2.092291,-7.386832
1790542203.2786,-0.062574,-0.079433,-0.330493,-0.055779,-0.076889,-0.330493,0.382135,1.111449,1.076092,0.760567,2.575631,-10.025993
1790542203.2922,-0.068235,-0.084795,-0.317830,-0.064498,-0.082423,-0.317830,0.316571,0.435172,1.051809,-1.117504,0.716631,-11.656063
1790542203.3062,-0.059192,-0.085778,-0.304209,-0.060784,-0.084771,-0.304209,0.042175,-0.678197,0.980175,-0.312616,1.980751,-14.062357
1790542203.3201,-0.053664,-0.083708,-0.292186,-0.055800,-0.084027,-0.292186,-0.283215,-0.496075,0.744632,1.258831,-0.733389,-11.306763
1790542203.3338,-0.053205,-0.082469,-0.274771,-0.053983,-0.082936,-0.274771,-0.303855,-0.307883,0.906112,4.440053,-2.294948,-11.229140
1790542203.3478,-0.046283,-0.079706,-0.259271,-0.048593,-0.080675,-0.259271,-0.411914,-0.765615,0.850262,3.826806,-2.109048,-9.909560
1790542203.3617,-0.036577,-0.071378,-0.251799,-0.040182,-0.074167,-0.251799,-0.702094,-1.003587,0.744632,2.561982,-0.212869,-5.640329
1790542203.3757,-0.034630,-0.062903,-0.233257,-0.036295,-0.066282,-0.233257,-0.840506,-0.457223,0.767700,3.175230,-1.848788,-6.610609
1790542203.3897,-0.030540,-0.048338,-0.226263,-0.032266,-0.053721,-0.226263,-1.130686,-0.494861,0.618361,1.910407,0.084571,-7.852567
1790542203.4035,-0.021974,-0.033374,-0.220085,-0.025062,-0.039478,-0.220085,-1.182894,-0.831179,0.413171,2.906934,-0.250049,-10.336483
1790542203.4176,-0.015454,-0.011885,-0.228070,-0.018336,-0.020163,-0.228070,-1.594488,-0.785041,0.283258,3.711822,0.270471,-7.464455
1790542203.4319,-0.030103,-0.001630,-0.228517,-0.026573,-0.007190,-0.228517,-0.754302,0.896546,0.194625,2.102047,0.976891,-10.336483
1790542203.4459,-0.041264,-0.012348,-0.195769,-0.036856,-0.010800,-0.195769,0.672315,1.175798,-0.570284,-6.943357,-0.212869,-17.244875
1790542203.4599,-0.034410,-0.014328,-0.259917,-0.035144,-0.013270,-0.259917,0.522975,-0.160972,-0.533860,-4.720334,7.409030,-7.503266
1790542203.4737,-0.044125,-0.024545,-0.272251,-0.041431,-0.021163,-0.272251,0.854436,0.435172,-0.095555,4.861661,2.873071,-8.163056
1790542203.4875,-0.031020,-0.037482,-0.250617,-0.034143,-0.032586,-0.250617,0.923642,-0.639344,-0.473153,-4.107087,1.014071,-10.297672
1790542203.5011,-0.016803,-0.054694,-0.253018,-0.022005,-0.048062,-0.253018,1.224749,-0.984161,-0.684414,0.377287,0.270471,-10.685784
1790542203.5146,-0.004676,-0.068115,-0.267949,-0.009874,-0.062099,-0.267949,1.020774,-0.859104,-0.877462,0.645583,1.014071,-7.813756
1790542203.5282,0.006594,-0.074102,-0.285600,0.001653,-0.070501,-0.285600,0.465911,-0.947736,-0.769404,2.370342,1.014071,-7.969000
1790542203.5421,0.018793,-0.081174,-0.301179,0.013651,-0.077972,-0.301179,0.537545,-0.832393,-0.819183,0.147319,1.237151,-8.667602
1790542203.5559,0.011008,-0.082578,-0.331892,0.011801,-0.081196,-0.331892,0.300787,0.667073,-0.809470,-0.657568,4.025651,-9.249770
1790542203.5698,-0.019816,-0.064638,-0.343886,-0.010331,-0.069605,-0.343886,-1.244816,2.405724,-0.712339,-3.302199,2.798711,-17.477742
1790542203.5843,-0.024362,-0.042621,-0.297220,-0.020153,-0.050717,-0.297220,-1.613915,0.807913,-0.901745,-7.671589,-0.882109,-9.521448
1790542203.5994,-0.027362,-0.021057,-0.330539,-0.025199,-0.029955,-0.330539,-1.549565,0.745992,-0.889604,-4.643678,-1.068009,-4.281937
1790542203.6139,-0.042535,0.003021,-0.343956,-0.037335,-0.006872,-0.343956,-1.644268,1.155158,-0.719624,0.530599,1.051251,-6.843476
1790542203.6279,-0.038176,0.006951,-0.341028,-0.037924,0.002804,-0.341028,-0.377918,0.132850,-0.675915,-4.068759,-0.510309,-7.115154
1790542203.6427,-0.041887,-0.003569,-0.352669,-0.040698,-0.001657,-0.352669,0.810727,0.161990,-0.237609,3.175230,3.616671,-11.112707
1790542203.6564,-0.039224,-0.001742,-0.352638,-0.039666,-0.001716,-0.352638,0.060387,-0.317597,0.311183,1.565455,5.066691,-9.172147
1790542203.6701,-0.032143,-0.011808,-0.342182,-0.034400,-0.008781,-0.342182,0.628606,-0.615061,0.614718,0.223975,0.270471,-12.548721
1790542203.6845,-0.031870,-0.023048,-0.331408,-0.032629,-0.018768,-0.331408,0.713596,-0.097837,0.679068,-0.082648,0.790991,-12.393476
1790542203.6986,-0.038441,-0.028703,-0.327454,-0.036697,-0.025723,-0.327454,0.491408,0.282190,0.612290,1.450471,2.203831,-6.649420
1790542203.7126,-0.052934,-0.037320,-0.319661,-0.048063,-0.033841,-0.319661,0.566684,0.805485,0.804124,2.600310,0.939711,-9.560259
1790542203.7265,-0.062107,-0.041427,-0.310831,-0.057894,-0.039151,-0.310831,0.355424,0.611222,0.850262,-0.159304,1.980751,-6.610609
1790542203.7401,-0.069573,-0.041905,-0.301101,-0.066069,-0.041079,-0.301101,0.101668,0.446099,0.952250,0.338959,2.166651,-6.494175
1790542203.7538,-0.066769,-0.040020,-0.288508,-0.066559,-0.040338,-0.288508,-0.156944,-0.233821,0.963177,-0.964192,2.389731,-11.694875
1790542203.7678,-0.065730,-0.037829,-0.273734,-0.065979,-0.038581,-0.273734,-0.231007,-0.222893,1.016599,1.028863,1.274331,-10.763406
1790542203.7818,-0.064564,-0.038330,-0.260108,-0.064989,-0.038405,-0.260108,-0.068312,-0.163400,0.925539,-0.005993,0.679451,-11.850119
1790542203.7957,-0.058232,-0.035869,-0.249481,-0.060259,-0.036630,-0.249481,-0.238292,-0.503360,0.694852,-0.159304,1.051251,-9.948371
1790542203.8095,-0.046979,-0.029521,-0.237967,-0.050963,-0.031654,-0.237967,-0.519973,-0.913740,0.709421,0.377287,0.976891,-9.016902
1790542203.8235,-0.036830,-0.022549,-0.227378,-0.041070,-0.025280,-0.227378,-0.624389,-0.866389,0.569795,1.680439,-0.250049,-13.713056
1790542203.8374,-0.029198,-0.011244,-0.219883,-0.032760,-0.015455,-0.219883,-0.908498,-0.780185,0.409528,2.830278,0.158931,-9.288581
1790542203.8513,-0.019000,0.000560,-0.216524,-0.023128,-0.004245,-0.216524,-0.840506,-0.822680,0.204338,0.607255,1.274331,-6.494175
1790542203.8652,-0.024119,-0.003040,-0.215574,-0.023821,-0.003401,-0.215574,0.142949,0.328327,-0.127122,1.565455,-0.398769,-11.927742
1790542203.8791,-0.026163,-0.009155,-0.230405,-0.025460,-0.007429,-0.230405,0.564256,0.314972,-0.825254,-0.350944,3.765391,-11.190329
1790542203.8930,-0.014068,-0.018193,-0.243921,-0.017486,-0.014964,-0.243921,0.648032,-0.556782,-1.332766,-2.190688,1.237151,-12.044175
1790542203.9069,-0.018361,-0.027958,-0.264835,-0.018099,-0.024060,-0.264835,0.703882,0.376893,-1.332766,2.025391,0.939711,-8.900469
1790542203.9210,-0.017432,-0.036928,-0.272236,-0.017632,-0.033067,-0.272236,0.675957,0.204485,-0.752406,-2.573967,1.646131,-9.366203
1790542203.9356,-0.002141,-0.050441,-0.282818,-0.006788,-0.045229,-0.282818,0.867792,-0.808110,-1.075367,-2.152360,-0.026969,-10.996273
1790542203.9497,0.011040,-0.067827,-0.298094,0.005692,-0.061048,-0.298094,1.160400,-0.781399,-1.245347,-0.580912,-0.175689,-10.491728
1790542203.9633,0.026916,-0.072173,-0.314284,0.020548,-0.068836,-0.314284,0.397919,-0.935595,-1.459036,-1.462456,2.055111,-7.658511
1790542203.9770,0.031422,-0.077375,-0.335186,0.028160,-0.074813,-0.335186,0.312929,-0.364948,-1.250204,2.178703,0.419191,-10.336483
1790542203.9908,0.028552,-0.086058,-0.352031,0.028434,-0.082684,-0.352031,0.632248,0.246980,-1.081438,0.453943,1.162791,-8.201867
1790542204.0046,0.019679,-0.086958,-0.366103,0.022305,-0.085676,-0.366103,-0.002748,0.732636,-1.018303,-0.465928,0.196111,-16.740329
1790542204.0183,0.010412,-0.078777,-0.375815,0.013980,-0.080847,-0.375815,-0.726377,0.863764,-0.938169,-2.573967,-1.439808,-13.635434
1790542204.0321,0.010924,-0.070476,-0.383349,0.011841,-0.073588,-0.383349,-0.828365,0.239695,-0.883533,-3.647151,-3.001368,-10.336483
1790542204.0460,0.000919,-0.053893,-0.388903,0.004196,-0.059802,-0.388903,-1.213248,1.004604,-0.899317,-1.232488,0.307651,-3.855014
1790542204.0598,-0.007715,-0.035599,-0.402576,-0.004142,-0.042860,-0.402576,-1.419652,0.803057,-0.839824,-0.389272,-0.101329,-3.660958
1790542204.0737,-0.014558,-0.017701,-0.417944,-0.011433,-0.025249,-0.417944,-1.458505,0.828554,-0.875034,-1.999048,-0.993649,-5.756762
1790542204.0875,-0.025488,-0.004054,-0.430386,-0.021272,-0.010412,-0.430386,-1.099119,1.085952,-0.842252,-2.918919,-0.770569,-12.936833
1790542204.1013,-0.017213,0.000910,-0.430115,-0.018431,-0.002487,-0.430115,-0.444696,-0.259318,-0.663773,-4.682006,-0.175689,-12.277042
1790542204.1151,-0.008670,-0.007869,-0.443366,-0.011598,-0.006254,-0.443366,0.461054,-0.610205,0.110849,-1.194160,-1.997508,-17.400119
1790542204.1290,-0.005854,-0.012863,-0.453516,-0.007577,-0.010881,-0.453516,0.285003,-0.360091,0.431383,1.028863,0.382011,-7.969000
1790542204.1429,-0.002848,-0.027826,-0.432306,-0.004267,-0.022742,-0.432306,1.077838,-0.192540,0.547941,-1.232488,1.051251,-7.774944
1790542204.1584,-0.012735,-0.041174,-0.426873,-0.010195,-0.035644,-0.426873,0.900574,0.565085,0.388888,0.530599,1.683311,-8.357112
1790542204.1726,-0.023618,-0.054743,-0.418841,-0.019591,-0.049014,-0.418841,0.975850,0.726566,0.419241,0.185647,1.832031,-11.656063
1790542204.1869,-0.045741,-0.066109,-0.415297,-0.037896,-0.060980,-0.415297,0.859293,1.405271,0.622003,2.140375,2.612811,-10.879840
1790542204.2005,-0.060877,-0.070643,-0.390291,-0.053983,-0.067744,-0.390291,0.403989,1.121162,0.781056,-0.580912,2.687171,-10.414105
1790542204.2142,-0.068438,-0.075281,-0.371700,-0.064101,-0.073020,-0.371700,0.309286,0.554158,0.851476,-0.465928,1.125611,-9.599070
1790542204.2281,-0.074849,-0.077626,-0.355352,-0.071625,-0.076244,-0.355352,0.145377,0.433957,0.774985,0.070663,0.976891,-7.386832
1790542204.2421,-0.073941,-0.083955,-0.336848,-0.073246,-0.081642,-0.336848,0.453769,-0.062627,0.681496,-0.235960,1.869211,-11.733686
1790542204.2559,-0.063498,-0.083473,-0.328698,-0.066422,-0.082924,-0.328698,-0.076811,-0.856676,0.692423,1.910407,1.460231,-14.528091
1790542204.2699,-0.052871,-0.068875,-0.338951,-0.056936,-0.073090,-0.338951,-1.123401,-1.001158,0.710636,3.213558,0.605091,-9.676693
1790542204.2838,-0.047588,-0.059994,-0.376968,-0.050393,-0.063923,-0.376968,-0.863575,-0.743760,0.755559,4.363398,-1.774428,-8.124245
1790542204.2977,-0.033896,-0.045960,-0.382821,-0.038845,-0.051349,-0.382821,-1.162254,-1.190565,0.510302,1.948735,-0.696209,-7.580888
1790542204.3116,-0.019952,-0.026932,-0.387983,-0.025620,-0.034257,-0.387983,-1.437864,-1.282839,0.358534,2.370342,0.233291,-5.912007
1790542204.3255,-0.002565,-0.011226,-0.388654,-0.009481,-0.018135,-0.388654,-1.123401,-1.450391,0.351249,1.488799,1.162791,-6.688231
1790542204.3395,0.004464,0.000522,-0.387397,0.000281,-0.005075,-0.387397,-0.788298,-0.752259,0.319682,2.561982,2.129471,-8.007811
1790542204.3534,-0.021567,-0.012749,-0.387951,-0.015013,-0.010447,-0.387951,0.821654,1.716091,-0.121052,5.743205,-1.253909,-15.964105
1790542204.3674,-0.015543,-0.021753,-0.343790,-0.015384,-0.018361,-0.343790,0.719666,0.005365,-0.946668,-6.445094,3.393591,-13.402567
1790542204.3814,-0.014093,-0.029577,-0.356547,-0.014480,-0.026212,-0.356547,0.578826,0.066072,-1.064440,-0.159304,1.199971,-8.434735
1790542204.3953,-0.016476,-0.038104,-0.375044,-0.015877,-0.034537,-0.375044,0.686884,0.123137,-0.527789,1.143847,1.311511,-5.446273
1790542204.4092,-0.010742,-0.052913,-0.376296,-0.012282,-0.047400,-0.376296,1.023202,-0.289671,-0.560571,-1.002520,0.456371,-12.859210
1790542204.4230,0.006319,-0.071510,-0.372748,0.000738,-0.064277,-0.372748,1.399586,-1.021799,-0.834967,-2.420655,1.906391,-10.841028
1790542204.4372,0.023803,-0.081409,-0.378122,0.016883,-0.076269,-0.378122,0.890860,-1.092219,-0.916315,-1.002520,3.579491,-7.580888
1790542204.4513,0.034783,-0.090270,-0.393018,0.029413,-0.086070,-0.393018,0.644390,-0.751045,-0.941812,0.223975,1.014071,-7.153965
1790542204.4652,0.030522,-0.097157,-0.403427,0.030189,-0.093831,-0.403427,0.590967,0.355038,-0.737836,-0.235960,2.687171,-9.754315
1790542204.4792,0.003941,-0.086843,-0.421523,0.011815,-0.088939,-0.421523,-0.823508,1.904284,-0.861678,1.527127,-0.733389,-18.098721
1790542204.4931,-0.000186,-0.073045,-0.423061,0.003415,-0.077813,-0.423061,-1.161040,0.580869,-0.834967,-4.911974,-2.741108,-13.635434
1790542204.5070,0.000081,-0.061251,-0.432775,0.001081,-0.066220,-0.432775,-1.105189,0.288260,-0.752406,-3.148887,-2.778288,-7.231588
1790542204.5209,-0.011578,-0.037065,-0.416942,-0.007780,-0.045811,-0.416942,-1.643054,1.247433,-0.556929,-2.343999,1.088431,-3.699769
1790542204.5349,-0.023036,-0.016757,-0.440746,-0.018459,-0.025473,-0.440746,-1.571420,1.241362,-0.774260,-2.497311,-0.435949,-4.475993
1790542204.5487,-0.035625,-0.001800,-0.453540,-0.030475,-0.008902,-0.453540,-1.165896,1.280214,-0.758476,-2.420655,-0.250049,-6.377742
1790542204.5627,-0.024712,-0.006306,-0.472749,-0.026441,-0.007085,-0.472749,0.184230,-0.638130,-0.522933,-2.152360,-1.625708,-21.203616
1790542204.5767,-0.017952,-0.013550,-0.474161,-0.020499,-0.011611,-0.474161,0.546044,-0.628417,0.302684,1.718767,2.315371,-10.258860
1790542204.5907,-0.023718,-0.018976,-0.487227,-0.022752,-0.016766,-0.487227,0.356638,0.124351,0.739775,3.328542,1.460231,-10.763406
1790542204.6046,-0.015845,-0.031873,-0.461958,-0.017917,-0.027341,-0.461958,0.936998,-0.531286,0.584365,-1.424128,1.311511,-8.318301
1790542204.6185,-0.026295,-0.050407,-0.471093,-0.023782,-0.043488,-0.471093,1.293956,0.574798,0.523658,1.642111,0.642271,-8.085434
1790542204.6327,-0.046613,-0.064009,-0.471906,-0.039764,-0.057853,-0.471906,0.964923,1.279000,0.625646,2.063719,1.534591,-10.375294
1790542204.6468,-0.068761,-0.075505,-0.453895,-0.060062,-0.070209,-0.453895,0.872648,1.472049,0.887900,0.837223,2.017931,-7.774944
1790542204.6606,-0.081672,-0.080794,-0.415485,-0.075189,-0.077618,-0.415485,0.453769,1.015532,0.900042,-1.347472,2.426911,-8.551168
1790542204.6744,-0.088263,-0.083024,-0.387614,-0.084341,-0.081403,-0.387614,0.156304,0.516519,0.966820,-0.925864,1.794851,-9.482637
1790542204.6890,-0.074023,-0.087770,-0.385783,-0.077118,-0.085860,-0.385783,0.112595,-0.919811,0.850262,-1.960720,-1.811608,-12.121798
1790542204.7031,-0.065794,-0.087147,-0.386209,-0.069191,-0.086761,-0.386209,-0.160587,-0.710979,0.794411,1.987063,-0.064149,-12.315854
1790542204.7172,-0.060336,-0.088033,-0.400181,-0.062993,-0.087651,-0.400181,-0.103522,-0.615061,0.850262,3.136902,-0.919289,-10.258860
1790542204.7312,-0.056067,-0.087901,-0.406445,-0.058145,-0.087826,-0.406445,-0.158158,-0.534928,0.964391,2.561982,-0.547489,-8.628791
1790542204.7451,-0.049357,-0.082779,-0.411928,-0.051993,-0.084293,-0.411928,-0.528472,-0.806896,0.943751,3.865134,-0.882109,-8.046623
1790542204.7590,-0.035783,-0.069412,-0.408249,-0.040646,-0.073877,-0.408249,-1.100333,-1.088577,0.693638,0.952207,-0.696209,-9.715504
1790542204.7731,-0.035569,-0.049465,-0.413058,-0.037092,-0.056789,-0.413058,-1.555636,-0.272673,0.435025,4.133430,-0.993649,-10.530539
1790542204.7870,-0.022534,-0.026737,-0.414971,-0.026902,-0.035752,-0.414971,-1.782681,-1.082506,0.175199,2.370342,-1.142369,-11.500819
1790542204.8009,-0.012370,-0.004591,-0.410869,-0.016730,-0.013940,-0.410869,-1.683121,-1.044868,0.053785,2.945262,0.010211,-5.252217
1790542204.8148,-0.024105,-0.000436,-0.416554,-0.021892,-0.004487,-0.416554,-0.403415,0.784845,-0.046989,1.833751,-0.175689,-12.587532
1790542204.8287,-0.039758,-0.013100,-0.410001,-0.034398,-0.010516,-0.410001,0.872648,1.323924,-0.556929,-1.654096,0.939711,-18.137532
1790542204.8426,-0.017703,-0.017960,-0.390838,-0.022711,-0.015727,-0.390838,0.644390,-1.337476,-1.278129,-0.619240,5.698751,-8.434735
1790542204.8567,-0.031606,-0.024609,-0.419761,-0.028937,-0.021944,-0.419761,0.544830,0.787273,-0.510791,4.018446,1.869211,-7.348021
1790542204.8708,-0.024952,-0.036530,-0.392245,-0.026147,-0.032154,-0.392245,0.858079,-0.187683,-0.533860,-2.957247,1.162791,-9.599070
1790542204.8847,-0.005501,-0.054346,-0.402507,-0.011695,-0.047688,-0.402507,1.334022,-1.365401,-0.657703,0.607255,1.980751,-10.685784
1790542204.8982,0.005566,-0.064444,-0.411257,0.000388,-0.059418,-0.411257,0.934569,-0.746189,-0.872606,0.108991,2.575631,-6.067252
1790542204.9120,0.016026,-0.068083,-0.421899,0.011334,-0.065483,-0.421899,0.436771,-0.708550,-0.844680,0.223975,2.724351,-6.494175
1790542204.9260,0.030065,-0.074576,-0.435711,0.024446,-0.071848,-0.435711,0.428272,-0.956235,-0.899317,0.185647,0.493551,-7.658511
1790542204.9403,0.030101,-0.081885,-0.444191,0.028404,-0.078874,-0.444191,0.683242,0.040575,-0.686842,-0.005993,3.430771,-7.658511
1790542204.9545,0.005946,-0.067455,-0.459945,0.012683,-0.070881,-0.459945,-1.050553,1.722162,-0.724480,1.757095,1.460231,-19.069001
1790542204.9686,-0.000232,-0.047421,-0.432475,0.003643,-0.054459,-0.432475,-1.545923,0.817626,-0.630991,-6.330110,-1.551348,-11.306763
1790542204.9825,-0.000453,-0.030248,-0.428888,0.000775,-0.037511,-0.428888,-1.471860,0.557800,-0.662559,-5.448566,-2.294948,-4.631238
1790542204.9964,-0.021788,-0.011760,-0.459867,-0.015019,-0.019485,-0.459867,-1.530139,1.491475,-0.304387,0.568927,-0.733389,-3.660958
1790542205.0105,-0.031060,0.001261,-0.448384,-0.026248,-0.004963,-0.448384,-0.999559,0.998534,-0.561785,-2.880591,-0.064149,-8.085434
1790542205.0243,-0.011268,-0.007198,-0.454112,-0.015762,-0.006527,-0.454112,0.485337,-1.315621,-0.467082,-1.424128,-0.919289,-15.770049
1790542205.0381,-0.011506,-0.002011,-0.472939,-0.012783,-0.003366,-0.472939,-0.199439,-0.273887,0.376746,4.861661,6.107730,-11.384385
1790542205.0520,-0.009457,-0.004671,-0.472776,-0.010455,-0.004280,-0.472776,0.088312,-0.294528,0.581936,0.952207,0.047391,-12.082986
1790542205.0658,-0.002772,-0.011750,-0.479006,-0.005077,-0.009509,-0.479006,0.492622,-0.815395,0.844191,2.485326,1.088431,-8.240679
1790542205.0797,-0.005299,-0.023378,-0.476748,-0.005233,-0.019217,-0.476748,0.790087,-0.004348,0.751916,1.028863,0.642271,-8.706413
1790542205.0935,-0.021260,-0.033922,-0.477312,-0.016452,-0.029510,-0.477312,0.751234,0.913544,0.938894,2.715294,1.534591,-12.432287
1790542205.1073,-0.030323,-0.042861,-0.457452,-0.026162,-0.038856,-0.457452,0.648032,0.590582,1.005672,-0.542584,1.608951,-9.909560
1790542205.1209,-0.042022,-0.046562,-0.440146,-0.037264,-0.044250,-0.440146,0.294717,0.731422,1.203577,0.262303,1.869211,-8.473546
1790542205.1344,-0.043992,-0.044971,-0.408412,-0.041973,-0.044755,-0.408412,-0.063455,0.118281,1.158654,-1.155832,2.724351,-9.366203
1790542205.1485,-0.039189,-0.042537,-0.384240,-0.040024,-0.043202,-0.384240,-0.172728,-0.434154,1.175652,-0.389272,1.794851,-8.589979
1790542205.1624,-0.041382,-0.040374,-0.370937,-0.040974,-0.041222,-0.370937,-0.190940,-0.005562,1.110088,0.875551,1.497411,-10.646972
1790542205.1763,-0.041560,-0.040654,-0.357769,-0.041384,-0.040824,-0.357769,-0.013675,-0.114835,0.964391,0.568927,1.497411,-11.035084
1790542205.1905,-0.033640,-0.041771,-0.349375,-0.035964,-0.041487,-0.349375,-0.040387,-0.696409,0.827193,1.067191,-0.250049,-13.053266
1790542205.2045,-0.021264,-0.033964,-0.347532,-0.025674,-0.036221,-0.347532,-0.652314,-1.024227,0.510302,1.680439,0.047391,-13.596623
1790542205.2185,-0.014177,-0.023063,-0.354123,-0.017626,-0.027011,-0.354123,-0.895143,-0.785041,0.464165,3.558510,-0.398769,-10.025993
1790542205.2323,-0.003006,-0.011636,-0.360012,-0.007392,-0.016248,-0.360012,-0.936423,-1.026655,0.141203,2.255358,-0.250049,-7.270399
1790542205.2463,-0.001466,-0.007579,-0.358351,-0.003244,-0.010180,-0.358351,-0.404629,-0.109978,-0.107696,0.377287,-0.398769,-12.781588
1790542205.2602,-0.007225,-0.013810,-0.363596,-0.006031,-0.012721,-0.363596,0.447699,0.610008,-0.833753,-1.079176,1.906391,-13.014455
1790542205.2739,0.000339,-0.018349,-0.367975,-0.001572,-0.016661,-0.367975,0.388206,-0.249605,-1.343693,-1.922392,2.910251,-12.121798
1790542205.2878,-0.006941,-0.017994,-0.406489,-0.005330,-0.017594,-0.406489,0.031248,0.336826,-1.364333,4.478381,1.423051,-5.407462
1790542205.3017,-0.004340,-0.024300,-0.411789,-0.004637,-0.022288,-0.411789,0.458626,-0.031059,-0.764547,-0.542584,1.162791,-8.046623
1790542205.3155,0.001595,-0.037735,-0.408545,-0.000274,-0.033101,-0.408545,0.900574,-0.203467,-0.926028,-1.845736,0.084571,-11.888930
1790542205.3295,0.014306,-0.053012,-0.422265,0.009932,-0.047039,-0.422265,1.198038,-0.748617,-1.196782,-0.427600,2.464091,-7.891378
1790542205.3431,0.023683,-0.058098,-0.449643,0.019558,-0.054780,-0.449643,0.476838,-0.638130,-1.415327,0.952207,2.315371,-7.076343
1790542205.3567,0.033138,-0.061753,-0.472605,0.029064,-0.059661,-0.472605,0.249793,-0.686696,-1.185854,1.297159,1.125611,-9.133336
1790542205.3706,0.035320,-0.070265,-0.492544,0.033443,-0.067084,-0.492544,0.509620,-0.174328,-1.144574,1.987063,-0.064149,-10.918651
1790542205.3846,0.028746,-0.075310,-0.513194,0.030155,-0.072842,-0.513194,0.359066,0.457026,-0.892032,1.603783,1.646131,-12.393476
1790542205.3985,0.016162,-0.074493,-0.526985,0.020360,-0.073998,-0.526985,-0.081667,0.957253,-0.787616,0.492271,1.832031,-21.281238
1790542205.4123,0.008612,-0.062527,-0.507930,0.012137,-0.065968,-0.507930,-1.015343,0.782416,-0.760905,-2.803935,-1.365448,-11.345574
1790542205.4264,0.010046,-0.048383,-0.462795,0.010673,-0.053659,-0.462795,-1.283668,0.265192,-0.725695,-2.420655,-1.960328,-4.980539
1790542205.4408,0.003732,-0.031892,-0.453504,0.005814,-0.038422,-0.453504,-1.394155,0.769061,-0.515648,-2.114032,-1.551348,-4.320748
1790542205.4547,-0.002417,-0.019256,-0.458055,0.000053,-0.025006,-0.458055,-1.165896,0.748420,-0.495008,-2.573967,-2.146228,-5.989630
1790542205.4687,-0.015511,-0.006771,-0.460165,-0.010842,-0.012242,-0.460165,-0.975276,1.105378,-0.492579,-0.925864,0.121751,-8.900469
1790542205.4825,-0.007303,-0.014410,-0.448395,-0.008365,-0.013760,-0.448395,0.485337,-0.330952,-0.423373,-4.452038,0.307651,-14.489280
1790542205.4964,-0.006778,-0.018898,-0.454322,-0.007254,-0.017356,-0.454322,0.338426,-0.190112,0.442310,1.795423,2.575631,-14.178791
1790542205.5103,-0.003183,-0.021631,-0.434018,-0.004404,-0.020349,-0.434018,0.320214,-0.279958,0.740989,-1.117504,2.984611,-8.124245
1790542205.5242,0.003984,-0.026544,-0.460552,0.001467,-0.024686,-0.460552,0.496264,-0.900385,1.000816,1.757095,1.980751,-4.786483
1790542205.5383,-0.001465,-0.031256,-0.480810,-0.000585,-0.029285,-0.480810,0.395490,0.066072,0.727634,2.868606,1.943571,-8.007811
1790542205.5524,-0.014895,-0.038652,-0.480277,-0.010602,-0.035842,-0.480277,0.453769,0.818840,0.605005,1.220503,0.196111,-11.888930
1790542205.5666,-0.028332,-0.047563,-0.480393,-0.023013,-0.044047,-0.480393,0.691741,0.792129,0.717920,1.258831,2.129471,-8.551168
1790542205.5803,-0.041885,-0.049589,-0.472793,-0.036223,-0.047926,-0.472793,0.263149,0.854051,0.917040,0.875551,3.282051,-8.978091
1790542205.5938,-0.042112,-0.052695,-0.448937,-0.040345,-0.051264,-0.448937,0.254650,0.011436,0.965605,-1.002520,1.906391,-8.512357
1790542205.6078,-0.047453,-0.056867,-0.435633,-0.045321,-0.055186,-0.435633,0.266791,0.295545,0.914611,0.262303,1.051251,-8.822846
1790542205.6217,-0.053553,-0.062895,-0.424177,-0.051083,-0.060582,-0.424177,0.414917,0.353824,0.845405,0.530599,1.497411,-10.724595
1790542205.6355,-0.041314,-0.062775,-0.412523,-0.044245,-0.062117,-0.412523,0.004537,-0.979304,0.790769,0.837223,2.947431,-15.110259
1790542205.6494,-0.035011,-0.052975,-0.416016,-0.037781,-0.055718,-0.416016,-0.793155,-0.689124,0.641429,3.366870,0.084571,-11.423196
1790542205.6639,-0.030948,-0.041706,-0.416065,-0.032998,-0.045910,-0.416065,-0.931567,-0.500932,0.554011,3.251886,-1.439808,-11.073895
1790542205.6792,-0.019243,-0.023829,-0.423872,-0.023369,-0.030453,-0.423872,-1.270313,-1.075221,0.302684,3.980118,-0.361589,-7.619700
1790542205.6939,-0.013166,-0.008725,-0.426893,-0.016227,-0.015243,-0.426893,-1.113688,-0.760758,0.155773,3.596838,-0.175689,-5.407462
1790542205.7081,-0.002888,0.006587,-0.437359,-0.006890,0.000038,-0.437359,-1.054195,-0.933167,0.118134,1.795423,1.274331,-6.067252
1790542205.7234,-0.013663,0.005054,-0.443915,-0.011631,0.003549,-0.443915,0.040961,0.682857,-0.267963,3.251886,1.162791,-20.582637
1790542205.7373,-0.024973,-0.002351,-0.455931,-0.020970,-0.000581,-0.455931,0.593396,1.032530,-0.928456,-0.619240,2.575631,-10.879840
1790542205.7511,-0.014860,-0.010457,-0.450541,-0.016693,-0.007494,-0.450541,0.599466,-0.328524,-1.442038,-2.612295,1.534591,-10.181238
1790542205.7651,-0.019694,-0.015110,-0.477553,-0.018794,-0.012825,-0.477553,0.595824,0.344111,-0.757262,0.875551,2.352551,-3.660958
1790542205.7790,-0.017612,-0.025824,-0.469985,-0.017967,-0.021925,-0.469985,0.767018,0.090355,-0.643133,-1.462456,0.902531,-6.921098
1790542205.7929,-0.003828,-0.041758,-0.471113,-0.008070,-0.035808,-0.471113,1.144616,-0.789898,-0.898103,-1.730752,1.274331,-12.044175
1790542205.8066,0.009740,-0.052152,-0.487179,0.004397,-0.047249,-0.487179,0.833796,-0.851819,-1.102079,-0.312616,2.055111,-8.434735
1790542205.8203,0.018357,-0.054895,-0.513499,0.014169,-0.052601,-0.513499,0.264363,-0.629631,-1.176141,1.565455,2.017931,-8.434735
1790542205.8342,0.022391,-0.056917,-0.538269,0.019925,-0.055622,-0.538269,0.201228,-0.294528,-1.092365,1.335487,1.757671,-7.425644
1790542205.8481,0.024990,-0.062640,-0.554531,0.023470,-0.060535,-0.554531,0.380921,-0.120905,-1.053513,0.453943,0.902531,-9.715504
1790542205.8621,0.021380,-0.062301,-0.565376,0.022007,-0.061771,-0.565376,0.003322,0.412103,-0.843466,-1.922392,2.798711,-14.993826
1790542205.8759,0.002228,-0.044967,-0.579667,0.008162,-0.050008,-0.579667,-1.220533,1.474477,-0.714767,-0.235960,3.096151,-16.779140
1790542205.8899,0.003419,-0.028254,-0.546494,0.004842,-0.034780,-0.546494,-1.312808,0.271262,-0.525361,-5.371910,-0.435949,-10.841028
1790542205.9037,-0.004732,-0.015151,-0.512558,-0.001860,-0.021040,-0.512558,-1.152541,1.038600,-0.473153,-2.880591,-1.068009,-4.087881
1790542205.9176,-0.019078,-0.003271,-0.506967,-0.013912,-0.008601,-0.506967,-0.944922,1.326352,-0.286175,-1.194160,0.010211,-3.272846
1790542205.9318,-0.022120,0.001421,-0.504695,-0.019658,-0.001586,-0.504695,-0.392488,0.421816,-0.346882,-1.807408,0.344831,-8.163056
1790542205.9464,-0.007832,-0.015505,-0.498874,-0.011380,-0.011329,-0.498874,1.133689,-0.993874,0.144845,-0.389272,1.980751,-16.817952
1790542205.9604,-0.022334,-0.019828,-0.500578,-0.019048,-0.017278,-0.500578,0.221868,0.804271,0.876973,2.408670,0.196111,-12.432287
1790542205.9744,-0.017461,-0.023195,-0.478040,-0.017937,-0.021420,-0.478040,0.214583,-0.439011,1.142870,-1.347472,1.720491,-12.432287
1790542205.9884,-0.009535,-0.027659,-0.463750,-0.012056,-0.025787,-0.463750,0.299573,-0.673340,0.834478,-0.159304,1.014071,-8.124245
1790542206.0024,-0.021210,-0.033702,-0.490130,-0.018464,-0.031328,-0.490130,0.418559,0.429101,0.845405,4.861661,1.125611,-9.288581
1790542206.0164,-0.038065,-0.045993,-0.483888,-0.032184,-0.041593,-0.483888,0.810727,0.987606,1.066379,2.140375,0.642271,-12.121798
1790542206.0301,-0.045677,-0.057596,-0.462352,-0.041629,-0.052795,-0.462352,0.836224,0.505592,1.206006,-0.619240,1.274331,-7.852567
1790542206.0436,-0.061949,-0.060527,-0.447591,-0.055853,-0.058208,-0.447591,0.282575,1.064097,1.362630,0.568927,3.133331,-9.521448
1790542206.0572,-0.061860,-0.065735,-0.420667,-0.060058,-0.063477,-0.420667,0.390634,-0.005562,1.351703,-1.922392,3.021791,-11.850119
1790542206.0711,-0.054423,-0.064728,-0.401585,-0.056113,-0.064353,-0.401585,-0.234649,-0.653914,1.264284,0.453943,-0.547489,-13.713056
1790542206.0849,-0.048612,-0.062122,-0.389366,-0.050863,-0.062791,-0.389366,-0.364563,-0.507003,0.863617,0.492271,-1.476988,-13.713056
1790542206.0988,-0.047941,-0.058912,-0.400803,-0.048817,-0.060076,-0.400803,-0.454409,-0.407443,0.951036,5.206613,-2.480848,-10.608161
1790542206.1127,-0.039603,-0.050649,-0.398525,-0.042367,-0.053477,-0.398525,-0.771300,-0.878530,0.886686,2.332014,-0.919289,-7.076343
1790542206.1267,-0.033659,-0.043267,-0.396749,-0.036271,-0.046330,-0.396749,-0.768872,-0.933167,0.949822,3.635166,-1.476988,-4.087881
1790542206.1405,-0.026027,-0.031934,-0.389057,-0.029100,-0.036253,-0.389057,-0.890286,-0.769257,0.927967,1.143847,0.419191,-6.804665
1790542206.1545,-0.016136,-0.018579,-0.380947,-0.020026,-0.023881,-0.380947,-1.012914,-0.834821,0.569795,0.722239,0.605091,-8.822846
1790542206.1684,-0.009859,-0.007230,-0.377854,-0.012909,-0.012225,-0.377854,-0.907284,-0.545855,0.166700,1.565455,0.158931,-13.945924
1790542206.1825,-0.016676,-0.014932,-0.385471,-0.015546,-0.014120,-0.385471,0.484123,0.595438,-0.730551,0.645583,0.567911,-17.710609
1790542206.1970,-0.015580,-0.022953,-0.392779,-0.015570,-0.020303,-0.392779,0.552115,0.155919,-1.119077,-1.232488,1.720491,-14.605714
1790542206.2111,-0.017867,-0.024676,-0.420143,-0.017178,-0.023364,-0.420143,0.361494,0.134064,-0.630991,1.067191,2.798711,-4.864105
1790542206.2250,-0.019927,-0.036917,-0.417504,-0.019102,-0.032851,-0.417504,0.867792,0.276119,-0.402733,-0.657568,0.790991,-7.542077
1790542206.2389,-0.004712,-0.052607,-0.396153,-0.009029,-0.046680,-0.396153,1.091194,-0.761973,-0.844680,-3.493839,0.493551,-9.715504
1790542206.2529,0.002895,-0.064009,-0.422232,-0.000682,-0.058810,-0.422232,0.856864,-0.504574,-1.218636,1.565455,1.980751,-12.238231
1790542206.2665,0.010703,-0.073781,-0.444580,0.007288,-0.069290,-0.444580,0.736664,-0.516716,-1.214994,0.798895,1.423051,-10.608161
1790542206.2801,0.022805,-0.073784,-0.475056,0.018150,-0.072436,-0.475056,0.323856,-0.910098,-1.097222,0.683911,2.798711,-3.583336
1790542206.2941,0.038334,-0.085638,-0.485161,0.032279,-0.081677,-0.485161,0.792515,-1.047296,-0.910244,-0.159304,0.233291,-7.580888
1790542206.3079,0.028856,-0.091867,-0.501560,0.029883,-0.088810,-0.501560,0.549686,0.767847,-0.821612,-0.810880,3.579491,-12.238231
1790542206.3218,0.006129,-0.071999,-0.520604,0.013255,-0.077043,-0.520604,-1.368658,1.667526,-0.797329,0.875551,3.616671,-16.585084
1790542206.3357,0.006417,-0.054766,-0.492587,0.008468,-0.061449,-0.492587,-1.405082,0.352610,-0.968523,-5.218598,-1.774428,-11.345574
1790542206.3495,0.003796,-0.038708,-0.460130,0.005198,-0.045531,-0.460130,-1.534996,0.605151,-0.837396,-2.573967,-2.778288,-4.281937
1790542206.3633,-0.011332,-0.018344,-0.461800,-0.006373,-0.026500,-0.461800,-1.672194,1.302069,-0.576355,-1.079176,-1.216729,-6.261308
1790542206.3774,-0.020665,-0.002714,-0.457720,-0.016378,-0.009849,-0.457720,-1.187751,1.032530,-0.661345,-2.880591,0.010211,-6.998721
1790542206.3912,-0.038201,0.009995,-0.463421,-0.031654,0.004041,-0.463421,-0.801654,1.478120,-0.564214,-0.772552,2.166651,-6.377742
1790542206.4051,-0.021109,0.002926,-0.462350,-0.024273,0.003261,-0.462350,0.505977,-1.043653,-0.620064,-2.305671,2.501271,-17.555364
1790542206.4190,-0.016613,-0.001226,-0.477531,-0.018911,0.000120,-0.477531,0.322642,-0.532500,0.258975,2.868606,2.352551,-10.802217
1790542206.4330,-0.018219,-0.008710,-0.483717,-0.018427,-0.006061,-0.483717,0.533903,-0.150045,0.728848,2.178703,1.497411,-8.784035
1790542206.4474,-0.015895,-0.028182,-0.485140,-0.016655,-0.021546,-0.485140,1.216250,-0.420799,0.844191,1.910407,-0.733389,-8.628791
1790542206.4613,-0.026099,-0.041961,-0.504942,-0.023266,-0.035836,-0.504942,1.142188,0.438814,0.649928,2.446998,2.687171,-6.261308
1790542206.4751,-0.043025,-0.054923,-0.504286,-0.037097,-0.049197,-0.504286,1.008632,1.066525,0.807767,1.603783,2.761531,-10.336483
1790542206.4891,-0.060618,-0.066899,-0.502685,-0.053562,-0.061588,-0.502685,0.950353,1.059241,1.049381,1.987063,2.984611,-8.784035
1790542206.5027,-0.080050,-0.068767,-0.490725,-0.072103,-0.066613,-0.490725,0.286218,1.401629,1.004458,-0.159304,3.244871,-6.921098
1790542206.5162,-0.080681,-0.071261,-0.467147,-0.078108,-0.069867,-0.467147,0.142949,0.080642,1.119801,-1.500784,1.869211,-10.530539
1790542206.5301,-0.080601,-0.070959,-0.450791,-0.079853,-0.070632,-0.450791,-0.171514,-0.080839,0.938894,0.645583,-0.287229,-11.035084
1790542206.5444,-0.071353,-0.069627,-0.435472,-0.073903,-0.069928,-0.435472,-0.229793,-0.759544,0.961963,1.450471,-0.064149,-13.984735
1790542206.5584,-0.065643,-0.067290,-0.422132,-0.068121,-0.068081,-0.422132,-0.322068,-0.578637,1.029955,1.910407,-0.435949,-10.918651
1790542206.5724,-0.060098,-0.062929,-0.411515,-0.062505,-0.064475,-0.411515,-0.528472,-0.720692,1.175652,3.980118,-1.514168,-9.560259
1790542206.5864,-0.057634,-0.058546,-0.400588,-0.059095,-0.060325,-0.400588,-0.521187,-0.465722,1.014171,2.906934,-1.253909,-7.813756
1790542206.6003,-0.043857,-0.049111,-0.384861,-0.048429,-0.052475,-0.384861,-0.800440,-1.099504,0.796840,0.415615,-0.026969,-6.532986
1790542206.6141,-0.039988,-0.034400,-0.389199,-0.042520,-0.039823,-0.389199,-1.123401,-0.559211,0.551583,3.673494,0.530731,-9.521448
1790542206.6280,-0.025482,-0.015275,-0.392064,-0.030594,-0.022639,-0.392064,-1.437864,-1.248843,0.200696,3.060246,0.642271,-10.491728
1790542206.6419,-0.026661,-0.003438,-0.399229,-0.027841,-0.009198,-0.399229,-0.811367,-0.033487,0.167914,1.948735,2.649991,-11.384385
1790542206.6558,-0.035464,-0.007719,-0.388128,-0.033177,-0.008163,-0.388128,0.340854,0.968180,-0.734194,-2.727279,1.757671,-9.210958
1790542206.6698,-0.022171,-0.022124,-0.367125,-0.025473,-0.017935,-0.367125,1.174970,-0.449938,-1.097222,-4.911974,3.133331,-7.736133
1790542206.6837,-0.029160,-0.026467,-0.402382,-0.028054,-0.023908,-0.402382,0.657745,0.443671,-0.592139,1.948735,5.178231,-5.989630
1790542206.6981,-0.031436,-0.040732,-0.398346,-0.030421,-0.035684,-0.398346,0.949139,0.356252,-0.512006,-2.267343,0.419191,-12.626343
1790542206.7122,-0.010834,-0.055551,-0.399652,-0.016710,-0.049591,-0.399652,1.123976,-1.241559,-0.781545,-3.072231,2.761531,-13.208511
1790542206.7257,-0.003101,-0.071791,-0.417956,-0.007184,-0.065131,-0.417956,1.286671,-0.505789,-1.066868,0.530599,1.869211,-8.434735
1790542206.7393,0.010601,-0.075056,-0.438561,0.005265,-0.072079,-0.438561,0.505977,-0.884601,-1.132432,-0.389272,3.728211,-6.261308
1790542206.7535,0.019894,-0.077071,-0.457455,0.015506,-0.075573,-0.457455,0.201228,-0.669698,-0.995234,1.143847,1.646131,-7.658511
1790542206.7675,0.028407,-0.088483,-0.466798,0.024536,-0.084610,-0.466798,0.756091,-0.551926,-0.796115,-0.120976,0.233291,-13.014455
1790542206.7814,0.004662,-0.084793,-0.481030,0.010625,-0.084738,-0.481030,-0.249219,1.791368,-0.822826,-0.542584,2.873071,-21.281238
1790542206.7954,-0.004866,-0.068623,-0.489546,-0.000219,-0.073457,-0.489546,-1.188965,0.820055,-0.798543,-1.845736,0.828171,-18.331588
1790542206.8092,0.001114,-0.054665,-0.476324,0.000714,-0.060303,-0.476324,-1.140399,-0.007990,-0.736622,-4.873646,-1.030829,-7.192776
1790542206.8230,-0.002396,-0.035296,-0.476268,-0.001463,-0.042798,-0.476268,-1.607844,0.651289,-0.711125,-2.918919,-1.365448,-5.019350
1790542206.8369,-0.009452,-0.015299,-0.483623,-0.007056,-0.023549,-0.483623,-1.666123,0.794558,-0.621278,-1.615768,-1.328269,-4.864105
1790542206.8507,-0.018166,0.002485,-0.487012,-0.014833,-0.005325,-0.487012,-1.423294,0.964538,-0.592139,-2.842263,-0.696209,-7.658511
1790542206.8646,-0.026178,0.016671,-0.487092,-0.022774,0.010072,-0.487092,-1.006844,0.901402,-0.595781,-2.688951,1.423051,-8.240679
1790542206.8785,-0.015426,0.006459,-0.489910,-0.017630,0.007543,-0.489910,0.592181,-0.700051,-0.078557,-1.922392,-1.105189,-18.525644
1790542206.8923,-0.014287,-0.001355,-0.489743,-0.015290,0.001315,-0.489743,0.626177,-0.293314,0.547941,2.102047,2.947431,-10.336483
1790542206.9060,-0.011223,-0.008114,-0.473433,-0.012443,-0.005286,-0.473433,0.525404,-0.392873,1.034811,0.108991,2.241011,-9.405014
1790542206.9199,-0.004043,-0.017598,-0.453845,-0.006563,-0.013905,-0.453845,0.712381,-0.498504,0.730062,-1.002520,0.939711,-4.553616
1790542206.9340,-0.017234,-0.027757,-0.465466,-0.014033,-0.023601,-0.465466,0.695383,0.631863,0.711850,3.481854,0.976891,-9.249770
1790542206.9485,-0.032366,-0.039646,-0.460501,-0.026866,-0.034832,-0.460501,0.838652,0.896546,0.709421,1.527127,2.055111,-11.073895
1790542206.9622,-0.047846,-0.044901,-0.453098,-0.041552,-0.041881,-0.453098,0.444056,0.975465,0.802910,1.143847,2.129471,-7.774944
1790542206.9760,-0.054820,-0.047091,-0.437384,-0.050840,-0.045528,-0.437384,0.121094,0.465525,0.932824,-0.504256,1.274331,-9.948371
1790542206.9898,-0.058929,-0.049732,-0.423005,-0.056502,-0.048471,-0.423005,0.140521,0.231196,0.912183,-0.044320,0.865351,-7.503266
1790542207.0038,-0.063250,-0.050197,-0.411431,-0.061225,-0.049679,-0.411431,-0.019746,0.215412,0.851476,0.530599,1.014071,-9.172147
1790542207.0177,-0.050217,-0.050596,-0.395333,-0.053520,-0.050321,-0.395333,0.003322,-0.984161,0.801696,-0.465928,2.203831,-13.984735
1790542207.0317,-0.037271,-0.036154,-0.394164,-0.042145,-0.040404,-0.394164,-1.050553,-1.178423,0.658427,4.171758,2.129471,-13.169700
1790542207.0456,-0.034524,-0.022453,-0.407223,-0.036811,-0.027838,-0.407223,-1.124616,-0.571352,0.555225,6.586421,-0.956469,-11.578441
1790542207.0595,-0.016740,-0.006425,-0.402772,-0.022761,-0.012849,-0.402772,-1.163468,-1.406682,0.351249,0.607255,0.865351,-5.291028
1790542207.0735,0.001224,0.008784,-0.396699,-0.005972,0.002294,-0.396699,-0.946137,-1.454033,0.374318,0.683911,2.166651,-4.747672
1790542207.0874,-0.006713,0.010962,-0.403348,-0.006490,0.008362,-0.403348,-0.182441,0.177773,0.231049,3.635166,0.605091,-5.019350
1790542207.1012,-0.013130,0.000436,-0.398186,-0.011138,0.002813,-0.398186,0.867792,0.764204,-0.461012,-5.141942,5.029511,-13.829490
1790542207.1152,-0.005779,-0.003441,-0.403331,-0.007386,-0.001565,-0.403331,0.420987,-0.156116,-1.105721,-4.298727,5.029511,-12.160609
1790542207.1291,-0.007833,-0.011752,-0.422111,-0.007699,-0.008695,-0.422111,0.553329,0.430315,-1.423826,-0.964192,0.828171,-12.005364
1790542207.1430,-0.008245,-0.022260,-0.433344,-0.008081,-0.018191,-0.433344,0.887218,0.114638,-0.770618,0.377287,2.241011,-6.300119
1790542207.1569,0.004180,-0.031538,-0.437022,0.000502,-0.027534,-0.437022,0.637105,-0.652700,-0.688056,-2.573967,0.865351,-10.103616
1790542207.1709,0.022955,-0.046916,-0.448138,0.016219,-0.041101,-0.448138,1.045056,-1.229417,-0.933313,-0.312616,0.419191,-9.288581
1790542207.1845,0.029044,-0.055168,-0.464839,0.025196,-0.050948,-0.464839,0.674743,-0.403801,-1.142145,0.913879,2.315371,-8.395923
1790542207.1986,0.040947,-0.057646,-0.480251,0.036222,-0.055637,-0.480251,0.215797,-0.731619,-1.180998,-0.159304,2.166651,-8.784035
1790542207.2129,0.038942,-0.060571,-0.494598,0.038126,-0.059091,-0.494598,0.200014,0.134064,-0.838610,1.565455,1.943571,-12.471098
1790542207.2269,0.015703,-0.057122,-0.512380,0.022430,-0.057713,-0.512380,-0.331781,1.778013,-1.082652,-0.197632,0.419191,-17.477742
1790542207.2409,0.011434,-0.048678,-0.523407,0.014733,-0.051388,-0.523407,-0.726377,0.526232,-0.955167,-3.225543,-1.179549,-16.313406
1790542207.2548,0.003799,-0.039474,-0.534428,0.007079,-0.043048,-0.534428,-0.910926,0.753277,-0.821612,-1.385800,-2.406488,-8.357112
1790542207.2685,0.000860,-0.025985,-0.531427,0.002726,-0.031104,-0.531427,-1.112474,0.608794,-0.531432,-3.033903,-0.621849,-5.019350
1790542207.2823,-0.002504,-0.009568,-0.534771,-0.000935,-0.016029,-0.534771,-1.299452,0.654931,-0.657703,-3.762135,-0.398769,-6.610609
1790542207.2963,-0.010833,0.002070,-0.547375,-0.007864,-0.003360,-0.547375,-0.980133,0.777560,-0.519290,-1.117504,-0.659029,-8.240679
1790542207.3101,-0.006113,0.011619,-0.550379,-0.006638,0.007126,-0.550379,-0.800440,-0.082053,-0.480438,-2.957247,-0.212869,-10.025993
1790542207.3239,0.006879,0.008917,-0.560943,0.002824,0.008379,-0.560943,-0.001534,-0.995088,0.121777,0.147319,-2.257768,-15.770049
1790542207.3378,-0.000474,-0.001756,-0.568436,0.000515,0.001285,-0.568436,0.722095,0.165632,0.924325,3.788478,0.976891,-11.112707
1790542207.3516,-0.002863,-0.016792,-0.562024,-0.001850,-0.011369,-0.562024,1.117905,-0.119691,1.057880,1.833751,1.757671,-8.822846
1790542207.3656,-0.002518,-0.024346,-0.510076,-0.002318,-0.020453,-0.510076,0.875077,0.137707,0.595292,-1.960720,3.356411,-3.622147
1790542207.3798,-0.013134,-0.033305,-0.512795,-0.009889,-0.029449,-0.512795,0.571541,0.601509,0.494518,1.795423,0.530731,-12.277042
1790542207.3939,-0.030097,-0.047702,-0.510678,-0.024034,-0.042226,-0.510678,0.968565,1.129661,0.534585,0.798895,0.605091,-14.217602
1790542207.4079,-0.051631,-0.057641,-0.504573,-0.043352,-0.053016,-0.504573,0.745163,1.320281,0.974104,2.408670,2.092291,-9.249770
1790542207.4215,-0.065127,-0.063468,-0.484188,-0.058595,-0.060333,-0.484188,0.458626,1.002176,0.966820,-0.964192,2.166651,-9.405014
1790542207.4352,-0.068437,-0.072311,-0.465638,-0.065484,-0.068718,-0.465638,0.607965,0.243337,0.970462,-0.695896,1.088431,-8.279490
1790542207.4496,-0.071237,-0.078973,-0.450296,-0.069511,-0.075896,-0.450296,0.481694,0.121923,0.824765,0.607255,1.832031,-8.395923
1790542207.4637,-0.062353,-0.085024,-0.439850,-0.064500,-0.082285,-0.439850,0.317785,-0.703694,0.869688,0.875551,0.010211,-14.838581
1790542207.4777,-0.056494,-0.083094,-0.440659,-0.058896,-0.082851,-0.440659,-0.278358,-0.608991,0.755559,3.175230,-0.844929,-12.238231
1790542207.4915,-0.050154,-0.076804,-0.446702,-0.052776,-0.078618,-0.446702,-0.632888,-0.704908,0.710636,4.171758,-1.737248,-11.733686
1790542207.5055,-0.040945,-0.063041,-0.451663,-0.044495,-0.067714,-0.451663,-1.112474,-0.964734,0.639001,4.056774,-0.547489,-8.900469
1790542207.5194,-0.035192,-0.046105,-0.455571,-0.037983,-0.052588,-0.455571,-1.405082,-0.702480,0.455666,3.060246,-1.291089,-6.843476
1790542207.5333,-0.033399,-0.025899,-0.459995,-0.034774,-0.033905,-0.459995,-1.468218,-0.473007,0.388888,3.750150,0.828171,-6.494175
1790542207.5472,-0.019435,-0.004010,-0.460146,-0.024037,-0.012978,-0.460146,-1.673408,-1.182066,0.153344,2.293686,0.010211,-8.978091
1790542207.5612,-0.007761,0.017052,-0.461223,-0.012644,0.008043,-0.461223,-1.553208,-1.141999,0.222550,3.596838,0.790991,-7.813756
1790542207.5751,-0.018082,0.020394,-0.465730,-0.016450,0.016688,-0.465730,-0.285643,0.646432,0.063498,3.750150,2.315371,-21.281238
1790542207.5890,-0.023498,0.005947,-0.406679,-0.021384,0.009169,-0.406679,1.006204,0.946325,-0.565428,-6.905029,0.716631,-8.551168
1790542207.6029,-0.011136,-0.004755,-0.394048,-0.014210,-0.000578,-0.394048,0.989206,-0.241106,-1.054727,-8.668117,4.657711,-5.873196
1790542207.6168,-0.028348,-0.010152,-0.440422,-0.024107,-0.007280,-0.440422,0.623749,0.991249,-0.448870,3.865134,3.467951,-5.019350
1790542207.6306,-0.017202,-0.023942,-0.427769,-0.019273,-0.018943,-0.427769,0.962495,-0.425655,-0.485294,-4.605350,0.456371,-8.357112
1790542207.6441,-0.001675,-0.039861,-0.424704,-0.006954,-0.033586,-0.424704,1.216250,-0.918597,-0.525361,-2.842263,1.869211,-10.297672
1790542207.6576,0.007617,-0.048440,-0.434237,0.003246,-0.043984,-0.434237,0.814369,-0.617490,-0.802185,0.147319,2.278191,-5.213406
1790542207.6715,0.014476,-0.047406,-0.443572,0.011107,-0.046379,-0.443572,0.090741,-0.459651,-0.666202,0.453943,3.467951,-8.046623
1790542207.6853,0.023163,-0.051082,-0.451150,0.019546,-0.049671,-0.451150,0.289860,-0.572566,-0.624921,-0.044320,1.980751,-11.462007
1790542207.7000,0.031317,-0.053315,-0.458791,0.027786,-0.052222,-0.458791,0.337212,-0.447510,-0.656488,-1.040848,4.955151,-9.715504
1790542207.7142,0.009142,-0.049579,-0.470155,0.014735,-0.050372,-0.470155,-0.211581,1.510901,-0.435515,2.485326,3.058971,-13.169700
1790542207.7280,-0.007169,-0.037205,-0.474482,-0.000598,-0.041155,-0.474482,-0.866003,1.359134,-0.250965,-4.145415,3.207691,-17.982287
1790542207.7425,-0.013070,-0.023040,-0.485210,-0.009328,-0.028475,-0.485210,-1.124616,0.651289,-0.299531,-3.647151,-1.439808,-10.258860
1790542207.7580,-0.017586,-0.010677,-0.492802,-0.015109,-0.016017,-0.492802,-0.965563,0.514091,-0.067630,-2.650623,-1.216729,-6.610609
1790542207.7726,-0.023289,0.007749,-0.491224,-0.020835,0.000619,-0.491224,-1.284882,0.640362,-0.117409,-2.918919,0.939711,-7.580888
1790542207.7865,-0.014597,0.006704,-0.501094,-0.016468,0.004878,-0.501094,-0.124162,-0.492433,-0.125908,-3.148887,-2.555208,-15.925294
1790542207.8010,-0.011407,0.002959,-0.495305,-0.012926,0.003535,-0.495305,0.283789,-0.498504,0.709421,3.098574,2.612811,-10.879840
1790542207.8149,-0.019387,-0.005827,-0.486946,-0.017448,-0.003019,-0.486946,0.599466,0.471596,0.740989,-0.005993,0.976891,-8.007811
1790542207.8285,-0.021818,-0.022387,-0.480019,-0.020507,-0.016577,-0.480019,1.120333,0.136493,0.660856,-0.657568,0.121751,-9.133336
1790542207.8425,-0.036722,-0.041286,-0.480923,-0.031858,-0.033873,-0.480923,1.278172,0.839481,0.716706,2.370342,0.344831,-9.055714
1790542207.8565,-0.053143,-0.053904,-0.467041,-0.046757,-0.047895,-0.467041,0.943068,1.092022,0.859975,0.415615,2.166651,-9.482637
1790542207.8702,-0.072647,-0.062196,-0.449943,-0.064880,-0.057906,-0.449943,0.667458,1.306926,1.019028,0.683911,2.055111,-6.843476
1790542207.8838,-0.080704,-0.070524,-0.430088,-0.075957,-0.066738,-0.430088,0.593396,0.560228,1.100375,-0.427600,2.055111,-10.569350
1790542207.8974,-0.085197,-0.076082,-0.410998,-0.082425,-0.073279,-0.410998,0.414917,0.272477,1.032383,0.338959,2.687171,-11.539630
1790542207.9112,-0.073990,-0.083052,-0.400203,-0.076520,-0.080120,-0.400203,0.291074,-0.870031,1.114945,-0.005993,-1.662888,-15.226693
1790542207.9252,-0.066028,-0.082733,-0.391201,-0.069176,-0.081949,-0.391201,-0.172728,-0.670912,0.952250,1.182175,-0.584669,-12.898021
1790542207.9391,-0.064891,-0.084493,-0.397804,-0.066176,-0.083730,-0.397804,-0.178799,-0.389231,0.980175,4.555037,-3.521888,-9.560259
1790542207.9536,-0.062397,-0.081735,-0.395919,-0.063531,-0.082334,-0.395919,-0.413128,-0.510645,0.961963,4.363398,-1.811608,-7.813756
1790542207.9677,-0.053729,-0.067472,-0.389166,-0.056670,-0.071931,-0.389166,-1.106403,-0.842106,0.887900,2.332014,0.233291,-7.891378
1790542207.9817,-0.050495,-0.045145,-0.385201,-0.052347,-0.053181,-0.385201,-1.684335,-0.549498,0.706993,3.750150,0.196111,-7.813756
1790542207.9956,-0.048359,-0.018677,-0.380733,-0.049555,-0.029028,-0.380733,-2.018224,-0.494861,0.537013,3.635166,-0.101329,-6.765853
1790542208.0094,-0.040139,0.010373,-0.376683,-0.042964,-0.001448,-0.376683,-2.227057,-0.849391,0.386460,2.830278,-0.101329,-8.046623
1790542208.0234,-0.027352,0.037467,-0.368171,-0.032036,0.025792,-0.368171,-2.133568,-1.169924,0.218908,3.060246,-0.919289,-8.434735
1790542208.0372,-0.039124,0.037078,-0.368403,-0.036997,0.033692,-0.368403,-0.109593,0.728994,0.103564,5.014973,-0.696209,-21.281238
1790542208.0511,-0.024536,0.016325,-0.338201,-0.028274,0.021535,-0.338201,1.483362,-0.738904,-0.270391,-7.173325,2.947431,-17.089630
1790542208.0650,-0.042822,0.006560,-0.357755,-0.038458,0.011052,-0.357755,0.866578,1.373703,-0.658917,1.910407,4.546171,-10.841028
1790542208.0788,-0.047214,-0.001286,-0.368473,-0.044587,0.002416,-0.368473,0.531474,0.370822,-0.595781,1.182175,0.493551,-8.978091
1790542208.0926,-0.034783,-0.010238,-0.366399,-0.037725,-0.006442,-0.366399,0.658959,-0.727977,-0.544787,-1.347472,1.757671,-11.888930
1790542208.1061,-0.017469,-0.026630,-0.371965,-0.023546,-0.020574,-0.371965,1.300026,-1.197850,-0.561785,-0.005993,2.278191,-8.279490
1790542208.1197,-0.004360,-0.026984,-0.371416,-0.010116,-0.025061,-0.371416,0.410060,-0.786255,-0.748763,-0.849208,4.694891,-4.592427
1790542208.1336,-0.001558,-0.025728,-0.387043,-0.004125,-0.025528,-0.387043,0.078599,-0.209538,-0.697769,1.373815,3.393591,-7.580888
1790542208.1475,0.010381,-0.030944,-0.393464,0.006029,-0.029319,-0.393464,0.444056,-0.615061,-0.902959,-2.382327,2.835891,-10.646972
1790542208.1614,0.017916,-0.033970,-0.403087,0.014350,-0.032574,-0.403087,0.308072,-0.326095,-0.946668,-1.577440,2.761531,-8.745224
1790542208.1758,0.007556,-0.031516,-0.413167,0.009594,-0.031833,-0.413167,-0.012461,0.867406,-0.668630,-1.385800,5.921830,-13.053266
1790542208.1897,-0.001795,-0.024927,-0.416426,0.001622,-0.026999,-0.416426,-0.432555,0.908687,-0.433086,-3.915447,2.947431,-13.519000
1790542208.2042,-0.010957,-0.016213,-0.418444,-0.007183,-0.019449,-0.418444,-0.623175,0.818840,-0.252179,-2.842263,1.311511,-12.044175
1790542208.2184,-0.009820,-0.005908,-0.411847,-0.009029,-0.009970,-0.411847,-0.654743,0.348968,-0.209684,-5.218598,1.794851,-5.795574
1790542208.2325,-0.013357,0.006980,-0.413044,-0.012058,0.001895,-0.413044,-0.938852,0.554158,-0.112553,-2.957247,0.679451,-5.795574
1790542208.2464,-0.012755,0.008608,-0.416962,-0.012546,0.006594,-0.416962,-0.227364,0.121923,-0.028777,-2.229015,-0.101329,-8.628791
1790542208.2602,-0.009322,-0.002110,-0.417894,-0.010289,0.000501,-0.417894,0.708739,-0.502146,0.438668,3.021918,0.642271,-10.064805
1790542208.2740,-0.017211,-0.011173,-0.414339,-0.015134,-0.007671,-0.414339,0.559400,0.345325,0.796840,2.102047,0.121751,-11.306763
1790542208.2878,-0.019504,-0.021008,-0.404846,-0.018193,-0.017007,-0.404846,0.700240,0.121923,0.615932,-0.657568,1.646131,-11.772497
1790542208.3016,-0.029906,-0.036013,-0.401955,-0.026392,-0.030311,-0.401955,1.042628,0.633077,0.529728,1.182175,0.679451,-9.793126
1790542208.3153,-0.045794,-0.047855,-0.395659,-0.039973,-0.042592,-0.395659,0.896931,0.981536,0.635359,1.680439,1.683311,-7.774944
1790542208.3294,-0.061807,-0.056506,-0.382524,-0.055257,-0.052332,-0.382524,0.688099,1.068954,0.784698,0.415615,2.315371,-7.969000
1790542208.3429,-0.074439,-0.061759,-0.367918,-0.068684,-0.058931,-0.367918,0.439200,0.862550,0.884258,0.415615,2.649991,-9.521448
1790542208.3565,-0.079727,-0.068368,-0.354696,-0.076414,-0.065537,-0.354696,0.405204,0.310115,1.002030,0.568927,1.014071,-11.888930
1790542208.3705,-0.087196,-0.075043,-0.340952,-0.083961,-0.072191,-0.340952,0.424630,0.359895,1.032383,1.987063,1.274331,-8.939280
1790542208.3845,-0.071984,-0.084072,-0.326849,-0.075578,-0.080508,-0.326849,0.412488,-1.104361,1.101589,-0.925864,-2.109048,-14.605714
1790542208.3984,-0.056240,-0.080871,-0.316118,-0.062041,-0.080762,-0.316118,-0.309926,-1.280411,0.816266,2.178703,0.679451,-12.936833
1790542208.4123,-0.046228,-0.073380,-0.310429,-0.050972,-0.075595,-0.310429,-0.698452,-0.946522,0.764058,4.056774,-1.476988,-12.781588
1790542208.4264,-0.042599,-0.057801,-0.306009,-0.045111,-0.063139,-0.306009,-1.210820,-0.652700,0.634145,5.206613,-0.287229,-7.386832
1790542208.4402,-0.039838,-0.035827,-0.302699,-0.041420,-0.044021,-0.302699,-1.713474,-0.508217,0.441096,3.788478,-0.435949,-7.619700
1790542208.4544,-0.040769,-0.008720,-0.300392,-0.040964,-0.019310,-0.300392,-1.947804,-0.262960,0.396173,1.987063,0.344831,-3.544525
1790542208.4690,-0.028836,0.015946,-0.293410,-0.032474,0.005369,-0.293410,-1.811820,-0.991445,0.273544,1.872079,-0.101329,-8.124245
1790542208.4829,-0.014140,0.031444,-0.288025,-0.019641,0.023621,-0.288025,-1.272741,-1.246415,0.029502,3.098574,-0.696209,-10.685784
1790542208.4969,-0.037682,0.013360,-0.293981,-0.032269,0.016439,-0.293981,1.201681,1.395558,0.067140,8.924427,-0.175689,-14.450469
1790542208.5108,-0.027643,0.000265,-0.298375,-0.029031,0.005117,-0.298375,1.047485,-0.395302,-0.943026,-3.800463,4.508991,-14.217602
1790542208.5247,-0.029268,0.003176,-0.319819,-0.029197,0.003758,-0.319819,0.122308,0.250622,-0.899317,0.492271,6.182090,-7.503266
1790542208.5385,-0.049356,-0.000575,-0.333714,-0.043308,0.000725,-0.333714,0.315357,1.402843,-0.538717,1.488799,0.828171,-4.398371
1790542208.5524,-0.046537,-0.009946,-0.329559,-0.045568,-0.006744,-0.329559,0.697812,0.152276,-0.671058,-4.222071,1.646131,-10.996273
1790542208.5659,-0.038300,-0.023751,-0.336735,-0.040481,-0.018649,-0.336735,1.040200,-0.440225,-0.775474,-0.657568,1.497411,-11.772497
1790542208.5796,-0.032314,-0.027224,-0.351220,-0.034764,-0.024651,-0.351220,0.416131,-0.282386,-0.882319,-0.235960,2.910251,-7.891378
1790542208.5936,-0.024859,-0.026870,-0.363031,-0.027830,-0.026204,-0.363031,0.059173,-0.420799,-0.773046,0.070663,2.166651,-8.667602
1790542208.6074,-0.014251,-0.027795,-0.371110,-0.018325,-0.027318,-0.371110,0.081028,-0.618704,-0.756048,-0.810880,1.608951,-11.384385
1790542208.6213,-0.005909,-0.029074,-0.380761,-0.009634,-0.028547,-0.380761,0.156304,-0.424441,-0.758476,-1.309144,2.538451,-10.724595
1790542208.6352,0.000502,-0.023436,-0.390346,-0.002539,-0.024969,-0.390346,-0.125377,-0.205895,-0.776689,-2.190688,5.066691,-6.882287
1790542208.6492,-0.014215,-0.019594,-0.402302,-0.010712,-0.021207,-0.402302,-0.126591,1.151515,-0.575141,0.108991,3.244871,-7.969000
1790542208.6630,-0.023261,-0.011841,-0.409929,-0.019496,-0.014651,-0.409929,-0.493262,0.815198,-0.351739,-1.807408,2.984611,-11.850119
1790542208.6768,-0.024226,0.000764,-0.411149,-0.022807,-0.003861,-0.411149,-0.914569,0.311329,-0.108910,-2.995575,1.311511,-8.240679
1790542208.6908,-0.030205,0.007504,-0.410440,-0.027985,0.004095,-0.410440,-0.521187,0.517733,0.156987,-1.309144,1.014071,-8.745224
1790542208.7046,-0.030217,0.005042,-0.403395,-0.029547,0.004758,-0.403395,0.102882,0.121923,0.464165,-3.263871,0.679451,-10.375294
1790542208.7192,-0.032917,0.000610,-0.393499,-0.031906,0.001854,-0.393499,0.230367,0.017507,0.700922,1.182175,0.716631,-9.793126
1790542208.7331,-0.035854,-0.012543,-0.379267,-0.034669,-0.008224,-0.379267,0.731808,0.029648,1.021456,0.607255,-1.402628,-9.521448
1790542208.7471,-0.039473,-0.024721,-0.366609,-0.038032,-0.019772,-0.366609,0.779159,0.255479,0.852690,-1.500784,0.344831,-9.327392
1790542208.7613,-0.050304,-0.036691,-0.355749,-0.046622,-0.031615,-0.355749,0.794943,0.653717,0.873331,0.377287,0.865351,-8.163056
1790542208.7753,-0.064794,-0.049450,-0.343029,-0.059342,-0.044100,-0.343029,0.866578,0.891689,1.032383,1.105519,1.348691,-10.491728
1790542208.7892,-0.081102,-0.062347,-0.326921,-0.074574,-0.056873,-0.326921,0.865363,1.039814,1.243644,0.645583,1.199971,-8.357112
1790542208.8108,-0.099088,-0.081164,-0.302005,-0.091734,-0.073876,-0.302005,0.771874,0.782416,1.180509,-0.465928,0.902531,-11.151518
1790542208.8248,-0.090223,-0.087661,-0.286652,-0.090676,-0.083526,-0.286652,0.357852,-0.647843,0.994745,-0.274288,0.865351,-12.898021
1790542208.8388,-0.078223,-0.087132,-0.276006,-0.081959,-0.086050,-0.276006,-0.169086,-0.873674,0.743417,0.032335,-0.324409,-13.363756
1790542208.8527,-0.073321,-0.088354,-0.266483,-0.075912,-0.087663,-0.266483,-0.156944,-0.610205,0.835692,4.976645,-2.964188,-12.005364
1790542208.8666,-0.065210,-0.084136,-0.253802,-0.068421,-0.085194,-0.253802,-0.490833,-0.882173,1.005672,4.401726,-1.216729,-9.870749
1790542208.8805,-0.064945,-0.074764,-0.237711,-0.065987,-0.077893,-0.237711,-0.795583,-0.452366,1.144084,5.244941,-0.064149,-7.076343
1790542208.8944,-0.055928,-0.057278,-0.227616,-0.058946,-0.063463,-0.227616,-1.365016,-0.866389,0.747060,1.833751,0.047391,-6.300119
1790542208.9083,-0.052858,-0.035690,-0.220712,-0.054684,-0.044022,-0.220712,-1.622414,-0.542213,0.584365,2.791950,0.344831,-5.523895
1790542208.9223,-0.046725,-0.012413,-0.212140,-0.049113,-0.021896,-0.212140,-1.806963,-0.661199,0.393744,2.600310,-0.361589,-8.124245
1790542208.9362,-0.031278,0.011492,-0.201362,-0.036629,0.001476,-0.201362,-1.889525,-1.335048,0.290542,2.446998,-0.659029,-8.085434
1790542208.9501,-0.033276,0.031050,-0.203071,-0.034282,0.022178,-0.203071,-1.464575,-0.085695,0.129061,3.635166,0.902531,-9.366203
1790542208.9643,-0.038520,0.011194,-0.187961,-0.037249,0.014489,-0.187961,1.455436,0.807913,-0.434300,-7.096669,3.021791,-11.112707
1790542208.9788,-0.035385,0.009489,-0.210995,-0.035944,0.010989,-0.210995,0.592181,-0.009204,-0.635848,-1.194160,6.962870,-3.971448
1790542208.9928,-0.046025,0.003281,-0.222554,-0.043000,0.005593,-0.222554,0.684456,0.616079,-0.165975,2.868606,4.360271,-6.727042
1790542209.0069,-0.044138,-0.004146,-0.217476,-0.043797,-0.001224,-0.217476,0.484123,0.174131,-0.293460,-3.838791,0.567911,-9.249770
1790542209.0205,-0.027942,-0.025612,-0.212814,-0.032698,-0.018296,-0.212814,1.461507,-0.987803,-0.320171,-2.957247,-0.733389,-12.121798
1790542209.0342,-0.016620,-0.039126,-0.221846,-0.021444,-0.032877,-0.221846,1.225964,-0.788684,-0.458583,0.223975,2.835891,-5.135783
1790542209.0478,-0.015244,-0.039335,-0.230984,-0.017104,-0.037398,-0.230984,0.176945,-0.145188,-0.484080,1.603783,3.244871,-8.124245
1790542209.0618,-0.003147,-0.045649,-0.236217,-0.007334,-0.043173,-0.236217,0.434343,-0.735261,-0.508363,-1.309144,0.939711,-10.996273
1790542209.0758,0.008419,-0.050662,-0.245591,0.003693,-0.048416,-0.245591,0.448913,-0.670912,-0.630991,-1.424128,2.464091,-8.978091
1790542209.0896,-0.006506,-0.049937,-0.253095,-0.003446,-0.049481,-0.253095,0.017892,1.022816,-0.457369,2.945262,3.393591,-14.178791
1790542209.1034,-0.019775,-0.035522,-0.260281,-0.014876,-0.039709,-0.260281,-0.992274,1.124804,-0.259464,-3.263871,3.430771,-16.817952
1790542209.1173,-0.026273,-0.018206,-0.265867,-0.022854,-0.024657,-0.265867,-1.254529,0.764204,-0.294674,-4.758662,1.348691,-11.462007
1790542209.1311,-0.029218,-0.009499,-0.265557,-0.027309,-0.014047,-0.265557,-0.759159,0.622149,-0.186615,-4.145415,-0.696209,-5.717951
1790542209.1450,-0.034959,0.005094,-0.269197,-0.032664,-0.000648,-0.269197,-1.029912,0.697426,-0.216969,-1.960720,0.902531,-4.941727
1790542209.1589,-0.043533,0.014268,-0.273778,-0.040273,0.009793,-0.273778,-0.691167,0.759348,-0.108910,-0.849208,0.679451,-5.950818
1790542209.1729,-0.045100,0.014636,-0.276531,-0.043652,0.013183,-0.276531,-0.067098,0.340469,-0.096769,-3.915447,1.237151,-12.548721
1790542209.1868,-0.033027,0.005652,-0.270689,-0.036214,0.007911,-0.270689,0.510834,-0.905241,0.564938,-1.615768,-0.064149,-16.856763
1790542209.2008,-0.033795,-0.001393,-0.258022,-0.034521,0.001398,-0.258022,0.405204,-0.080839,1.088234,-0.504256,0.679451,-11.112707
1790542209.2145,-0.033448,-0.008125,-0.243079,-0.033770,-0.005268,-0.243079,0.452555,-0.141546,1.040882,-0.427600,1.274331,-8.124245
1790542209.2290,-0.040796,-0.021952,-0.234643,-0.038688,-0.016947,-0.234643,0.895717,0.427887,0.751916,-0.082648,0.716631,-8.007811
1790542209.2431,-0.057293,-0.034757,-0.225101,-0.051712,-0.029414,-0.225101,0.926070,0.958467,0.657213,2.446998,1.683311,-8.357112
1790542209.2568,-0.075722,-0.043587,-0.212973,-0.068519,-0.039335,-0.212973,0.677171,1.225578,0.802910,1.067191,1.980751,-8.163056
1790542209.2704,-0.088246,-0.052038,-0.197642,-0.082328,-0.048227,-0.197642,0.610394,0.869834,1.005672,-0.159304,2.203831,-10.103616
1790542209.2843,-0.095095,-0.056258,-0.179267,-0.091265,-0.053849,-0.179267,0.297145,0.517733,1.071236,-1.194160,2.092291,-8.240679
1790542209.2983,-0.085365,-0.061534,-0.170394,-0.087135,-0.059228,-0.170394,0.139306,-0.679411,1.089448,-2.114032,-1.588528,-14.334035
1790542209.3122,-0.073844,-0.057825,-0.155453,-0.077831,-0.058246,-0.155453,-0.364563,-0.978090,1.006886,2.025391,1.311511,-14.566903
1790542209.3262,-0.065686,-0.055636,-0.151452,-0.069329,-0.056419,-0.151452,-0.456837,-0.717049,0.965605,1.067191,-3.001368,-11.112707
1790542209.3399,-0.062288,-0.049580,-0.142931,-0.064400,-0.051632,-0.142931,-0.640173,-0.543427,0.930395,3.826806,-1.216729,-9.909560
1790542209.3537,-0.056450,-0.037625,-0.134978,-0.058835,-0.041827,-0.134978,-1.012914,-0.679411,0.760415,2.600310,-0.250049,-8.124245
1790542209.3675,-0.054436,-0.018833,-0.127662,-0.055756,-0.025731,-0.127662,-1.465789,-0.431726,0.608648,3.405198,0.233291,-8.512357
1790542209.3813,-0.046535,-0.000526,-0.123297,-0.049301,-0.008088,-0.123297,-1.487644,-0.789898,0.380389,3.021918,-0.696209,-10.220049
1790542209.3952,-0.040164,0.016504,-0.119738,-0.042905,0.009127,-0.119738,-1.293381,-0.714621,0.262617,3.596838,0.828171,-9.172147
1790542209.4091,-0.054960,0.016733,-0.118720,-0.051343,0.014451,-0.118720,-0.176371,0.929327,0.258975,3.443526,-1.253909,-15.149070
1790542209.4229,-0.051491,0.006801,-0.110359,-0.051447,0.009096,-0.110359,0.700240,0.100068,-0.595781,-5.065286,1.162791,-13.984735
1790542209.4369,-0.048592,0.005752,-0.108915,-0.049449,0.006755,-0.108915,0.271648,0.115852,-0.849537,-2.535639,4.248731,-9.327392
1790542209.4509,-0.063285,-0.004927,-0.124260,-0.059134,-0.001422,-0.124260,0.756091,0.988820,-0.530218,2.178703,0.530731,-6.300119
1790542209.4650,-0.047984,-0.010814,-0.106999,-0.051329,-0.007996,-0.106999,0.504763,-0.548283,-0.717196,-4.298727,1.199971,-4.670049
1790542209.4800,-0.034695,-0.021798,-0.114393,-0.039685,-0.017657,-0.114393,0.751234,-0.707336,-0.747549,-0.849208,0.976891,-7.930189
1790542209.4939,-0.025672,-0.032619,-0.123389,-0.029876,-0.028130,-0.123389,0.810727,-0.513073,-0.819183,-0.159304,1.683311,-10.724595
1790542209.5076,-0.005676,-0.034280,-0.128332,-0.012936,-0.032435,-0.128332,0.221868,-1.285268,-0.913887,-0.810880,2.241011,-8.007811
1790542209.5216,-0.000320,-0.039482,-0.142675,-0.004105,-0.037368,-0.142675,0.377278,-0.335809,-0.928456,1.182175,1.385871,-10.336483
1790542209.5355,0.006150,-0.042859,-0.142413,0.003073,-0.041212,-0.142413,0.374850,-0.256889,-0.539931,-3.493839,4.694891,-13.208511
1790542209.5493,-0.010074,-0.037093,-0.155045,-0.006130,-0.038329,-0.155045,-0.426484,1.323924,-0.769404,-1.155832,1.869211,-17.167252
1790542209.5632,-0.020661,-0.021267,-0.160377,-0.016301,-0.026385,-0.160377,-1.063908,1.007033,-0.558143,-3.110559,3.021791,-12.005364
1790542209.5772,-0.023299,-0.006940,-0.180700,-0.021200,-0.012774,-0.180700,-1.144042,0.576012,-0.532646,-2.918919,-0.398769,-5.329839
1790542209.5910,-0.025627,0.004473,-0.197832,-0.024299,-0.000701,-0.197832,-0.982561,0.618507,-0.267963,-4.068759,-0.807749,-4.825294
1790542209.6049,-0.036496,0.015494,-0.201777,-0.032837,0.010635,-0.201777,-0.799225,0.914758,-0.207256,-0.427600,0.642271,-4.243126
1790542209.6187,-0.033538,0.012522,-0.205354,-0.033327,0.011956,-0.205354,0.140521,-0.004348,-0.152619,-3.072231,0.493551,-11.035084
1790542209.6324,-0.026782,0.008679,-0.193842,-0.028745,0.009662,-0.193842,0.306858,-0.585922,0.465379,0.568927,4.062831,-16.740329
1790542209.6462,-0.027485,0.001402,-0.180865,-0.027863,0.003880,-0.180865,0.514476,-0.133047,0.912183,0.990535,2.575631,-13.635434
1790542209.6602,-0.025828,-0.003182,-0.158365,-0.026438,-0.001063,-0.158365,0.339640,-0.273887,1.208434,-0.427600,1.943571,-8.473546
1790542209.6739,-0.027010,-0.017708,-0.157116,-0.026839,-0.012715,-0.157116,0.882361,-0.012847,1.020242,-0.580912,-0.510309,-7.231588
1790542209.6877,-0.042221,-0.030820,-0.152824,-0.037607,-0.025388,-0.152824,0.865363,0.854051,1.079735,1.527127,0.382011,-7.037532
1790542209.7016,-0.060364,-0.041393,-0.139124,-0.053536,-0.036592,-0.139124,0.709953,1.183083,1.125872,0.377287,1.199971,-9.870749
1790542209.7151,-0.071870,-0.047664,-0.112192,-0.066370,-0.044342,-0.112192,0.470767,0.883190,1.197507,-1.654096,1.869211,-8.279490
1790542209.7290,-0.076532,-0.049981,-0.089718,-0.073483,-0.048289,-0.089718,0.121094,0.364751,1.142870,-2.037376,1.720491,-10.414105
1790542209.7430,-0.078207,-0.051558,-0.076230,-0.076790,-0.050577,-0.076230,0.005751,0.100068,1.051809,-0.849208,0.679451,-9.521448
1790542209.7571,-0.075578,-0.051612,-0.062839,-0.075942,-0.051301,-0.062839,-0.082882,-0.244748,0.944965,-0.082648,0.828171,-8.784035
1790542209.7712,-0.063969,-0.050195,-0.054372,-0.067561,-0.050527,-0.054372,-0.229793,-0.885815,0.896399,-0.274288,0.344831,-12.587532
1790542209.7851,-0.054229,-0.046220,-0.053866,-0.058229,-0.047512,-0.053866,-0.414342,-0.863960,0.704565,2.293686,0.010211,-12.859210
1790542209.7991,-0.046930,-0.038880,-0.063925,-0.050320,-0.041469,-0.063925,-0.714235,-0.775328,0.602577,4.171758,-1.365448,-12.432287
1790542209.8130,-0.039202,-0.023541,-0.066290,-0.042537,-0.028920,-0.066290,-1.185323,-0.944094,0.303898,5.206613,0.233291,-7.348021
1790542209.8280,-0.025005,-0.004370,-0.069749,-0.030265,-0.011735,-0.069749,-1.334662,-1.086148,0.091423,1.220503,0.419191,-5.329839
1790542209.8426,-0.010054,0.009168,-0.076662,-0.016117,0.002897,-0.076662,-1.029912,-1.212419,0.004005,1.373815,0.047391,-4.514804
1790542209.8571,-0.022516,-0.001491,-0.094246,-0.020597,-0.000174,-0.094246,0.549686,0.828554,-0.327456,3.213558,-2.889828,-17.438931
1790542209.8718,-0.025075,-0.012423,-0.056899,-0.023731,-0.008748,-0.056899,0.957638,0.680428,-1.068083,-5.640206,4.062831,-8.512357
1790542209.8868,-0.016640,-0.018644,-0.089435,-0.018768,-0.015675,-0.089435,0.362709,-0.482720,-1.456608,2.676966,0.196111,-10.879840
1790542209.9006,-0.029799,-0.021669,-0.106700,-0.026489,-0.019871,-0.106700,0.304430,0.801843,-0.824040,4.516709,2.278191,-8.163056
1790542209.9145,-0.021778,-0.029238,-0.097944,-0.023192,-0.026428,-0.097944,0.555757,-0.231392,-0.589711,-4.068759,1.014071,-9.210958
1790542209.9286,-0.011801,-0.042636,-0.102872,-0.015218,-0.037773,-0.102872,0.958852,-0.492433,-0.796115,-2.152360,1.311511,-11.850119
1790542209.9421,0.001468,-0.047814,-0.098010,-0.003538,-0.044802,-0.098010,0.564256,-0.741332,-1.030444,-1.462456,2.835891,-7.076343
1790542209.9558,0.007046,-0.048767,-0.103871,0.003871,-0.047577,-0.103871,0.186658,-0.327310,-0.996448,0.415615,2.612811,-8.318301
1790542209.9700,0.010228,-0.048943,-0.117092,0.008321,-0.048533,-0.117092,0.004537,-0.124548,-0.933313,0.032335,1.051251,-8.861658
1790542209.9844,0.010844,-0.049394,-0.121203,0.010087,-0.049136,-0.121203,0.087098,0.028434,-0.594567,-0.159304,2.724351,-12.354665
1790542209.9986,-0.002344,-0.043389,-0.153287,0.001385,-0.045113,-0.153287,-0.655957,1.022816,-0.726909,-0.120976,-4.005228,-16.313406
1790542210.0126,-0.004377,-0.031227,-0.162417,-0.002648,-0.035393,-0.162417,-0.953421,0.363537,-0.576355,-2.727279,-0.101329,-11.617252
1790542210.0265,-0.014287,-0.018671,-0.180851,-0.010796,-0.023687,-0.180851,-1.099119,0.964538,-0.555715,-1.769080,-1.253909,-6.144874
1790542210.0404,-0.018746,-0.005372,-0.179478,-0.016361,-0.010867,-0.179478,-1.031127,0.710782,-0.536288,-2.688951,-0.064149,-5.174595
1790542210.0543,-0.027321,0.003609,-0.190669,-0.024033,-0.000734,-0.190669,-0.757945,0.879548,-0.487723,-2.382327,-0.398769,-8.861658
1790542210.0682,-0.026290,0.014278,-0.180393,-0.025613,0.009774,-0.180393,-0.716664,0.163204,-0.291032,-2.305671,1.906391,-8.318301
1790542210.0820,-0.016587,0.008496,-0.157344,-0.019295,0.008879,-0.157344,0.502335,-0.588350,0.313611,-3.723807,4.174371,-13.596623
1790542210.0959,-0.023796,-0.004206,-0.156160,-0.022446,-0.000280,-0.156160,0.899359,0.117066,1.138014,4.670021,2.389731,-11.966553
1790542210.1098,-0.025595,-0.021667,-0.150759,-0.024650,-0.015251,-0.150759,1.138545,-0.216823,1.468260,2.063719,0.270471,-9.870749
1790542210.1237,-0.028428,-0.034864,-0.131654,-0.027295,-0.028980,-0.131654,1.032915,0.024792,0.908541,0.875551,2.017931,-6.688231
1790542210.1376,-0.040210,-0.042802,-0.125658,-0.036336,-0.038656,-0.125658,0.600680,0.650075,0.646286,2.370342,2.017931,-9.599070
1790542210.1515,-0.058174,-0.057168,-0.122265,-0.051622,-0.051614,-0.122265,0.979493,1.160014,0.720349,2.217030,1.125611,-15.110259
1790542210.1654,-0.074725,-0.066454,-0.094871,-0.067794,-0.062002,-0.094871,0.798586,1.028887,1.106446,1.642111,3.951291,-9.094525
1790542210.1790,-0.081130,-0.070378,-0.071018,-0.077129,-0.067865,-0.071018,0.305644,0.573584,0.998387,-1.960720,1.832031,-7.969000
1790542210.1926,-0.085235,-0.074729,-0.050232,-0.082803,-0.072670,-0.050232,0.321428,0.229982,1.021456,0.415615,1.608951,-7.503266
1790542210.2065,-0.088421,-0.076344,-0.026862,-0.086736,-0.075242,-0.026862,0.202442,0.187487,0.812623,0.453943,3.765391,-11.190329
1790542210.2204,-0.072844,-0.082401,-0.026452,-0.077012,-0.080253,-0.026452,0.236438,-1.114074,0.846619,-0.925864,-1.253909,-12.936833
1790542210.2347,-0.066850,-0.078094,-0.020014,-0.069899,-0.078742,-0.020014,-0.365777,-0.566496,0.671783,2.983590,0.939711,-13.751868
1790542210.2488,-0.060263,-0.072115,-0.033248,-0.063154,-0.074103,-0.033248,-0.646244,-0.683053,0.657213,3.328542,-1.923148,-10.491728
1790542210.2628,-0.041125,-0.060024,-0.037060,-0.047734,-0.064248,-0.037060,-1.006844,-1.574234,0.558868,2.140375,-0.473129,-7.619700
1790542210.2766,-0.034141,-0.046869,-0.045548,-0.038219,-0.052083,-0.045548,-1.119759,-0.683053,0.390102,1.488799,-0.696209,-6.300119
1790542210.2904,-0.029209,-0.031368,-0.054913,-0.031912,-0.037583,-0.054913,-1.307951,-0.571352,0.379175,2.063719,-0.993649,-7.153965
1790542210.3044,-0.016787,-0.016854,-0.058482,-0.021324,-0.023073,-0.058482,-1.131900,-1.058223,0.243191,2.600310,0.196111,-12.044175
1790542210.3182,-0.010167,-0.003025,-0.067431,-0.013514,-0.009039,-0.067431,-1.134329,-0.690338,0.035573,3.596838,-0.621849,-10.608161
1790542210.3320,-0.023702,0.001322,-0.080957,-0.020646,-0.001786,-0.080957,-0.375490,0.940255,-0.333527,3.711822,1.125611,-18.719700
1790542210.3458,-0.033968,-0.003117,-0.086219,-0.029971,-0.002718,-0.086219,0.365137,1.059241,-1.018303,-2.727279,2.501271,-14.489280
1790542210.3597,-0.017976,-0.010839,-0.069650,-0.021575,-0.008402,-0.069650,0.689313,-0.732833,-1.045014,-3.532167,2.501271,-7.813756
1790542210.3737,-0.026406,-0.024290,-0.085579,-0.024956,-0.019524,-0.085579,0.867792,0.653717,-0.533860,0.492271,-0.175689,-6.610609
1790542210.3877,-0.011315,-0.038224,-0.071128,-0.015407,-0.032614,-0.071128,1.055984,-0.738904,-0.629777,-3.838791,1.608951,-8.551168
1790542210.4013,0.007719,-0.049782,-0.064790,0.000781,-0.044632,-0.064790,0.947925,-1.114074,-0.859250,-3.225543,2.649991,-10.064805
1790542210.4149,0.020609,-0.059020,-0.066985,0.014660,-0.054704,-0.066985,0.814369,-0.755902,-1.199210,-0.964192,2.761531,-7.930189
1790542210.4285,0.033983,-0.060696,-0.070176,0.028186,-0.058898,-0.070176,0.254650,-0.893100,-1.032872,-0.082648,2.724351,-7.542077
1790542210.4423,0.037826,-0.068370,-0.087957,0.034934,-0.065528,-0.087957,0.475624,-0.230178,-0.935741,0.377287,0.344831,-10.724595
1790542210.4562,0.025243,-0.072678,-0.104432,0.028150,-0.070533,-0.104432,0.235224,0.945111,-0.726909,0.530599,0.270471,-15.420749
1790542210.4702,0.003575,-0.058377,-0.106533,0.010948,-0.062024,-0.106533,-0.987417,1.729447,-0.467082,-3.762135,2.724351,-16.468651
1790542210.4846,-0.000177,-0.041314,-0.124645,0.003160,-0.047527,-0.124645,-1.317664,0.642790,-0.627349,-7.556605,-1.551348,-12.082986
1790542210.4985,-0.006883,-0.026151,-0.133295,-0.003870,-0.032564,-0.133295,-1.153755,0.799414,-0.598210,-2.114032,0.084571,-5.213406
1790542210.5125,-0.018263,-0.007793,-0.144523,-0.013945,-0.015224,-0.144523,-1.346804,1.015532,-0.654060,-0.772552,0.493551,-5.640329
1790542210.5264,-0.021940,0.001384,-0.165208,-0.019541,-0.003598,-0.165208,-0.850219,0.583297,-0.473153,-3.263871,-1.365448,-7.736133
1790542210.5404,-0.006405,-0.006031,-0.174100,-0.010346,-0.005301,-0.174100,0.406418,-0.914954,-0.408803,-4.107087,-0.807749,-16.934385
1790542210.5544,0.000396,-0.013300,-0.167194,-0.002826,-0.010900,-0.167194,0.572755,-0.737690,0.628074,2.791950,2.873071,-11.190329
1790542210.5683,-0.002337,-0.025446,-0.155661,-0.002484,-0.021082,-0.155661,0.900574,-0.090552,1.118587,2.408670,2.315371,-11.617252
1790542210.5823,-0.003531,-0.045459,-0.147426,-0.003217,-0.038146,-0.147426,1.323095,-0.045629,1.185365,-0.389272,-0.324409,-8.279490
1790542210.5961,-0.017037,-0.057369,-0.130985,-0.012891,-0.051602,-0.130985,0.973422,0.787273,0.859975,1.143847,1.794851,-5.912007
1790542210.6100,-0.039039,-0.067370,-0.117539,-0.031195,-0.062640,-0.117539,0.763375,1.440481,0.941323,1.450471,2.017931,-10.142427
1790542210.6239,-0.060836,-0.077077,-0.102253,-0.051943,-0.072746,-0.102253,0.683242,1.501188,1.012957,0.262303,1.051251,-8.201867
1790542210.6375,-0.073712,-0.084602,-0.079378,-0.067182,-0.081045,-0.079378,0.575183,0.949968,0.982603,-0.465928,1.646131,-8.279490
1790542210.6511,-0.078519,-0.089761,-0.056193,-0.075118,-0.087146,-0.056193,0.388206,0.364751,0.985032,-0.734224,2.389731,-12.432287
1790542210.6651,-0.067977,-0.095062,-0.041609,-0.070119,-0.092687,-0.041609,0.297145,-0.757116,0.926753,-0.580912,0.605091,-12.199420
1790542210.6789,-0.059779,-0.095510,-0.036374,-0.062881,-0.094663,-0.036374,-0.112021,-0.659985,0.921896,0.607255,-0.547489,-10.841028
1790542210.6928,-0.056193,-0.102604,-0.047243,-0.058200,-0.100222,-0.047243,0.234009,-0.470578,1.099161,2.868606,-2.815468,-10.763406
1790542210.7066,-0.043788,-0.105782,-0.052480,-0.048111,-0.104114,-0.052480,-0.036744,-1.098290,1.158654,2.370342,-2.518028,-9.676693
1790542210.7205,-0.031068,-0.101100,-0.051771,-0.036181,-0.102004,-0.051771,-0.488405,-1.226989,1.094304,3.903462,-0.956469,-8.900469
1790542210.7346,-0.020623,-0.086001,-0.052001,-0.025291,-0.090802,-0.052001,-1.147684,-1.003587,0.639001,4.018446,-0.175689,-10.220049
1790542210.7488,-0.012886,-0.064195,-0.055122,-0.016607,-0.072177,-0.055122,-1.628484,-0.838463,0.335466,4.363398,-0.510309,-8.939280
1790542210.7628,-0.009097,-0.037999,-0.060096,-0.011350,-0.048252,-0.060096,-1.961159,-0.526429,0.137560,3.175230,-0.138509,-7.542077
1790542210.7769,0.001148,-0.009250,-0.064075,-0.002601,-0.020951,-0.064075,-2.184562,-0.941666,0.097494,1.948735,-0.510309,-6.106063
1790542210.7909,0.012373,0.021637,-0.067438,0.007880,0.008861,-0.067438,-2.291406,-0.925882,0.051356,0.952207,0.270471,-6.377742
1790542210.8048,-0.015457,0.014187,-0.076033,-0.008456,0.012589,-0.076033,0.315357,1.883643,-0.433086,7.774588,-4.153948,-18.409210
1790542210.8189,-0.024665,0.011825,-0.064005,-0.019802,0.012054,-0.064005,0.389420,0.990035,-0.934527,-2.650623,6.516710,-11.811308
1790542210.8328,-0.041588,0.012246,-0.073580,-0.035052,0.012189,-0.073580,0.149020,1.169728,-0.527789,3.213558,4.620531,-9.560259
1790542210.8468,-0.036312,-0.000895,-0.066681,-0.035934,0.003030,-0.066681,0.872648,-0.103907,-0.592139,-2.305671,0.010211,-9.560259
1790542210.8604,-0.018236,-0.022497,-0.070542,-0.023545,-0.014839,-0.070542,1.479719,-1.190565,-0.649204,-0.427600,-0.361589,-6.649420
1790542210.8739,-0.012237,-0.036034,-0.089352,-0.015629,-0.029676,-0.089352,1.045056,-0.590778,-0.752406,2.102047,0.939711,-4.980539
1790542210.8875,0.003139,-0.037400,-0.080845,-0.002491,-0.035083,-0.080845,0.361494,-0.970805,-0.770618,-0.657568,3.542311,-5.756762
1790542210.9014,0.016080,-0.040849,-0.088616,0.010508,-0.039119,-0.088616,0.294717,-0.816609,-0.822826,-0.427600,2.241011,-10.336483
1790542210.9153,0.029995,-0.047801,-0.094150,0.024149,-0.045196,-0.094150,0.525404,-0.855461,-0.799757,-1.347472,2.166651,-11.500819
