t,imu_roll,imu_pitch,imu_yaw,lpf_roll,lpf_pitch,lpf_yaw,gyro_x,gyro_y,gyro_z,acc_x,acc_y,acc_z
1790545968.2784,-0.015964,-0.041421,0.010766,-0.011175,-0.028995,0.010766,0.021943,0.010758,0.006141,0.300631,1.348691,-9.987182
1790545968.2937,-0.002609,-0.049145,0.008285,-0.005179,-0.043100,0.008285,-0.019338,-0.003812,-0.002358,0.032335,1.199971,-10.181238
1790545968.3078,-0.007990,-0.044967,0.009603,-0.007147,-0.044407,0.009603,-0.002340,-0.003812,0.000070,0.338959,1.385871,-9.948371
1790545968.3216,-0.006837,-0.047313,0.009114,-0.006930,-0.046441,0.009114,0.012230,-0.005026,0.001284,0.185647,1.237151,-10.181238
1790545968.3356,-0.008809,-0.046945,0.009261,-0.008245,-0.046794,0.009261,0.008588,0.014400,0.002498,0.300631,1.274331,-9.754315
1790545968.3496,-0.005042,-0.042491,0.009784,-0.006003,-0.043782,0.009784,-0.042406,0.015614,0.008569,-0.005993,1.534591,-10.025993
1790545968.3639,-0.003615,-0.038188,0.010577,-0.004331,-0.039866,0.010577,-0.145608,0.026542,0.034066,0.070663,1.534591,-10.142427
1790545968.3785,-0.002294,-0.034557,0.011432,-0.002905,-0.036150,0.011432,-0.168677,0.033827,0.076561,0.032335,1.571771,-10.491728
1790545968.3928,0.001530,-0.029696,0.013168,0.000199,-0.031632,0.013168,-0.177176,-0.001384,0.155480,-0.197632,1.608951,-9.715504
1790545968.4073,0.001119,-0.026098,0.018608,0.000843,-0.027759,0.018608,-0.148037,0.001045,0.289036,0.108991,1.534591,-9.366203
1790545968.4214,-0.002963,-0.028127,0.022972,-0.001821,-0.028016,0.022972,-0.060618,0.083606,0.400737,0.377287,1.162791,-9.754315
1790545968.4355,-0.005084,-0.031667,0.026548,-0.004105,-0.030572,0.026548,-0.026622,0.060538,0.457801,0.223975,0.976891,-9.599070
1790545968.4501,-0.001760,-0.037640,0.028423,-0.002463,-0.035520,0.028423,-0.038764,-0.025666,0.477228,-0.350944,0.679451,-11.190329
1790545968.4641,0.001725,-0.035057,0.037244,0.000468,-0.035196,0.037244,-0.078831,-0.137367,0.376454,-0.159304,1.497411,-9.288581
1790545968.4784,0.012214,-0.040806,0.035267,0.008690,-0.039123,0.035267,-0.018123,-0.323131,0.233185,-1.040848,0.605091,-11.850119
1790545968.4926,0.012466,-0.042494,0.030328,0.011333,-0.041482,0.030328,-0.107970,-0.104586,0.219830,0.147319,0.939711,-10.996273
1790545968.5083,0.012187,-0.044686,0.026713,0.011931,-0.043725,0.026713,-0.019338,-0.111870,0.247755,0.262303,0.939711,-10.258860
1790545968.5230,0.011085,-0.043869,0.029381,0.011339,-0.043826,0.029381,0.007373,-0.047521,0.231971,0.262303,1.460231,-9.870749
1790545968.5376,0.005903,-0.039859,0.030729,0.007534,-0.041049,0.030729,-0.071546,0.055681,0.194333,0.722239,1.683311,-8.822846
1790545968.5524,0.005074,-0.037054,0.034963,0.005812,-0.038253,0.034963,-0.003554,-0.045093,0.161551,0.300631,1.794851,-9.327392
1790545968.5676,0.001595,-0.031824,0.039269,0.002860,-0.033752,0.039269,-0.071546,0.003473,0.151838,0.760567,2.278191,-9.909560
1790545968.5817,0.001019,-0.024638,0.044317,0.001571,-0.027372,0.044317,-0.185675,-0.167721,0.178549,0.683911,2.501271,-9.948371
1790545968.5955,0.000541,-0.018217,0.048662,0.000850,-0.020963,0.048662,-0.260952,-0.185933,0.127555,0.798895,2.352551,-10.569350
1790545968.6095,-0.000431,-0.012161,0.053600,-0.000047,-0.014802,0.053600,-0.253667,-0.205359,0.047421,1.067191,2.352551,-10.491728
1790545968.6240,-0.004975,-0.015090,0.046359,-0.003497,-0.015003,0.046359,0.394685,0.326435,-0.242759,0.415615,3.021791,-13.286133
1790545968.6380,-0.001268,-0.017845,0.017397,-0.001936,-0.016992,0.017397,0.650869,0.223233,-0.479516,-1.385800,3.467951,-10.763406
1790545968.6519,0.011474,-0.018210,-0.022335,0.007451,-0.017844,-0.022335,0.231990,-0.052377,-0.768482,-2.305671,2.017931,-8.512357
1790545968.6661,0.018597,-0.016661,-0.029808,0.015253,-0.017016,-0.029808,0.217420,-0.205359,-1.045307,-0.465928,2.203831,-7.658511
1790545968.6801,0.021787,-0.008841,-0.005684,0.019827,-0.011293,-0.005684,-0.065475,-0.238141,-1.154579,0.415615,2.910251,-7.852567
1790545968.6940,0.006929,-0.007057,0.027375,0.010798,-0.008328,0.027375,-0.138324,0.714960,-1.340343,2.523654,1.869211,-11.229140
1790545968.7080,0.004535,-0.001623,0.019913,0.006414,-0.003635,0.019913,-0.235455,0.259657,-1.373125,0.645583,2.278191,-9.637881
1790545968.7220,0.008205,-0.001572,-0.036329,0.007668,-0.002191,-0.036329,-0.203887,0.326435,-1.445973,-1.155832,0.790991,-9.482637
1790545968.7359,0.004731,-0.000809,-0.061064,0.005612,-0.001224,-0.061064,-0.076402,0.543766,-1.503038,-0.005993,1.571771,-9.793126
1790545968.7499,0.002088,0.004037,-0.084070,0.003145,0.002459,-0.084070,-0.331372,0.474560,-1.511537,0.070663,1.720491,-9.560259
1790545968.7636,-0.002530,0.009493,-0.093250,-0.000827,0.007383,-0.093250,-0.365368,0.463633,-1.403478,0.722239,1.832031,-9.521448
1790545968.7772,-0.005790,0.010575,-0.112482,-0.004301,0.009618,-0.112482,-0.219671,0.457562,-1.198288,0.262303,1.088431,-9.870749
1790545968.7912,-0.005788,0.010614,-0.128051,-0.005342,0.010315,-0.128051,-0.117683,0.172239,-0.963959,0.223975,1.051251,-8.745224
1790545968.8052,-0.004072,0.011813,-0.147194,-0.004453,0.011364,-0.147194,-0.059404,0.145528,-0.768482,-0.350944,1.646131,-8.434735
1790545968.8192,-0.008782,0.021866,-0.146992,-0.007483,0.018715,-0.146992,-0.282806,0.434493,-0.684706,0.338959,3.579491,-8.163056
1790545968.8330,-0.001070,0.018216,-0.173426,-0.002994,0.018366,-0.173426,0.191923,-0.252711,-0.610644,-1.309144,2.612811,-16.973196
1790545968.8471,0.002353,0.005106,-0.149705,0.000749,0.009084,-0.149705,0.968974,-0.508895,-0.234260,1.718767,2.017931,-10.142427
1790545968.8611,-0.007721,0.001449,-0.120917,-0.005180,0.003739,-0.120917,0.445679,0.349504,0.320603,1.948735,2.873071,-9.870749
1790545968.8752,-0.017020,-0.002245,-0.108462,-0.013468,-0.000450,-0.108462,0.256273,0.504914,0.513652,0.760567,1.869211,-10.530539
1790545968.8895,-0.017835,-0.010347,-0.099532,-0.016525,-0.007378,-0.099532,0.312123,-0.063305,0.886394,0.147319,0.307651,-9.637881
1790545968.9035,-0.018271,-0.017431,-0.084923,-0.017747,-0.014415,-0.084923,0.341263,-0.131297,1.171717,0.147319,0.716631,-8.667602
1790545968.9175,-0.014238,-0.015309,-0.098263,-0.015291,-0.015041,-0.098263,-0.061833,-0.168935,1.399976,-1.232488,1.794851,-7.192776
1790545968.9316,-0.003124,-0.019212,-0.128893,-0.006774,-0.017961,-0.128893,-0.076402,-0.496753,1.293131,-2.765607,-0.361589,-9.443825
1790545968.9457,-0.001180,-0.021389,-0.121031,-0.002858,-0.020360,-0.121031,-0.115255,-0.298848,1.163218,0.032335,-0.026969,-12.509909
1790545968.9598,-0.010601,-0.028022,-0.108931,-0.008278,-0.025723,-0.108931,0.132430,0.405354,1.098868,1.067191,-0.696209,-11.850119
1790545968.9738,-0.015622,-0.036902,-0.098893,-0.013419,-0.033548,-0.098893,0.449321,0.223233,1.060016,0.185647,0.344831,-9.055714
1790545968.9874,-0.017640,-0.042430,-0.087491,-0.016373,-0.039766,-0.087491,0.372830,0.223233,0.835400,-0.849208,1.237151,-9.715504
1790545969.0010,-0.017409,-0.043088,-0.073203,-0.017098,-0.042091,-0.073203,0.082650,0.196522,0.593785,-1.500784,1.534591,-9.210958
1790545969.0150,-0.020468,-0.044045,-0.068249,-0.019457,-0.043459,-0.068249,0.031656,0.162526,0.483298,0.300631,1.125611,-9.599070
1790545969.0290,-0.023307,-0.044398,-0.058137,-0.022152,-0.044116,-0.058137,0.086293,0.155241,0.376454,0.377287,1.757671,-9.676693
1790545969.0430,-0.022578,-0.044300,-0.046499,-0.022450,-0.044245,-0.046499,0.094792,-0.088802,0.245327,0.377287,1.980751,-9.443825
1790545969.0569,-0.016172,-0.041235,-0.039018,-0.018055,-0.042138,-0.039018,-0.203887,-0.556246,0.218615,0.837223,1.646131,-10.841028
1790545969.0709,-0.008038,-0.036935,-0.039508,-0.011043,-0.038496,-0.039508,-0.446716,-0.740796,0.047421,1.833751,0.567911,-14.256413
1790545969.0848,-0.006935,-0.027966,-0.021857,-0.008167,-0.031125,-0.021857,-0.712613,-0.576887,-0.196621,3.711822,0.753811,-8.434735
1790545969.0989,0.001993,-0.015603,-0.023694,-0.001055,-0.020259,-0.023694,-0.830385,-0.684946,-0.371458,0.530599,1.125611,-5.834385
1790545969.1129,0.000296,-0.014297,-0.027292,-0.000109,-0.016085,-0.027292,-0.318017,-0.065733,-0.593646,1.987063,-0.175689,-8.473546
1790545969.1271,-0.005036,-0.020420,-0.038562,-0.003558,-0.019119,-0.038562,0.323050,0.517055,-0.886254,0.262303,0.605091,-10.763406
1790545969.1413,0.005881,-0.024333,-0.055447,0.003050,-0.022769,-0.055447,0.298768,-0.400836,-1.374339,-1.500784,1.906391,-12.277042
1790545969.1553,0.012808,-0.025637,-0.076002,0.009880,-0.024777,-0.076002,0.098434,-0.286707,-1.511537,0.147319,1.497411,-10.064805
1790545969.1694,0.003230,-0.027841,-0.098498,0.005225,-0.026922,-0.098498,0.138501,0.387142,-1.027094,3.366870,1.051251,-8.279490
1790545969.1835,0.022390,-0.032734,-0.101209,0.017240,-0.030990,-0.101209,0.275699,-0.722584,-1.095086,-4.452038,0.716631,-9.909560
1790545969.1974,0.028737,-0.040932,-0.118712,0.025288,-0.037949,-0.118712,0.529455,-0.233285,-1.354913,-0.465928,1.014071,-10.375294
1790545969.2115,0.037171,-0.050371,-0.137636,0.033606,-0.046645,-0.137636,0.671509,-0.457901,-1.360983,0.032335,1.497411,-10.181238
1790545969.2251,0.038418,-0.051559,-0.161853,0.036974,-0.050085,-0.161853,0.231990,-0.258782,-1.146080,1.987063,2.241011,-8.124245
1790545969.2388,0.039846,-0.054756,-0.176847,0.038984,-0.053354,-0.176847,0.287840,-0.176220,-0.910537,1.220503,1.757671,-9.443825
1790545969.2528,0.041193,-0.056990,-0.194119,0.040530,-0.055899,-0.194119,0.336406,-0.025666,-0.661638,-0.197632,2.873071,-9.793126
1790545969.2668,0.026209,-0.058074,-0.198744,0.030505,-0.057422,-0.198744,0.024371,1.040350,-0.500157,1.105519,1.237151,-15.071448
1790545969.2809,0.022667,-0.050649,-0.204967,0.025018,-0.052681,-0.204967,-0.586342,0.606902,-0.390884,-3.723807,0.902531,-12.703965
1790545969.2950,0.020343,-0.040155,-0.206324,0.021745,-0.043913,-0.206324,-0.954227,0.668823,-0.430951,-3.762135,-0.621849,-8.473546
1790545969.3090,0.013172,-0.026497,-0.212070,0.015744,-0.031722,-0.212070,-1.125421,0.939577,-0.377528,-2.190688,0.010211,-6.261308
1790545969.3231,-0.000706,-0.013908,-0.222030,0.004229,-0.019252,-0.222030,-1.012506,1.081631,-0.214833,-0.159304,0.307651,-5.756762
1790545969.3369,0.000567,-0.010819,-0.219336,0.001666,-0.013349,-0.219336,-0.310732,0.151598,-0.060637,-3.033903,1.199971,-14.993826
1790545969.3508,-0.002299,-0.020342,-0.226864,-0.001109,-0.018244,-0.226864,0.556166,0.044754,0.377668,1.872079,0.753811,-17.244875
1790545969.3649,-0.010748,-0.022443,-0.209997,-0.007856,-0.021183,-0.209997,0.263557,0.377429,0.926460,1.067191,2.649991,-9.327392
1790545969.3792,-0.010216,-0.026682,-0.193873,-0.009508,-0.025032,-0.193873,0.273271,-0.202931,1.090369,0.185647,1.125611,-7.309210
1790545969.3937,-0.008372,-0.036275,-0.178392,-0.008713,-0.032902,-0.178392,0.466319,0.146742,0.565860,-2.037376,-0.324409,-5.795574
1790545969.4080,-0.021390,-0.040334,-0.165057,-0.017587,-0.038104,-0.165057,0.307267,0.956575,0.482084,-0.504256,1.274331,-7.697322
1790545969.4220,-0.033351,-0.049731,-0.164513,-0.028622,-0.046243,-0.164513,0.619301,0.740457,0.541577,1.067191,1.051251,-11.073895
1790545969.4362,-0.045695,-0.056952,-0.144668,-0.040573,-0.053739,-0.144668,0.607160,0.753813,0.757694,1.028863,2.649991,-10.530539
1790545969.4502,-0.055781,-0.061172,-0.121557,-0.051219,-0.058942,-0.121557,0.414111,0.655467,0.766193,0.530599,2.612811,-9.637881
1790545969.4640,-0.054244,-0.066629,-0.101734,-0.053336,-0.064323,-0.101734,0.467533,-0.025666,0.704272,-0.887536,2.092291,-9.133336
1790545969.4781,-0.057994,-0.072706,-0.089071,-0.056597,-0.070191,-0.089071,0.439608,0.242659,0.587715,0.338959,1.460231,-9.715504
1790545969.4923,-0.050068,-0.076954,-0.086968,-0.052026,-0.074925,-0.086968,0.195566,-0.607240,0.567074,0.683911,0.493551,-12.393476
1790545969.5065,-0.043995,-0.073843,-0.087263,-0.046405,-0.074167,-0.087263,-0.303447,-0.652164,0.558575,2.983590,0.716631,-12.703965
1790545969.5208,-0.041022,-0.068687,-0.106757,-0.042637,-0.070331,-0.106757,-0.549918,-0.522250,0.416521,3.635166,-0.696209,-10.297672
1790545969.5347,-0.035089,-0.060538,-0.118731,-0.037353,-0.063476,-0.118731,-0.758750,-0.729869,0.227114,3.060246,-0.510309,-8.745224
1790545969.5486,-0.021395,-0.047781,-0.122513,-0.026183,-0.052489,-0.122513,-0.987009,-1.181530,0.098415,2.102047,0.567911,-9.249770
1790545969.5626,-0.009206,-0.034635,-0.125177,-0.014299,-0.039991,-0.125177,-1.039217,-1.220382,0.007355,3.098574,0.270471,-7.658511
1790545969.5765,0.001081,-0.017795,-0.123695,-0.003533,-0.024454,-0.123695,-1.194627,-1.165746,0.014640,3.520182,1.162791,-6.727042
1790545969.5905,0.009244,-0.003499,-0.130127,0.005411,-0.009786,-0.130127,-0.990651,-0.846426,-0.103132,2.102047,1.423051,-6.765853
1790545969.6045,-0.007076,-0.009610,-0.140883,-0.003330,-0.009663,-0.140883,0.431109,1.080417,-0.400597,2.523654,1.869211,-12.238231
1790545969.6186,-0.004302,-0.011993,-0.159529,-0.004010,-0.011294,-0.159529,0.342477,0.078750,-1.021024,-1.577440,4.917971,-14.411658
1790545969.6327,0.008122,-0.011617,-0.177670,0.004483,-0.011520,-0.177670,0.043798,-0.695873,-1.114513,-0.082648,2.910251,-12.665154
1790545969.6472,0.010183,-0.015943,-0.183640,0.008473,-0.014616,-0.183640,0.275699,-0.183505,-0.733272,1.412143,0.976891,-7.425644
1790545969.6611,0.020168,-0.025561,-0.173398,0.016659,-0.022278,-0.173398,0.610802,-0.402050,-0.790337,-2.229015,0.642271,-9.715504
1790545969.6754,0.038878,-0.036035,-0.178219,0.032212,-0.031908,-0.178219,0.802637,-0.916847,-1.052591,-2.842263,2.092291,-8.473546
1790545969.6892,0.046298,-0.042320,-0.201349,0.042072,-0.039196,-0.201349,0.593804,-0.540463,-1.086587,1.182175,2.835891,-8.589979
1790545969.7039,0.049667,-0.046539,-0.225211,0.047389,-0.044336,-0.225211,0.429895,-0.153151,-1.035593,0.300631,3.021791,-8.628791
1790545969.7186,0.037971,-0.054831,-0.229433,0.040797,-0.051683,-0.229433,0.416539,0.914080,-0.943319,-0.197632,-0.250049,-14.178791
1790545969.7325,0.025250,-0.052683,-0.242443,0.029914,-0.052383,-0.242443,-0.152893,1.196975,-0.846187,-3.417183,2.278191,-15.886483
1790545969.7466,0.026470,-0.040433,-0.242806,0.027503,-0.044018,-0.242806,-0.968797,0.303366,-0.815834,-5.371910,0.307651,-14.760958
1790545969.7608,0.024627,-0.026832,-0.243152,0.025490,-0.031988,-0.243152,-1.065928,0.628756,-0.708989,-2.995575,0.047391,-5.562707
1790545969.7750,0.015909,-0.011543,-0.254210,0.018783,-0.017676,-0.254210,-1.165488,0.792665,-0.625213,-0.580912,0.419191,-6.688231
1790545969.7888,0.007843,-0.000543,-0.266369,0.011125,-0.005683,-0.266369,-0.966368,0.894653,-0.696848,-1.347472,-0.250049,-6.338930
1790545969.8028,-0.004162,0.012199,-0.272135,0.000424,0.006834,-0.272135,-0.875308,1.062205,-0.566935,-0.695896,1.943571,-8.706413
1790545969.8170,0.003594,0.006443,-0.281633,0.002643,0.006560,-0.281633,0.185852,-0.393551,-0.163839,-3.033903,-1.811608,-20.116903
1790545969.8312,0.011850,0.004583,-0.272762,0.009088,0.005176,-0.272762,0.087507,-0.627881,0.479656,-0.887536,2.055111,-15.537182
1790545969.8451,0.004991,-0.002333,-0.273901,0.006220,-0.000080,-0.273901,0.389828,0.251158,0.893678,0.990535,0.456371,-8.822846
1790545969.8593,0.004114,-0.013092,-0.254860,0.004746,-0.009189,-0.254860,0.778354,0.155241,0.366741,-1.539112,1.608951,-8.745224
1790545969.8732,-0.010977,-0.019573,-0.261059,-0.006260,-0.016458,-0.261059,0.529455,0.837589,0.364312,2.025391,1.757671,-7.115154
1790545969.8875,-0.024805,-0.029193,-0.254853,-0.019242,-0.025372,-0.254853,0.704291,0.848516,0.567074,0.952207,2.092291,-10.103616
1790545969.9020,-0.041310,-0.038328,-0.240964,-0.034690,-0.034442,-0.240964,0.675152,1.053706,0.757694,0.415615,2.501271,-10.569350
1790545969.9158,-0.052649,-0.043792,-0.223134,-0.047261,-0.040987,-0.223134,0.482103,0.683393,0.934959,0.990535,3.058971,-9.987182
1790545969.9295,-0.053125,-0.047805,-0.204207,-0.051366,-0.045760,-0.204207,0.318194,-0.002598,0.902177,-0.274288,2.278191,-9.715504
1790545969.9436,-0.045663,-0.049784,-0.188278,-0.047374,-0.048577,-0.188278,0.130002,-0.603598,0.820830,0.185647,1.943571,-10.530539
1790545969.9575,-0.036394,-0.050744,-0.184816,-0.039688,-0.050094,-0.184816,-0.087330,-0.757794,0.709129,0.492271,-0.138509,-10.181238
1790545969.9716,-0.032303,-0.050174,-0.187661,-0.034519,-0.050150,-0.187661,-0.201459,-0.602384,0.788048,2.446998,-0.250049,-7.619700
1790545969.9856,-0.022193,-0.044231,-0.179239,-0.025890,-0.046007,-0.179239,-0.503780,-0.887707,0.774692,0.913879,0.605091,-8.007811
1790545969.9995,-0.014842,-0.035124,-0.176733,-0.018157,-0.038389,-0.176733,-0.735681,-0.782077,0.597428,2.868606,0.753811,-11.772497
1790545970.0134,-0.007025,-0.022097,-0.176245,-0.010365,-0.026985,-0.176245,-1.034360,-0.888921,0.337601,4.785005,0.456371,-12.509909
1790545970.0276,0.009433,-0.004945,-0.176949,0.003494,-0.011557,-0.176949,-1.209197,-1.447427,0.146981,3.175230,1.571771,-9.094525
1790545970.0417,0.021860,0.013734,-0.177050,0.016350,0.006147,-0.177050,-1.193413,-1.208241,0.166407,2.178703,2.166651,-5.485084
1790545970.0557,0.017858,0.017137,-0.176222,0.017406,0.013840,-0.176222,-0.303447,0.194093,-0.126201,1.948735,1.460231,-12.548721
1790545970.0696,0.008807,0.008566,-0.177790,0.011386,0.010148,-0.177790,0.514885,0.696748,-0.568149,1.757095,1.014071,-17.516553
1790545970.0837,0.016306,0.006438,-0.192993,0.014830,0.007551,-0.192993,0.177353,-0.261210,-1.235927,-0.964192,2.873071,-13.324944
1790545970.0978,0.014477,0.003761,-0.206386,0.014583,0.004898,-0.206386,0.165212,-0.001384,-0.865613,2.638638,0.939711,-6.377742
1790545970.1118,0.015949,-0.002730,-0.207171,0.015539,-0.000442,-0.207171,0.418968,0.069037,-0.671351,-0.657568,1.088431,-9.055714
1790545970.1257,0.025252,-0.014220,-0.210965,0.022338,-0.010086,-0.210965,0.815992,-0.425119,-0.872898,-1.462456,1.571771,-9.831937
1790545970.1394,0.037890,-0.021329,-0.233470,0.033224,-0.017956,-0.233470,0.636299,-0.706800,-1.109656,-0.849208,2.761531,-8.318301
1790545970.1534,0.045307,-0.025438,-0.262687,0.041682,-0.023194,-0.262687,0.418968,-0.404479,-1.158222,0.262303,3.356411,-9.210958
1790545970.1675,0.046098,-0.028585,-0.285562,0.044773,-0.026967,-0.285562,0.267200,0.062966,-1.099943,0.262303,2.426911,-9.560259
1790545970.1815,0.052420,-0.032009,-0.302721,0.050126,-0.030496,-0.302721,0.292697,-0.269709,-0.891110,-1.117504,2.278191,-9.249770
1790545970.1955,0.036977,-0.033001,-0.316298,0.040922,-0.032250,-0.316298,0.059582,1.198189,-0.707775,-0.082648,2.984611,-18.292777
1790545970.2095,0.030388,-0.021015,-0.307704,0.033548,-0.024385,-0.307704,-0.893520,0.810878,-0.562078,-5.410238,1.757671,-14.256413
1790545970.2234,0.027426,-0.008067,-0.293063,0.029262,-0.012963,-0.293063,-1.067142,0.611758,-0.598502,-3.953775,-0.064149,-8.978091
1790545970.2373,0.025769,0.005434,-0.287321,0.026817,-0.000085,-0.287321,-1.023433,0.678536,-0.445520,-3.072231,0.307651,-3.583336
1790545970.2513,0.009727,0.020318,-0.298328,0.014854,0.014197,-0.298328,-0.861952,1.092559,-0.406668,1.182175,2.612811,-4.980539
1790545970.2653,0.021692,0.013480,-0.304764,0.019640,0.013695,-0.304764,0.378901,-0.644879,-0.427308,-2.688951,0.456371,-13.208511
1790545970.2793,0.018704,0.014672,-0.298762,0.018985,0.014379,-0.298762,0.007373,-0.013525,0.454159,2.753622,4.397451,-13.480189
1790545970.2932,0.010104,0.008746,-0.287663,0.012768,0.010436,-0.287663,0.344905,0.419924,0.910676,0.607255,0.828171,-11.384385
1790545970.3074,0.008836,0.002290,-0.274075,0.010016,0.004734,-0.274075,0.398327,-0.052377,0.949529,-0.350944,1.014071,-9.793126
1790545970.3213,0.001384,-0.004656,-0.266004,0.003973,-0.001839,-0.266004,0.459034,0.411425,0.677561,0.262303,1.088431,-8.745224
1790545970.3352,-0.017788,-0.015073,-0.260307,-0.011260,-0.011103,-0.260307,0.677580,1.164193,0.768622,1.527127,0.642271,-8.473546
1790545970.3492,-0.031157,-0.026093,-0.250130,-0.025188,-0.021596,-0.250130,0.780782,0.815734,0.910676,0.683911,1.794851,-10.142427
1790545970.3628,-0.038840,-0.032363,-0.237260,-0.034744,-0.029133,-0.237260,0.496673,0.451491,1.051517,0.032335,2.947431,-11.035084
1790545970.3765,-0.044589,-0.035596,-0.224036,-0.041635,-0.033657,-0.224036,0.289054,0.317936,1.066087,-0.005993,3.096151,-10.375294
1790545970.3905,-0.043788,-0.042535,-0.208744,-0.043142,-0.039871,-0.208744,0.479675,-0.115513,1.109796,-0.657568,1.832031,-8.861658
1790545970.4050,-0.040032,-0.045135,-0.195132,-0.040965,-0.043556,-0.195132,0.083864,-0.425119,0.885179,1.603783,0.865351,-12.975644
1790545970.4192,-0.036995,-0.043592,-0.183237,-0.038186,-0.043581,-0.183237,-0.214815,-0.453044,0.768622,3.136902,0.456371,-12.393476
1790545970.4334,-0.033994,-0.043972,-0.172667,-0.035252,-0.043855,-0.172667,-0.131039,-0.491897,0.636280,3.213558,-0.547489,-9.443825
1790545970.4474,-0.025253,-0.036832,-0.166890,-0.028253,-0.038939,-0.166890,-0.541419,-0.859782,0.542791,1.910407,0.939711,-7.076343
1790545970.4614,-0.018122,-0.026367,-0.158733,-0.021162,-0.030139,-0.158733,-0.854667,-0.818501,0.412878,4.210086,0.121751,-10.414105
1790545970.4754,-0.006337,-0.012188,-0.150668,-0.010784,-0.017574,-0.150668,-1.107209,-1.060115,0.268395,2.791950,0.419191,-10.569350
1790545970.4894,0.006685,0.004135,-0.150739,0.001444,-0.002377,-0.150739,-1.231051,-1.220382,0.138482,3.405198,0.828171,-8.978091
1790545970.5035,0.019060,0.020989,-0.149762,0.013775,0.013979,-0.149762,-1.250478,-1.197313,0.105700,3.481854,0.790991,-7.891378
1790545970.5175,0.015162,0.025001,-0.129120,0.014746,0.021694,-0.129120,-0.485568,0.230518,-0.324106,3.060246,-1.068009,-16.701518
1790545970.5315,0.008313,0.013257,-0.126759,0.010243,0.015788,-0.126759,0.797780,0.772025,-0.724773,-2.612295,2.055111,-14.838581
1790545970.5455,0.024376,-0.000481,-0.134253,0.020136,0.004400,-0.134253,0.989614,-0.745653,-1.110870,-3.838791,2.278191,-11.462007
1790545970.5594,0.024009,-0.003441,-0.186735,0.022847,-0.001089,-0.186735,0.270842,-0.154365,-0.607001,3.328542,1.794851,-7.930189
1790545970.5734,0.027571,-0.012382,-0.179751,0.026154,-0.008994,-0.179751,0.588948,-0.068161,-0.505013,-1.730752,1.162791,-10.802217
1790545970.5883,0.043666,-0.022970,-0.192737,0.038412,-0.018777,-0.192737,0.762570,-0.776006,-0.962745,-3.148887,2.798711,-10.414105
1790545970.6032,0.052959,-0.034090,-0.221707,0.048595,-0.029496,-0.221707,0.808707,-0.493111,-1.047735,-0.120976,2.538451,-8.784035
1790545970.6175,0.056335,-0.038109,-0.266473,0.054013,-0.035525,-0.266473,0.468747,-0.205359,-1.018595,0.952207,3.579491,-7.348021
1790545970.6319,0.066609,-0.046638,-0.281487,0.062830,-0.043304,-0.281487,0.563451,-0.508895,-1.068375,-1.347472,1.348691,-8.628791
1790545970.6473,0.050972,-0.058936,-0.284370,0.054530,-0.054246,-0.284370,0.675152,1.053706,-0.942104,1.220503,0.084571,-12.082986
1790545970.6614,0.034819,-0.043789,-0.306922,0.040732,-0.046926,-0.306922,-1.023433,1.221258,-0.733272,0.262303,3.467951,-14.372847
1790545970.6752,0.033058,-0.031943,-0.253243,0.035361,-0.036438,-0.253243,-1.166702,0.391999,-0.593646,-2.842263,-2.703928,-10.258860
1790545970.6893,0.024499,-0.013053,-0.263071,0.027757,-0.020069,-0.263071,-1.445955,1.070704,-0.518369,-3.877119,-0.138509,-5.679140
1790545970.7034,0.010910,0.006984,-0.278052,0.015964,-0.001132,-0.278052,-1.337896,1.187262,-0.582718,-0.657568,1.199971,-3.855014
1790545970.7174,0.002135,0.017867,-0.296889,0.006283,0.012168,-0.296889,-0.664047,0.989356,-0.666494,-1.960720,2.055111,-5.523895
1790545970.7314,0.018603,0.010062,-0.296371,0.014907,0.010694,-0.296371,0.491816,-0.979982,-0.451591,-2.995575,1.199971,-14.683336
1790545970.7455,0.012414,0.012310,-0.301472,0.013162,0.011825,-0.301472,-0.087330,0.237802,0.364312,2.906934,3.988471,-13.169700
1790545970.7595,0.008792,0.008698,-0.285477,0.010103,0.009636,-0.285477,0.123931,0.185594,0.778335,-1.194160,-0.138509,-12.548721
1790545970.7734,0.006424,0.005646,-0.280377,0.007527,0.006843,-0.280377,0.206493,-0.147081,0.928889,2.025391,1.460231,-8.745224
1790545970.7873,-0.003622,0.002158,-0.285979,-0.000277,0.003563,-0.285979,0.313337,0.368930,0.763765,3.098574,2.389731,-8.201867
1790545970.8012,-0.022068,-0.007402,-0.276518,-0.015531,-0.004113,-0.276518,0.644798,1.037922,1.002951,2.715294,1.385871,-10.802217
1790545970.8152,-0.033907,-0.019197,-0.263650,-0.028394,-0.014672,-0.263650,0.817206,0.731958,1.016307,-0.120976,1.646131,-9.249770
1790545970.8289,-0.046836,-0.022660,-0.260810,-0.041303,-0.020263,-0.260810,0.340048,0.776882,1.107367,0.607255,3.133331,-8.434735
1790545970.8427,-0.052715,-0.026583,-0.249289,-0.049291,-0.024687,-0.249289,0.287840,0.338576,1.114652,-0.465928,2.649991,-10.258860
1790545970.8566,-0.052235,-0.028376,-0.237280,-0.051352,-0.027269,-0.237280,0.110576,-0.155580,1.055159,0.147319,2.352551,-10.220049
1790545970.8706,-0.044460,-0.030396,-0.213450,-0.046528,-0.029458,-0.213450,-0.019338,-0.632737,0.931317,-0.542584,-0.026969,-13.247322
1790545970.8846,-0.036501,-0.027132,-0.198697,-0.039509,-0.027830,-0.198697,-0.319231,-0.810002,0.870610,2.600310,1.199971,-12.160609
1790545970.8987,-0.029695,-0.021143,-0.181025,-0.032639,-0.023149,-0.181025,-0.543847,-0.786933,0.769836,3.941790,0.307651,-11.617252
1790545970.9131,-0.021512,-0.011992,-0.166069,-0.024850,-0.015339,-0.166069,-0.756322,-0.873138,0.610783,3.060246,0.158931,-8.551168
1790545970.9273,-0.013281,0.002185,-0.159288,-0.016752,-0.003072,-0.159288,-1.082926,-0.873138,0.374026,2.983590,0.493551,-7.736133
1790545970.9415,-0.002089,0.017817,-0.150893,-0.006488,0.011550,-0.150893,-1.199484,-1.050402,0.206474,2.945262,0.419191,-8.357112
1790545970.9554,0.011359,0.034328,-0.154889,0.006005,0.027494,-0.154889,-1.223767,-1.234952,0.030423,3.251886,1.162791,-8.318301
1790545970.9695,0.004118,0.037233,-0.157609,0.004684,0.034312,-0.157609,-0.259738,0.418710,-0.225761,3.328542,1.683311,-13.130889
1790545970.9836,-0.003201,0.029826,-0.159554,-0.000836,0.031172,-0.159554,0.501529,0.814520,-0.915393,-1.692424,2.426911,-15.071448
1790545970.9975,0.005273,0.016417,-0.176792,0.003440,0.020843,-0.176792,1.051536,-0.179862,-1.237141,-2.727279,2.798711,-8.978091
1790545971.0114,0.001433,0.021264,-0.291739,0.002035,0.021137,-0.291739,0.218634,0.180738,-0.661638,1.373815,3.207691,-1.759210
1790545971.0254,0.002473,0.013268,-0.256819,0.002342,0.015629,-0.256819,0.506386,-0.187147,-0.549937,3.213558,1.237151,-8.861658
1790545971.0393,0.015274,0.005408,-0.262927,0.011394,0.008475,-0.262927,0.570735,-0.630309,-0.910537,-2.573967,2.352551,-12.277042
1790545971.0529,0.026810,-0.004688,-0.281600,0.022185,-0.000739,-0.281600,0.774711,-0.599956,-1.107228,-1.040848,2.092291,-9.327392
1790545971.0665,0.030210,-0.009058,-0.316317,0.027802,-0.006563,-0.316317,0.493030,-0.074232,-1.109656,-0.005993,2.873071,-6.455364
1790545971.0802,0.034521,-0.010518,-0.345643,0.032505,-0.009332,-0.345643,0.218634,-0.105800,-1.075660,-0.504256,2.575631,-7.192776
1790545971.0945,0.037598,-0.019469,-0.354235,0.036070,-0.016428,-0.354235,0.564665,-0.028095,-0.999169,-0.580912,0.865351,-8.473546
1790545971.1082,0.042298,-0.026815,-0.376428,0.040430,-0.023699,-0.376428,0.636299,-0.209002,-0.812191,-0.580912,3.876931,-12.044175
1790545971.1222,0.026767,-0.020142,-0.395774,0.030866,-0.021209,-0.395774,-0.438217,1.245540,-0.695634,-0.580912,4.100011,-17.206063
1790545971.1363,0.020942,-0.009372,-0.386077,0.023919,-0.012923,-0.386077,-0.825528,0.689463,-0.507442,-5.486894,1.534591,-17.050819
1790545971.1503,0.016805,0.002623,-0.351842,0.018939,-0.002041,-0.351842,-0.920231,0.702819,-0.501371,-3.608823,0.605091,-6.183686
1790545971.1648,-0.000013,0.014678,-0.344758,0.005673,0.009662,-0.344758,-0.868023,1.101058,-0.218476,0.837223,0.567911,-4.010259
1790545971.1787,-0.012710,0.027933,-0.365875,-0.007195,0.022452,-0.365875,-0.616696,0.992999,-0.421237,0.223975,2.426911,-2.807112
1790545971.1926,-0.004068,0.020290,-0.370126,-0.005006,0.020938,-0.370126,0.513671,-0.474899,-0.420023,-1.309144,1.869211,-14.217602
1790545971.2065,-0.004196,0.014167,-0.356019,-0.004439,0.016198,-0.356019,0.429895,-0.158008,0.377668,2.791950,3.319231,-17.438931
1790545971.2204,-0.010353,0.012661,-0.347584,-0.008579,0.013723,-0.347584,0.099648,0.313079,0.846327,-0.159304,2.798711,-13.868301
1790545971.2343,-0.011917,0.009564,-0.333797,-0.010915,0.010811,-0.333797,0.177353,-0.036594,1.120723,-0.504256,1.237151,-7.774944
1790545971.2483,-0.018153,-0.002594,-0.294235,-0.015982,0.001428,-0.294235,0.632657,0.281512,0.894893,0.262303,-1.030829,-7.076343
1790545971.2622,-0.035982,-0.012936,-0.270016,-0.029982,-0.008627,-0.270016,0.722503,0.864300,0.990810,3.366870,1.348691,-6.610609
1790545971.2760,-0.048457,-0.024269,-0.262559,-0.042915,-0.019576,-0.262559,0.812350,0.773239,1.032091,0.377287,1.906391,-9.172147
1790545971.2888,-0.058443,-0.030181,-0.262019,-0.053785,-0.027000,-0.262019,0.494244,0.676108,1.069729,0.108991,2.835891,-10.025993
1790545971.3016,-0.060140,-0.033079,-0.262466,-0.058234,-0.031255,-0.262466,0.233204,0.141885,1.039375,-1.539112,2.612811,-10.142427
1790545971.3151,-0.061626,-0.036273,-0.252413,-0.060608,-0.034767,-0.252413,0.184638,-0.002598,1.068515,0.262303,2.055111,-11.384385
1790545971.3292,-0.055681,-0.036827,-0.235009,-0.057159,-0.036209,-0.235009,-0.052119,-0.582958,0.970169,1.335487,1.497411,-12.859210
1790545971.3431,-0.051003,-0.032697,-0.206306,-0.052850,-0.033751,-0.206306,-0.418790,-0.599956,0.848755,3.251886,0.679451,-11.384385
1790545971.3571,-0.046756,-0.028896,-0.171960,-0.048584,-0.030352,-0.171960,-0.426075,-0.625453,0.777121,3.021918,0.010211,-7.619700
1790545971.3710,-0.038706,-0.022062,-0.149823,-0.041669,-0.024549,-0.149823,-0.611839,-0.799075,0.619282,1.757095,0.307651,-7.348021
1790545971.3849,-0.027166,-0.011769,-0.136070,-0.031517,-0.015603,-0.136070,-0.807316,-0.954485,0.382525,1.143847,0.902531,-8.939280
1790545971.3992,-0.016487,0.003306,-0.127921,-0.020996,-0.002367,-0.127921,-1.118136,-0.998194,0.168836,4.593365,1.088431,-11.694875
1790545971.4141,-0.000251,0.022747,-0.121189,-0.006474,0.015213,-0.121189,-1.347609,-1.282303,0.036494,2.945262,1.274331,-9.560259
1790545971.4283,-0.004093,0.024511,-0.108469,-0.004808,0.021721,-0.108469,-0.256095,0.192879,-0.247615,2.715294,0.010211,-11.578441
1790545971.4425,-0.014542,0.019608,-0.132726,-0.011622,0.020242,-0.132726,0.418968,1.014853,-0.736914,-2.190688,3.653851,-13.829490
1790545971.4566,-0.003510,0.011000,-0.160563,-0.005944,0.013773,-0.160563,0.720075,-0.596313,-1.072018,0.300631,3.282051,-10.452916
1790545971.4706,-0.005081,0.008153,-0.186917,-0.005340,0.009839,-0.186917,0.310909,0.189237,-0.820690,1.603783,3.393591,-10.608161
1790545971.4846,-0.002416,0.000756,-0.187348,-0.003293,0.003481,-0.187348,0.468747,0.015614,-0.656781,-1.539112,0.902531,-12.277042
1790545971.4986,0.012026,-0.003380,-0.216603,0.007430,-0.001322,-0.216603,0.401970,-0.785719,-1.010096,-1.615768,3.653851,-11.694875
1790545971.5124,0.021580,-0.010510,-0.243547,0.017335,-0.007754,-0.243547,0.563451,-0.388695,-1.333058,-1.385800,2.315371,-9.793126
1790545971.5262,0.024093,-0.014881,-0.279930,0.022066,-0.012743,-0.279930,0.473604,-0.019596,-1.252925,0.415615,2.724351,-6.455364
1790545971.5399,0.029592,-0.019010,-0.307300,0.027334,-0.017130,-0.307300,0.401970,-0.239355,-1.132725,0.070663,2.017931,-6.144874
1790545971.5540,0.035353,-0.027439,-0.320187,0.032948,-0.024347,-0.320187,0.581663,-0.275780,-1.018595,0.108991,1.497411,-9.521448
1790545971.5680,0.036322,-0.031880,-0.343906,0.035310,-0.029620,-0.343906,0.409255,0.060538,-0.732058,-0.657568,3.876931,-12.626343
1790545971.5820,0.013676,-0.019404,-0.358775,0.020166,-0.022469,-0.358775,-0.900805,1.763979,-0.681064,-0.657568,2.984611,-19.030189
1790545971.5960,0.017862,-0.005075,-0.350990,0.018553,-0.010293,-0.350990,-1.090211,0.133386,-0.616714,-6.368438,0.605091,-9.909560
1790545971.6099,0.010352,0.009806,-0.362583,0.012812,0.003776,-0.362583,-1.124207,0.841231,-0.634926,-1.577440,0.493551,-5.485084
1790545971.6239,-0.007265,0.022422,-0.368662,-0.001242,0.016828,-0.368662,-0.853453,1.292892,-0.491658,0.607255,1.051251,-3.932637
1790545971.6378,-0.005820,0.028107,-0.388336,-0.004446,0.024723,-0.388336,-0.322873,0.283940,-0.525654,-3.838791,2.687171,-8.007811
1790545971.6520,0.013153,0.016249,-0.387875,0.007873,0.018791,-0.387875,0.733430,-1.190029,-0.649496,-0.810880,0.233291,-11.384385
1790545971.6665,-0.003347,0.015116,-0.359667,0.000019,0.016218,-0.359667,0.159141,0.830304,0.556147,5.858189,5.215411,-14.023546
1790545971.6809,-0.009996,0.006641,-0.343992,-0.006991,0.009514,-0.343992,0.494244,0.336148,0.943458,-0.657568,0.790991,-12.975644
1790545971.6951,-0.012367,0.004509,-0.332096,-0.010754,0.006011,-0.332096,0.143357,-0.001384,0.973812,0.147319,1.683311,-8.007811
1790545971.7093,-0.019396,-0.000327,-0.327426,-0.016803,0.001574,-0.327426,0.318194,0.458776,0.858468,-1.155832,1.460231,-8.434735
1790545971.7236,-0.035043,-0.010300,-0.305443,-0.029571,-0.006738,-0.305443,0.639942,0.820591,1.028448,1.373815,0.865351,-6.106063
1790545971.7376,-0.046913,-0.024094,-0.287847,-0.041710,-0.018887,-0.287847,0.865772,0.707675,1.168075,0.070663,0.493551,-9.637881
1790545971.7513,-0.058172,-0.028270,-0.279007,-0.053233,-0.025455,-0.279007,0.320622,0.650611,1.115866,0.990535,2.910251,-10.258860
1790545971.7652,-0.056843,-0.027788,-0.273198,-0.055760,-0.027088,-0.273198,-0.058190,-0.145866,1.145006,-1.155832,2.426911,-9.987182
1790545971.7792,-0.052584,-0.027882,-0.254156,-0.053537,-0.027644,-0.254156,-0.099471,-0.485826,1.149862,0.913879,1.274331,-11.306763
1790545971.7936,-0.049637,-0.026776,-0.227810,-0.050807,-0.027036,-0.227810,-0.211172,-0.445760,0.898535,2.715294,0.419191,-11.772497
1790545971.8075,-0.044144,-0.023129,-0.200787,-0.046143,-0.024301,-0.200787,-0.401792,-0.663091,0.832971,2.715294,0.233291,-9.754315
1790545971.8215,-0.037888,-0.017632,-0.173600,-0.040365,-0.019633,-0.173600,-0.554774,-0.727440,0.730983,2.676966,-0.212869,-8.512357
1790545971.8356,-0.028022,-0.007959,-0.157416,-0.031725,-0.011461,-0.157416,-0.766035,-0.901063,0.545220,1.565455,0.679451,-7.386832
1790545971.8496,-0.017929,0.001456,-0.141680,-0.022067,-0.002419,-0.141680,-0.780605,-0.920489,0.323032,2.217030,0.344831,-9.055714
1790545971.8636,-0.005183,0.015508,-0.135028,-0.010248,0.010130,-0.135028,-1.056215,-1.084398,0.055920,2.753622,1.199971,-10.375294
1790545971.8776,0.004079,0.029267,-0.128997,-0.000219,0.023526,-0.128997,-1.079284,-0.778434,-0.240330,3.405198,0.753811,-13.402567
1790545971.8914,0.003588,0.028566,-0.124562,0.002446,0.027054,-0.124562,-0.087330,0.128530,-0.706561,1.488799,-0.175689,-15.265504
1790545971.9057,0.003067,0.020786,-0.138334,0.002881,0.022666,-0.138334,0.507600,0.379857,-1.251711,-1.462456,1.274331,-10.957462
1790545971.9202,0.012990,0.008888,-0.179766,0.009957,0.013021,-0.179766,0.982330,-0.403265,-0.886254,-2.267343,4.397451,-10.025993
1790545971.9344,0.011167,0.005416,-0.191544,0.010804,0.007698,-0.191544,0.239275,0.075107,-0.603359,2.370342,1.385871,-8.318301
1790545971.9485,0.021909,-0.003861,-0.207474,0.018577,-0.000393,-0.207474,0.684865,-0.579315,-0.945747,-0.619240,2.873071,-13.130889
1790545971.9625,0.034545,-0.009199,-0.244822,0.029755,-0.006557,-0.244822,0.510028,-0.627881,-1.295420,-1.424128,4.062831,-10.336483
1790545971.9762,0.040251,-0.015774,-0.268681,0.037102,-0.013009,-0.268681,0.494244,-0.187147,-1.402264,-0.312616,2.129471,-9.327392
1790545971.9901,0.040790,-0.018263,-0.293272,0.039683,-0.016687,-0.293272,0.218634,0.140671,-1.198288,-0.044320,1.683311,-6.261308
1790545972.0043,0.047983,-0.025740,-0.306380,0.045493,-0.023024,-0.306380,0.455392,-0.251497,-1.067161,-1.232488,0.530731,-6.416553
1790545972.0183,0.058963,-0.036424,-0.323181,0.054922,-0.032404,-0.323181,0.734645,-0.561103,-1.028309,-1.692424,1.423051,-9.521448
1790545972.0322,0.043283,-0.035847,-0.337569,0.046775,-0.034814,-0.337569,-0.038764,1.177548,-0.864399,1.795423,3.393591,-16.391028
1790545972.0462,0.030582,-0.021770,-0.354742,0.035440,-0.025683,-0.354742,-1.038003,1.217615,-0.708989,-5.908502,1.980751,-16.623896
1790545972.0604,0.030691,-0.006380,-0.363723,0.032116,-0.012171,-0.363723,-1.164274,0.377429,-0.603359,-7.671589,0.605091,-14.139979
1790545972.0743,0.014235,0.010632,-0.368489,0.019599,0.003791,-0.368489,-1.165488,1.122912,-0.413953,1.412143,1.646131,-5.485084
1790545972.0885,0.015676,0.017830,-0.365300,0.016853,0.013618,-0.365300,-0.688330,0.461205,-0.455233,-4.298727,-0.993649,-3.428091
1790545972.1025,0.004636,0.025217,-0.376570,0.008301,0.021737,-0.376570,-0.498924,0.967502,-0.389670,-1.577440,2.798711,-11.539630
1790545972.1165,0.010472,0.022405,-0.377209,0.009821,0.022205,-0.377209,0.110576,-0.296420,-0.043639,-3.148887,0.790991,-16.507462
1790545972.1304,0.011527,0.021730,-0.367175,0.011015,0.021872,-0.367175,0.009802,-0.217501,0.624139,0.377287,1.869211,-13.441378
1790545972.1445,0.004823,0.016480,-0.349666,0.006680,0.018097,-0.349666,0.318194,0.105461,0.938602,2.408670,0.753811,-7.076343
1790545972.1586,0.007553,0.011255,-0.340192,0.007291,0.013308,-0.340192,0.321836,-0.193218,0.677561,-1.730752,0.939711,-8.124245
1790545972.1731,-0.006470,0.002661,-0.331877,-0.002342,0.005855,-0.331877,0.621729,0.762312,0.733412,0.798895,1.125611,-4.631238
1790545972.1870,-0.025348,-0.007935,-0.322241,-0.018446,-0.003798,-0.322241,0.739501,1.189690,0.885179,0.913879,1.757671,-10.375294
1790545972.2010,-0.039689,-0.018160,-0.311338,-0.033316,-0.013852,-0.311338,0.733430,0.898296,1.072157,-0.005993,2.315371,-9.870749
1790545972.2146,-0.052634,-0.023796,-0.300619,-0.046839,-0.020813,-0.300619,0.446893,0.796308,1.125580,0.530599,2.835891,-9.249770
1790545972.2283,-0.054446,-0.029069,-0.287725,-0.052164,-0.026592,-0.287725,0.359475,0.014400,1.131650,-0.082648,2.278191,-9.909560
1790545972.2423,-0.045530,-0.031681,-0.273013,-0.047520,-0.030154,-0.273013,0.136073,-0.761436,1.050303,0.070663,2.092291,-11.345574
1790545972.2564,-0.038290,-0.030130,-0.258784,-0.041059,-0.030137,-0.258784,-0.157750,-0.671590,0.898535,1.067191,1.980751,-12.393476
1790545972.2704,-0.034223,-0.028853,-0.235721,-0.036274,-0.029238,-0.235721,-0.259738,-0.593885,0.964099,3.366870,-0.547489,-10.685784
1790545972.2846,-0.029718,-0.023990,-0.215139,-0.031685,-0.025565,-0.215139,-0.494067,-0.635166,0.913105,2.906934,-0.250049,-8.395923
1790545972.2987,-0.022689,-0.014922,-0.199920,-0.025388,-0.018115,-0.199920,-0.766035,-0.794218,0.671490,3.328542,0.010211,-9.405014
1790545972.3127,-0.012387,0.000280,-0.190582,-0.016287,-0.005238,-0.190582,-1.166702,-1.040689,0.469943,4.056774,0.605091,-10.025993
1790545972.3268,-0.001187,0.020388,-0.186374,-0.005717,0.012700,-0.186374,-1.488450,-1.068614,0.185834,3.558510,0.902531,-8.784035
1790545972.3407,0.013795,0.040698,-0.185226,0.007941,0.032299,-0.185226,-1.513947,-1.362437,-0.001144,3.443526,0.976891,-7.619700
1790545972.3547,0.002828,0.037457,-0.171847,0.004362,0.035909,-0.171847,0.042584,0.821805,-0.321678,1.412143,-1.142369,-14.101168
1790545972.3686,0.007223,0.030198,-0.189723,0.006365,0.031912,-0.189723,0.574378,0.041111,-0.989456,-3.340527,3.728211,-13.169700
1790545972.3827,0.015976,0.027150,-0.229999,0.013093,0.028578,-0.229999,0.421396,-0.239355,-1.112084,-1.845736,3.207691,-5.601518
1790545972.3965,0.012701,0.022563,-0.240003,0.012819,0.024368,-0.240003,0.314551,0.253586,-0.732058,2.025391,1.571771,-9.016902
1790545972.4109,0.023080,0.016396,-0.240837,0.020002,0.018787,-0.240837,0.352190,-0.436046,-0.809763,-2.152360,0.605091,-8.745224
1790545972.4254,0.033541,0.007684,-0.253880,0.029480,0.011015,-0.253880,0.593804,-0.414192,-1.021024,-2.114032,1.720491,-8.861658
1790545972.4391,0.037575,0.000513,-0.280032,0.035147,0.003664,-0.280032,0.629014,-0.132511,-1.103585,0.223975,2.910251,-7.464455
1790545972.4528,0.040633,-0.000405,-0.307812,0.038987,0.000816,-0.307812,0.183424,-0.039022,-1.182505,0.070663,3.170511,-7.542077
1790545972.4669,0.045186,-0.003553,-0.324628,0.043326,-0.002242,-0.324628,0.191923,-0.100943,-1.209216,-0.504256,1.497411,-8.589979
1790545972.4809,0.048244,-0.009185,-0.342726,0.046769,-0.007102,-0.342726,0.389828,-0.008668,-1.148509,-0.580912,1.906391,-9.249770
1790545972.4948,0.052830,-0.014100,-0.362630,0.051012,-0.012000,-0.362630,0.395899,-0.114299,-0.982171,-1.232488,2.649991,-9.133336
1790545972.5088,0.036752,-0.006198,-0.381536,0.041030,-0.007939,-0.381536,-0.534134,1.345100,-0.766054,-2.037376,4.769251,-17.827042
1790545972.5228,0.032766,0.006249,-0.388796,0.035245,0.001993,-0.388796,-0.944514,0.591118,-0.580290,-6.100142,1.943571,-17.050819
1790545972.5368,0.026803,0.017684,-0.392882,0.029336,0.012977,-0.392882,-0.872880,0.808449,-0.517155,-5.448566,1.162791,-10.608161
1790545972.5508,0.010951,0.033851,-0.391642,0.016467,0.027588,-0.391642,-0.844954,1.073132,-0.356888,0.683911,1.906391,-1.992077
1790545972.5647,0.006585,0.037140,-0.389871,0.009549,0.034275,-0.389871,-0.269451,0.292439,-0.260971,1.067191,1.199971,-7.542077
1790545972.5786,0.017401,0.022187,-0.389443,0.015045,0.025813,-0.389443,1.094031,-0.765079,0.126341,-0.925864,2.241011,-9.831937
1790545972.5926,-0.006520,0.011622,-0.366722,-0.000051,0.015879,-0.366722,0.741929,1.339029,0.959242,5.666549,2.575631,-14.256413
1790545972.6065,-0.015245,0.000306,-0.357843,-0.010686,0.004978,-0.357843,0.666653,0.661538,0.956814,-3.800463,-0.510309,-12.626343
1790545972.6204,-0.012794,-0.004177,-0.348265,-0.012162,-0.001430,-0.348265,0.276913,-0.204145,1.019949,-2.650623,1.757671,-11.850119
1790545972.6344,-0.022528,-0.010624,-0.329114,-0.019418,-0.007866,-0.329114,0.374044,0.424780,1.056373,1.718767,0.605091,-8.395923
1790545972.6484,-0.040731,-0.022101,-0.309122,-0.034337,-0.017830,-0.309122,0.739501,1.011211,1.340483,2.063719,1.051251,-9.831937
1790545972.6621,-0.052251,-0.032222,-0.294544,-0.046877,-0.027905,-0.294544,0.722503,0.606902,1.304058,0.990535,1.608951,-6.688231
1790545972.6773,-0.060170,-0.037027,-0.286817,-0.056182,-0.034291,-0.286817,0.338834,0.441778,1.134079,-0.542584,3.058971,-9.599070
1790545972.6920,-0.057869,-0.037551,-0.276835,-0.057363,-0.036573,-0.276835,0.048654,-0.253925,1.106153,-0.274288,3.839751,-12.354665
1790545972.7067,-0.052918,-0.037685,-0.256959,-0.054251,-0.037352,-0.256959,-0.103113,-0.530749,0.970169,2.178703,0.939711,-13.441378
1790545972.7216,-0.049094,-0.032656,-0.233014,-0.050641,-0.034065,-0.233014,-0.467356,-0.522250,0.848755,3.328542,0.233291,-10.530539
1790545972.7368,-0.035538,-0.026026,-0.209377,-0.040069,-0.028437,-0.209377,-0.596055,-1.096540,0.746767,1.757095,-0.398769,-8.512357
1790545972.7510,-0.024956,-0.018285,-0.189911,-0.029490,-0.021331,-0.189911,-0.701685,-0.983624,0.610783,2.293686,-0.398769,-8.745224
1790545972.7647,-0.019375,-0.007848,-0.180445,-0.022410,-0.011893,-0.180445,-0.914160,-0.788148,0.518508,3.865134,-0.547489,-6.843476
1790545972.7789,-0.006551,0.005749,-0.168535,-0.011309,0.000456,-0.168535,-1.047716,-1.113538,0.366741,2.370342,0.679451,-10.181238
1790545972.7929,0.003405,0.020553,-0.164321,-0.001009,0.014524,-0.164321,-1.142419,-0.965412,0.154266,3.635166,0.530731,-9.715504
1790545972.8068,0.005171,0.027360,-0.162944,0.003317,0.023509,-0.162944,-0.560845,-0.221143,-0.218476,2.868606,1.014071,-12.277042
1790545972.8208,0.003072,0.021866,-0.169957,0.003146,0.022359,-0.169957,0.363117,0.416281,-0.859543,-1.769080,1.869211,-13.596623
1790545972.8348,0.011700,0.013575,-0.187939,0.009134,0.016210,-0.187939,0.616873,-0.317060,-1.273565,-1.002520,2.203831,-10.142427
1790545972.8487,0.018592,0.017631,-0.272141,0.015755,0.017205,-0.272141,0.127574,-0.410549,-0.812191,0.683911,4.732071,-4.359560
1790545972.8627,0.024470,0.010500,-0.269278,0.021855,0.012512,-0.269278,0.432323,-0.211430,-0.559650,-2.152360,0.828171,-11.345574
1790545972.8767,0.041144,-0.000896,-0.282672,0.035358,0.003126,-0.282672,0.813564,-0.869495,-1.086587,-3.647151,2.687171,-13.402567
1790545972.8907,0.052350,-0.008734,-0.313546,0.047252,-0.005176,-0.313546,0.682436,-0.528321,-1.367054,-1.040848,3.951291,-8.667602
1790545972.9043,0.054746,-0.013701,-0.334128,0.052498,-0.011143,-0.334128,0.499101,-0.085159,-1.221357,0.952207,3.133331,-6.494175
1790545972.9183,0.053349,-0.022055,-0.348891,0.053094,-0.018782,-0.348891,0.593804,0.201378,-1.126654,0.645583,1.646131,-7.270399
1790545972.9330,0.062692,-0.033192,-0.367168,0.059812,-0.028869,-0.367168,0.737073,-0.440903,-1.029523,-1.079176,1.460231,-8.279490
1790545972.9473,0.050457,-0.041040,-0.374757,0.053263,-0.037388,-0.374757,0.466319,0.952932,-0.821904,0.032335,1.162791,-16.740329
1790545972.9614,0.028956,-0.028315,-0.389007,0.036248,-0.031037,-0.389007,-0.951799,1.733626,-0.744199,-2.842263,2.017931,-18.564455
1790545972.9754,0.030635,-0.010968,-0.379847,0.032319,-0.016989,-0.379847,-1.384033,0.209877,-0.592432,-3.992103,-0.696209,-8.978091
1790545972.9894,0.027670,0.006420,-0.366173,0.029065,-0.000603,-0.366173,-1.447169,0.702819,-0.651924,-4.298727,-1.105189,-5.485084
1790545973.0034,0.017714,0.019619,-0.372611,0.021119,0.013553,-0.372611,-1.085354,0.978429,-0.496514,-1.155832,-0.212869,-4.165504
1790545973.0174,0.002723,0.029485,-0.386156,0.008242,0.024705,-0.386156,-0.632479,1.222472,-0.583933,-0.005993,1.237151,-3.738581
1790545973.0314,0.013727,0.025616,-0.396894,0.012082,0.025343,-0.396894,0.272056,-0.502824,-0.729630,-3.033903,2.315371,-12.277042
1790545973.0455,0.006642,0.016163,-0.393986,0.008274,0.018917,-0.393986,0.733430,0.353146,0.178549,2.868606,3.876931,-12.820399
1790545973.0595,0.002173,0.013626,-0.389597,0.004003,0.015213,-0.389597,0.097220,0.412639,0.494226,-3.148887,0.567911,-10.763406
1790545973.0733,-0.002380,0.012954,-0.374784,-0.000465,0.013632,-0.374784,0.021943,0.052039,0.979882,2.523654,2.426911,-14.450469
1790545973.0873,-0.008372,0.006164,-0.364492,-0.006000,0.008404,-0.364492,0.427467,0.341005,0.800189,-0.389272,0.642271,-5.640329
1790545973.1014,-0.030967,0.000542,-0.351529,-0.023477,0.002901,-0.351529,0.466319,1.070704,0.828115,4.976645,1.869211,-4.708860
1790545973.1153,-0.043823,-0.007804,-0.340786,-0.037719,-0.004592,-0.340786,0.592590,0.716174,0.976240,1.297159,1.980751,-8.667602
1790545973.1289,-0.055003,-0.015035,-0.328444,-0.049818,-0.011902,-0.328444,0.483317,0.643326,1.058802,0.952207,1.943571,-10.569350
1790545973.1426,-0.057217,-0.018381,-0.318614,-0.054997,-0.016437,-0.318614,0.206493,0.130958,1.072157,-1.615768,2.315371,-10.685784
1790545973.1566,-0.049885,-0.013915,-0.307750,-0.051419,-0.014672,-0.307750,-0.314374,-0.608455,1.050303,-0.849208,3.133331,-10.336483
1790545973.1707,-0.040138,-0.008732,-0.290253,-0.043523,-0.010514,-0.290253,-0.447930,-0.880422,1.100083,0.607255,1.869211,-11.927742
1790545973.1850,-0.036463,-0.002944,-0.267347,-0.038581,-0.005215,-0.267347,-0.553560,-0.567174,0.951957,2.906934,0.121751,-9.909560
1790545973.1989,-0.030066,0.002224,-0.250248,-0.032620,-0.000008,-0.250248,-0.486782,-0.697087,0.745553,1.795423,0.456371,-8.628791
1790545973.2129,-0.020053,0.012118,-0.241647,-0.023823,0.008481,-0.241647,-0.691972,-0.960556,0.564646,2.102047,2.129471,-8.085434
1790545973.2268,-0.011370,0.024140,-0.227418,-0.015106,0.019442,-0.227418,-0.968797,-0.891350,0.384953,3.788478,0.753811,-11.888930
1790545973.2407,-0.000658,0.037116,-0.217568,-0.004993,0.031814,-0.217568,-1.011292,-0.983624,0.159122,3.405198,1.014071,-11.539630
1790545973.2548,-0.003056,0.036646,-0.219638,-0.003637,0.035196,-0.219638,-0.013267,0.038683,-0.246401,4.056774,1.497411,-11.888930
1790545973.2687,0.004674,0.032743,-0.242425,0.002181,0.033479,-0.242425,0.394685,-0.224786,-0.801264,-2.305671,3.021791,-7.774944
1790545973.2828,0.014383,0.024762,-0.259037,0.010722,0.027377,-0.259037,0.570735,-0.376553,-1.265066,-0.964192,1.757671,-8.861658
1790545973.2967,0.015818,0.020664,-0.292024,0.014289,0.022678,-0.292024,0.510028,-0.097301,-1.110870,2.178703,3.170511,-4.980539
1790545973.3108,0.015739,0.014876,-0.294921,0.015304,0.017217,-0.294921,0.371616,0.024113,-0.838902,2.255358,1.274331,-9.366203
1790545973.3249,0.033494,0.006310,-0.307400,0.028037,0.009582,-0.307400,0.562236,-0.885279,-1.130296,-4.030431,1.348691,-11.772497
1790545973.3387,0.042426,-0.004077,-0.331795,0.038109,0.000020,-0.331795,0.812350,-0.445760,-1.329416,0.147319,2.873071,-8.939280
1790545973.3524,0.047874,-0.006329,-0.367593,0.044945,-0.004424,-0.367593,0.346119,-0.144652,-1.348842,-0.504256,3.616671,-6.377742
1790545973.3661,0.054024,-0.008578,-0.395660,0.051300,-0.007332,-0.395660,0.252630,-0.188361,-1.297848,-0.925864,3.058971,-7.813756
1790545973.3798,0.057806,-0.016821,-0.415180,0.055854,-0.013974,-0.415180,0.570735,-0.041450,-1.199503,-0.925864,1.534591,-8.357112
1790545973.3938,0.049020,-0.024285,-0.435820,0.051070,-0.021192,-0.435820,0.551309,0.809663,-1.006454,-0.810880,3.244871,-12.781588
1790545973.4078,0.035680,-0.023502,-0.448641,0.040297,-0.022809,-0.448641,-0.080045,1.069490,-0.806121,-0.044320,3.021791,-19.263056
1790545973.4221,0.033204,-0.014891,-0.449785,0.035332,-0.017266,-0.449785,-0.747823,0.501271,-0.698062,-4.452038,-0.733389,-10.918651
1790545973.4369,0.030344,-0.001968,-0.442022,0.031840,-0.006557,-0.442022,-1.048930,0.599617,-0.600931,-4.222071,-1.105189,-6.532986
1790545973.4509,0.020129,0.013568,-0.452975,0.023642,0.007531,-0.452975,-1.217696,1.042779,-0.568149,-1.194160,0.010211,-3.428091
1790545973.4649,0.015180,0.023596,-0.461574,0.017718,0.018776,-0.461574,-0.829170,0.785381,-0.619143,-2.727279,-0.064149,-4.864105
1790545973.4791,0.007390,0.035204,-0.468150,0.010489,0.030276,-0.468150,-0.742966,0.662752,-0.411524,-0.197632,3.467951,-9.948371
1790545973.4931,0.012690,0.028235,-0.469347,0.012030,0.028847,-0.469347,0.437180,-0.325559,-0.010857,-1.654096,1.869211,-17.827042
1790545973.5073,0.003717,0.026606,-0.453801,0.006211,0.027278,-0.453801,0.144572,0.356788,0.796547,2.676966,3.133331,-11.850119
1790545973.5213,-0.001082,0.018992,-0.438458,0.001106,0.021478,-0.438458,0.493030,0.092105,1.018735,0.913879,1.237151,-9.133336
1790545973.5354,0.007542,0.014985,-0.429845,0.005611,0.016933,-0.429845,0.341263,-0.576887,0.676347,-2.497311,2.575631,-8.163056
1790545973.5494,-0.008450,0.012766,-0.416759,-0.004232,0.014016,-0.416759,0.275699,0.934720,0.542791,1.795423,2.947431,-7.115154
1790545973.5633,-0.024376,0.003073,-0.407272,-0.018333,0.006356,-0.407272,0.665438,0.961431,0.580430,2.332014,1.794851,-12.082986
1790545973.5773,-0.036301,-0.006521,-0.396020,-0.030910,-0.002658,-0.396020,0.737073,0.677322,0.813545,1.373815,3.170511,-10.220049
1790545973.5908,-0.049472,-0.011119,-0.385155,-0.043904,-0.008581,-0.385155,0.437180,0.797522,0.899749,1.220503,3.839751,-9.288581
1790545973.6045,-0.052979,-0.013987,-0.378389,-0.050257,-0.012365,-0.378389,0.285412,0.177095,0.864539,-0.197632,3.170511,-8.163056
1790545973.6185,-0.051277,-0.018587,-0.366269,-0.050971,-0.016720,-0.366269,0.320622,-0.264852,0.756480,1.105519,2.538451,-10.841028
1790545973.6324,-0.041612,-0.020012,-0.356244,-0.044420,-0.019025,-0.356244,0.000089,-0.790576,0.625353,0.492271,0.865351,-14.101168
1790545973.6464,-0.033435,-0.017959,-0.341128,-0.036731,-0.018279,-0.341128,-0.229384,-0.762651,0.539149,2.523654,1.014071,-13.402567
1790545973.6604,-0.029401,-0.013665,-0.319548,-0.031600,-0.015049,-0.319548,-0.421219,-0.587814,0.518508,3.405198,0.084571,-8.318301
1790545973.6745,-0.025305,-0.005677,-0.302547,-0.027193,-0.008489,-0.302547,-0.645835,-0.618168,0.428662,3.443526,0.456371,-6.921098
1790545973.6889,-0.011616,0.002760,-0.292335,-0.016289,-0.000615,-0.292335,-0.656762,-1.032190,0.274466,0.683911,0.902531,-11.112707
1790545973.7031,-0.002480,0.014266,-0.285769,-0.006623,0.009802,-0.285769,-0.853453,-0.896206,0.064419,4.785005,1.423051,-11.267951
1790545973.7171,0.011846,0.032437,-0.283306,0.006305,0.025647,-0.283306,-1.305114,-1.216740,-0.157769,4.210086,2.241011,-11.539630
1790545973.7312,0.013270,0.043942,-0.275487,0.011180,0.038454,-0.275487,-0.976082,-0.187147,-0.303466,3.175230,-0.584669,-12.742777
1790545973.7452,-0.003198,0.042186,-0.287940,0.001116,0.041067,-0.287940,0.111790,1.343886,-0.814620,0.952207,1.832031,-10.064805
1790545973.7592,0.024499,0.031544,-0.328306,0.017484,0.034400,-0.328306,0.743144,-1.429215,-1.194646,-8.054869,1.832031,-12.665154
1790545973.7733,0.025055,0.021678,-0.346124,0.022784,0.025495,-0.346124,0.722503,0.235374,-0.914179,-1.577440,2.426911,-9.870749
1790545973.7872,0.025209,0.014350,-0.356858,0.024481,0.017693,-0.356858,0.539168,0.087249,-0.733272,0.568927,2.055111,-9.055714
1790545973.8011,0.036916,0.008912,-0.373114,0.033186,0.011546,-0.373114,0.386186,-0.565960,-1.034379,-1.960720,2.166651,-10.841028
1790545973.8148,0.044535,-0.003056,-0.391635,0.041130,0.001325,-0.391635,0.805065,-0.221143,-1.325773,-1.922392,1.051251,-9.521448
1790545973.8284,0.051498,-0.010943,-0.420222,0.048388,-0.007263,-0.420222,0.693364,-0.221143,-1.384052,-0.810880,2.501271,-5.601518
1790545973.8425,0.058290,-0.013805,-0.447403,0.055319,-0.011843,-0.447403,0.420182,-0.297634,-1.249282,-0.082648,3.058971,-4.398371
1790545973.8564,0.063241,-0.025761,-0.462015,0.060865,-0.021586,-0.462015,0.800208,-0.184719,-1.115727,-0.465928,1.237151,-9.172147
1790545973.8703,0.053091,-0.032209,-0.471229,0.055423,-0.029022,-0.471229,0.364331,0.825447,-0.917822,0.607255,1.051251,-18.137532
1790545973.8843,0.040384,-0.019602,-0.488989,0.044896,-0.022428,-0.488989,-0.933587,1.137482,-0.719916,-4.107087,2.798711,-19.418301
1790545973.8982,0.041065,-0.004732,-0.502611,0.042214,-0.010041,-0.502611,-1.198270,0.317936,-0.517155,-4.911974,-0.287229,-9.133336
1790545973.9121,0.031679,0.011989,-0.513743,0.034840,0.005380,-0.513743,-1.381605,1.001498,-0.565720,-1.960720,-0.584669,-4.980539
1790545973.9264,0.014407,0.028109,-0.519275,0.020537,0.021290,-0.519275,-1.184914,1.217615,-0.613072,0.568927,0.307651,-2.380189
1790545973.9409,0.002086,0.035137,-0.527854,0.007621,0.030983,-0.527854,-0.458857,0.914080,-0.565720,0.837223,1.571771,-6.300119
1790545973.9551,0.019933,0.021027,-0.534619,0.016239,0.024014,-0.534619,0.930121,-1.063758,-0.609430,-2.075704,1.088431,-12.820399
1790545973.9691,0.001675,0.020713,-0.525624,0.006044,0.021703,-0.525624,0.114218,1.080417,0.523365,4.401726,5.959010,-16.119350
1790545973.9832,-0.002781,0.012016,-0.517787,-0.000133,0.014922,-0.517787,0.468747,0.349504,0.728555,-3.800463,-0.733389,-14.178791
1790545973.9972,-0.006962,0.006694,-0.503081,-0.004914,0.009163,-0.503081,0.324265,0.066608,0.978668,1.028863,1.125611,-9.327392
1790545974.0110,-0.013763,-0.001227,-0.493829,-0.011108,0.001890,-0.493829,0.438394,0.527982,0.811117,-1.270816,-0.101329,-4.825294
1790545974.0250,-0.034381,-0.009905,-0.475107,-0.027399,-0.006366,-0.475107,0.621729,0.994213,1.049089,4.056774,1.348691,-5.756762
1790545974.0390,-0.046275,-0.022694,-0.461615,-0.040612,-0.017795,-0.461615,0.897340,0.697962,1.163218,0.185647,1.683311,-7.580888
1790545974.0527,-0.061220,-0.028917,-0.448586,-0.055038,-0.025580,-0.448586,0.477246,0.954146,1.271277,0.108991,3.319231,-10.491728
1790545974.0664,-0.061259,-0.030737,-0.438149,-0.059393,-0.029190,-0.438149,0.162784,0.001045,1.072157,-1.999048,3.691031,-10.879840
1790545974.0803,-0.057820,-0.033390,-0.423351,-0.058292,-0.032130,-0.423351,0.072937,-0.337701,1.157147,-0.657568,1.125611,-11.850119
1790545974.0944,-0.050320,-0.032812,-0.408859,-0.052711,-0.032607,-0.408859,-0.222099,-0.649735,0.951957,0.338959,-0.547489,-13.286133
1790545974.1085,-0.045502,-0.028826,-0.389777,-0.047665,-0.029960,-0.389777,-0.416362,-0.677661,0.846327,4.746677,0.084571,-10.918651
1790545974.1225,-0.037453,-0.020375,-0.373963,-0.040517,-0.023251,-0.373963,-0.710184,-0.897420,0.724913,3.596838,0.456371,-8.745224
1790545974.1365,-0.027622,-0.011052,-0.359150,-0.031491,-0.014712,-0.359150,-0.793960,-0.953271,0.672705,1.565455,0.084571,-5.950818
1790545974.1505,-0.018332,-0.001462,-0.347830,-0.022280,-0.005437,-0.347830,-0.772106,-0.859782,0.518508,1.527127,0.530731,-7.774944
1790545974.1644,-0.006711,0.009627,-0.340981,-0.011381,0.005108,-0.340981,-0.842526,-1.023691,0.290250,2.255358,1.274331,-9.948371
1790545974.1784,0.002092,0.022963,-0.336536,-0.001950,0.017607,-0.336536,-1.033146,-0.835499,0.047421,4.363398,0.753811,-13.014455
1790545974.1929,0.001573,0.027298,-0.338877,0.000516,0.024391,-0.338877,-0.375081,0.045968,-0.438235,2.102047,0.939711,-14.139979
1790545974.2069,0.004369,0.022139,-0.349157,0.003213,0.022814,-0.349157,0.323050,-0.018382,-1.023452,0.607255,1.385871,-13.247322
1790545974.2210,0.016586,0.011592,-0.363897,0.012574,0.014959,-0.363897,0.785639,-0.477327,-1.129082,-3.417183,2.575631,-10.375294
1790545974.2350,0.015638,0.007700,-0.395402,0.014719,0.009878,-0.395402,0.483317,-0.000169,-0.689563,1.872079,2.835891,-4.825294
1790545974.2489,0.018900,-0.001912,-0.401789,0.017645,0.001625,-0.401789,0.630228,-0.105800,-0.800050,0.185647,0.976891,-11.733686
1790545974.2630,0.034097,-0.010634,-0.420420,0.029161,-0.006956,-0.420420,0.675152,-0.807574,-1.181290,-1.960720,3.133331,-11.267951
1790545974.2766,0.041097,-0.021272,-0.443052,0.037516,-0.016977,-0.443052,0.794138,-0.266066,-1.486040,-0.427600,1.943571,-8.318301
1790545974.2905,0.044384,-0.023882,-0.473164,0.042323,-0.021810,-0.473164,0.365545,-0.092444,-1.379196,0.453943,2.873071,-5.213406
1790545974.3046,0.051715,-0.030673,-0.487868,0.048897,-0.028014,-0.487868,0.443250,-0.353485,-1.109656,-0.350944,1.014071,-7.231588
1790545974.3186,0.061492,-0.038901,-0.503869,0.057714,-0.035635,-0.503869,0.596232,-0.499182,-0.934820,-1.500784,1.832031,-8.706413
1790545974.3326,0.039175,-0.037238,-0.520190,0.044736,-0.036757,-0.520190,-0.092186,1.706914,-0.706561,-0.465928,4.732071,-19.806413
1790545974.3465,0.034300,-0.021910,-0.526936,0.037431,-0.026364,-0.526936,-1.135134,0.769597,-0.712632,-9.358020,1.980751,-15.265504
1790545974.3606,0.029753,-0.006640,-0.529747,0.032056,-0.012557,-0.529747,-1.221338,0.634827,-0.514726,-4.298727,-0.621849,-10.414105
1790545974.3746,0.021906,0.013098,-0.532435,0.024951,0.005401,-0.532435,-1.362179,1.034280,-0.450377,-2.765607,0.939711,-3.195224
1790545974.3886,0.007860,0.022175,-0.535885,0.012987,0.017143,-0.535885,-1.014934,1.088916,-0.449163,0.108991,-0.882109,-1.875644
1790545974.4025,0.002747,0.028989,-0.542802,0.005819,0.025435,-0.542802,-0.525635,0.780524,-0.611858,-1.385800,0.344831,-2.807112
1790545974.4165,0.006685,0.022426,-0.552259,0.006425,0.023329,-0.552259,0.478461,-0.255139,-0.702918,3.328542,3.542311,-16.934385
1790545974.4308,-0.001592,0.023120,-0.548263,0.000813,0.023183,-0.548263,-0.005982,0.418710,0.336387,3.251886,4.583351,-16.196973
1790545974.4452,-0.009016,0.018265,-0.539025,-0.006067,0.019740,-0.539025,0.219848,0.415067,0.795333,-0.619240,0.196111,-10.258860
1790545974.4593,-0.010974,0.013614,-0.527463,-0.009502,0.015452,-0.527463,0.287840,-0.014739,0.849969,0.108991,1.348691,-8.745224
1790545974.4735,-0.022274,0.006589,-0.521723,-0.018442,0.009248,-0.521723,0.366760,0.495201,0.733412,2.255358,-0.101329,-6.494175
1790545974.4875,-0.041611,-0.005770,-0.514273,-0.034661,-0.001265,-0.514273,0.879128,1.011211,0.921604,4.325070,2.055111,-9.094525
1790545974.5015,-0.056551,-0.020970,-0.503267,-0.049984,-0.015058,-0.503267,1.061249,0.920150,0.973812,0.722239,2.017931,-9.831937
1790545974.5153,-0.070086,-0.028997,-0.492403,-0.064055,-0.024815,-0.492403,0.629014,0.833946,1.010236,1.067191,3.542311,-10.297672
1790545974.5290,-0.076326,-0.037871,-0.477396,-0.072645,-0.033954,-0.477396,0.616873,0.400498,1.109796,-0.849208,2.835891,-11.423196
1790545974.5431,-0.068196,-0.039382,-0.460831,-0.069531,-0.037753,-0.460831,0.011016,-0.706800,1.084299,0.530599,1.943571,-13.363756
1790545974.5571,-0.061136,-0.033637,-0.446812,-0.063655,-0.034872,-0.446812,-0.498924,-0.631523,0.911891,0.875551,1.534591,-12.393476
1790545974.5710,-0.058825,-0.031314,-0.430729,-0.060274,-0.032382,-0.430729,-0.356869,-0.490683,0.905820,3.635166,-0.584669,-8.900469
1790545974.5849,-0.049035,-0.023280,-0.418222,-0.052407,-0.026011,-0.418222,-0.642193,-0.981196,0.840256,2.446998,1.237151,-7.891378
1790545974.5988,-0.041606,-0.013687,-0.404046,-0.044846,-0.017384,-0.404046,-0.840098,-0.829428,0.694559,3.481854,-0.175689,-9.521448
1790545974.6126,-0.033385,-0.002217,-0.393708,-0.036824,-0.006767,-0.393708,-0.933587,-0.825786,0.541577,2.485326,0.493551,-9.249770
1790545974.6265,-0.021071,0.009734,-0.386586,-0.025797,0.004784,-0.386586,-0.950585,-1.101396,0.285393,2.408670,0.567911,-8.512357
1790545974.6405,-0.010083,0.022540,-0.381978,-0.014797,0.017213,-0.381978,-1.018577,-1.001837,0.058349,3.251886,0.307651,-9.327392
1790545974.6543,-0.007585,0.027709,-0.377484,-0.009748,0.024560,-0.377484,-0.511065,-0.177434,-0.355674,2.178703,-0.510309,-16.391028
1790545974.6682,-0.008887,0.020698,-0.382947,-0.009145,0.021857,-0.382947,0.472390,0.396855,-0.976100,-1.960720,1.534591,-13.868301
1790545974.6826,-0.002113,0.007328,-0.398311,-0.004223,0.011686,-0.398311,0.966546,-0.215073,-1.189789,-0.465928,2.092291,-10.064805
1790545974.6970,0.003466,0.008050,-0.422755,0.001159,0.009141,-0.422755,-0.012053,-0.541677,-0.540223,3.251886,1.608951,-7.037532
1790545974.7111,0.010295,-0.003928,-0.419018,0.007554,-0.000007,-0.419018,0.786853,-0.261210,-0.593646,-2.497311,0.902531,-12.781588
1790545974.7251,0.028854,-0.016387,-0.419035,0.022464,-0.011473,-0.419035,0.858487,-0.930202,-1.033165,-4.873646,1.237151,-10.996273
1790545974.7388,0.037327,-0.024259,-0.449549,0.032868,-0.020423,-0.449549,0.718861,-0.446974,-1.317274,0.108991,2.835891,-6.377742
1790545974.7525,0.039342,-0.028352,-0.484147,0.037400,-0.025973,-0.484147,0.518527,-0.075446,-1.099943,0.683911,2.984611,-4.941727
1790545974.7683,0.045507,-0.039771,-0.496971,0.043075,-0.035631,-0.496971,0.686079,-0.250283,-0.944533,-0.427600,0.902531,-8.240679
1790545974.7830,0.043043,-0.049300,-0.503022,0.043053,-0.045200,-0.503022,0.553737,0.308223,-0.776981,-1.232488,0.121751,-13.519000
1790545974.7976,0.031533,-0.035833,-0.514541,0.034989,-0.038643,-0.514541,-0.894734,1.008783,-0.671351,-4.222071,3.988471,-17.788231
1790545974.8124,0.024113,-0.019844,-0.515002,0.027376,-0.025484,-0.515002,-1.177629,0.789023,-0.594860,-3.148887,-0.026969,-8.784035
1790545974.8273,0.017420,-0.004198,-0.511302,0.020407,-0.010584,-0.511302,-1.232266,0.826661,-0.479516,-3.723807,-1.328269,-6.222497
1790545974.8414,0.006319,0.008546,-0.519767,0.010546,0.002807,-0.519767,-1.132706,0.835160,-0.333819,0.262303,-0.993649,-4.902916
1790545974.8551,-0.000638,0.019186,-0.516555,0.002717,0.014272,-0.516555,-0.876522,0.901938,-0.430951,-2.343999,-0.026969,-4.553616
1790545974.8692,-0.014029,0.033633,-0.529684,-0.009006,0.027825,-0.529684,-0.866809,0.997855,-0.377528,0.875551,3.653851,-7.464455
1790545974.8835,-0.007674,0.030232,-0.526873,-0.008073,0.029510,-0.526873,0.156713,-0.404479,0.001284,-1.002520,1.199971,-16.701518
1790545974.8974,-0.007500,0.028915,-0.517864,-0.007672,0.029094,-0.517864,0.075365,-0.173792,0.694559,0.683911,2.761531,-13.713056
1790545974.9114,-0.011590,0.023377,-0.511348,-0.010415,0.025092,-0.511348,0.278127,0.042326,0.902177,1.680439,0.456371,-12.199420
1790545974.9254,-0.023722,0.014579,-0.535171,-0.019730,0.017733,-0.535171,0.729788,0.440564,0.528222,3.213558,1.832031,-4.320748
1790545974.9395,-0.037926,0.008952,-0.539793,-0.032467,0.011586,-0.539793,0.491816,0.727102,0.525793,3.060246,2.873071,-7.270399
1790545974.9539,-0.051513,-0.003279,-0.534673,-0.045799,0.001181,-0.534673,0.834204,0.789023,0.682418,1.642111,2.129471,-10.841028
1790545974.9675,-0.067929,-0.011105,-0.532909,-0.061290,-0.007419,-0.532909,0.660582,1.014853,0.762551,1.910407,3.467951,-8.822846
1790545974.9812,-0.077816,-0.015436,-0.526993,-0.072858,-0.013031,-0.526993,0.400756,0.595974,0.834185,0.913879,3.839751,-9.172147
1790545974.9952,-0.077306,-0.020673,-0.516207,-0.075972,-0.018381,-0.516207,0.367974,-0.115513,0.830543,0.070663,3.058971,-10.957462
1790545975.0092,-0.074080,-0.022064,-0.508664,-0.074647,-0.020959,-0.508664,0.115432,-0.340129,0.672705,1.143847,3.467951,-11.850119
1790545975.0232,-0.057154,-0.022724,-0.495485,-0.062402,-0.022195,-0.495485,-0.043620,-1.250736,0.564646,-0.197632,1.385871,-13.324944
1790545975.0374,-0.049954,-0.014411,-0.485516,-0.053688,-0.016746,-0.485516,-0.568130,-0.771150,0.514866,3.865134,2.798711,-10.064805
1790545975.0512,-0.043519,-0.008246,-0.468742,-0.046570,-0.010796,-0.468742,-0.580271,-0.698301,0.460230,2.868606,0.010211,-9.172147
1790545975.0652,-0.036416,-0.001964,-0.452807,-0.039462,-0.004614,-0.452807,-0.568130,-0.806360,0.238042,3.520182,0.010211,-6.959909
1790545975.0792,-0.024934,0.005765,-0.444150,-0.029293,0.002651,-0.444150,-0.623980,-0.860996,0.131197,0.415615,0.753811,-8.628791
1790545975.0932,-0.016083,0.018185,-0.444814,-0.020046,0.013525,-0.444814,-0.904447,-0.816073,-0.046068,3.903462,1.832031,-11.190329
1790545975.1073,-0.002087,0.033574,-0.445615,-0.007475,0.027559,-0.445615,-1.130278,-1.154818,-0.291324,3.750150,1.534591,-10.452916
1790545975.1212,-0.012972,0.035278,-0.452349,-0.011323,0.032963,-0.452349,-0.171105,0.746528,-0.573005,3.711822,1.199971,-11.345574
1790545975.1352,0.001271,0.031419,-0.444253,-0.002507,0.031882,-0.444253,0.278127,-0.338915,-1.313632,-7.096669,1.460231,-7.969000
1790545975.1492,0.017286,0.022331,-0.455806,0.011348,0.025197,-0.455806,0.694578,-0.660663,-1.078088,-4.720334,2.389731,-8.667602
1790545975.1631,0.012029,0.010726,-0.467591,0.011825,0.015067,-0.467591,0.797780,0.509770,-0.836474,0.683911,1.348691,-10.646972
1790545975.1770,0.026299,0.003226,-0.478115,0.021957,0.006778,-0.478115,0.541596,-0.691016,-1.107228,-2.458983,1.794851,-9.366203
1790545975.1911,0.036733,-0.003726,-0.497848,0.032300,-0.000575,-0.497848,0.548881,-0.510109,-1.227428,-0.657568,2.984611,-9.870749
1790545975.2054,0.044111,-0.016368,-0.515167,0.040568,-0.011630,-0.515167,0.860915,-0.245426,-1.318488,-1.040848,1.423051,-8.085434
1790545975.2192,0.055765,-0.021743,-0.537749,0.051206,-0.018709,-0.537749,0.485745,-0.591457,-1.243212,-1.002520,2.501271,-6.300119
1790545975.2336,0.061187,-0.030013,-0.558023,0.058192,-0.026622,-0.558023,0.603517,-0.236927,-1.178862,0.032335,2.092291,-7.542077
1790545975.2477,0.048817,-0.038681,-0.574401,0.051630,-0.035063,-0.574401,0.629014,1.025781,-0.846187,-1.079176,3.467951,-15.110259
1790545975.2617,0.035064,-0.030024,-0.593396,0.040034,-0.031536,-0.593396,-0.593627,1.216401,-1.012525,-3.532167,5.066691,-21.281238
1790545975.2760,0.035242,-0.014682,-0.605652,0.036679,-0.019738,-0.605652,-1.122993,0.483059,-0.778195,-6.828373,0.679451,-8.163056
1790545975.2900,0.035537,0.002245,-0.616263,0.035880,-0.004350,-0.616263,-1.365821,0.458776,-0.755127,-4.835318,-0.696209,-6.688231
1790545975.3041,0.031005,0.015409,-0.626794,0.032468,0.009481,-0.626794,-1.119350,0.673679,-0.551151,-2.267343,-0.659029,-4.980539
1790545975.3181,0.010652,0.024831,-0.643066,0.017197,0.020226,-0.643066,-0.687116,1.416734,-0.597288,0.760567,0.456371,-2.457811
1790545975.3322,0.009389,0.031971,-0.644971,0.011732,0.028448,-0.644971,-0.348370,0.486702,-0.789123,-3.148887,3.653851,-6.998721
1790545975.3462,0.013277,0.024326,-0.644080,0.012813,0.025563,-0.644080,0.527026,-0.344986,0.082631,1.297159,2.984611,-17.361308
1790545975.3602,0.006558,0.013245,-0.637574,0.008434,0.016940,-0.637574,0.693364,0.456348,0.735840,-1.999048,0.344831,-11.345574
1790545975.3741,0.001440,0.009621,-0.624116,0.003538,0.011817,-0.624116,0.207707,0.181952,1.121937,-0.235960,1.497411,-12.665154
1790545975.3881,-0.000265,0.004360,-0.613242,0.000876,0.006597,-0.613242,0.319408,-0.025666,0.893678,-0.082648,0.828171,-7.503266
1790545975.4021,-0.019695,-0.003965,-0.605787,-0.013524,-0.000796,-0.605787,0.684865,0.863086,0.937388,3.596838,1.646131,-3.893825
1790545975.4162,-0.030804,-0.016718,-0.592291,-0.025620,-0.011942,-0.592291,0.880342,0.575334,1.098868,0.913879,1.385871,-7.697322
1790545975.4299,-0.042335,-0.027006,-0.577212,-0.037321,-0.022487,-0.577212,0.723717,0.696748,1.163218,0.147319,1.869211,-9.560259
1790545975.4440,-0.047881,-0.029922,-0.559258,-0.044713,-0.027691,-0.559258,0.290269,0.371358,1.040590,-1.577440,3.988471,-9.870749
1790545975.4585,-0.046716,-0.031781,-0.543889,-0.046115,-0.030554,-0.543889,0.059582,-0.136153,1.047874,-1.194160,1.608951,-11.423196
1790545975.4726,-0.041720,-0.032848,-0.532924,-0.043039,-0.032160,-0.532924,-0.041192,-0.510109,0.857254,1.297159,0.493551,-12.975644
1790545975.4866,-0.037963,-0.029341,-0.523272,-0.039486,-0.030187,-0.523272,-0.333800,-0.502824,0.735840,3.520182,1.014071,-13.286133
1790545975.5004,-0.032699,-0.019933,-0.515370,-0.034735,-0.023009,-0.515370,-0.783033,-0.699515,0.621711,3.903462,0.307651,-9.016902
1790545975.5145,-0.022475,-0.010234,-0.506700,-0.026153,-0.014066,-0.506700,-0.789104,-1.061330,0.561003,3.290214,0.233291,-7.115154
1790545975.5287,-0.013555,0.001299,-0.499404,-0.017335,-0.003311,-0.499404,-0.910518,-0.881637,0.422591,2.370342,0.307651,-7.464455
1790545975.5426,-0.004458,0.014472,-0.495944,-0.008321,0.009137,-0.495944,-0.983366,-0.902277,0.251397,3.021918,1.162791,-8.589979
1790545975.5566,0.001554,0.024922,-0.490705,-0.001409,0.020187,-0.490705,-0.876522,-0.534392,-0.006001,2.715294,-0.175689,-15.731238
1790545975.5705,0.004794,0.025617,-0.494611,0.002933,0.023988,-0.494611,-0.109184,-0.103371,-0.582718,-0.235960,1.497411,-15.653616
1790545975.5845,0.012147,0.021113,-0.508917,0.009383,0.021975,-0.508917,0.335192,-0.236927,-1.217715,-1.040848,2.538451,-12.082986
1790545975.5985,0.020620,0.017325,-0.542946,0.017249,0.018720,-0.542946,0.571950,-0.604812,-1.131511,1.948735,3.728211,-4.087881
1790545975.6125,0.023155,0.012435,-0.555915,0.021383,0.014320,-0.555915,0.445679,-0.230856,-0.688349,1.335487,1.608951,-4.281937
1790545975.6264,0.031117,0.003171,-0.559893,0.028197,0.006516,-0.559893,0.579234,-0.399622,-0.820690,-0.695896,0.567911,-10.530539
1790545975.6404,0.040226,-0.003679,-0.579516,0.036617,-0.000621,-0.579516,0.556166,-0.471257,-1.119369,-0.159304,3.728211,-11.500819
1790545975.6540,0.042144,-0.009029,-0.601791,0.040486,-0.006507,-0.601791,0.411683,0.084821,-1.405907,-0.120976,2.835891,-11.035084
1790545975.6676,0.042201,-0.009272,-0.625096,0.041686,-0.008442,-0.625096,0.115432,0.156455,-1.249282,0.377287,2.835891,-7.192776
1790545975.6812,0.046659,-0.013137,-0.635792,0.045167,-0.011728,-0.635792,0.235632,-0.193218,-0.967601,-0.005993,1.051251,-8.124245
1790545975.6953,0.052214,-0.018244,-0.652465,0.050100,-0.016289,-0.652465,0.429895,-0.207788,-0.815834,-1.232488,2.798711,-8.667602
1790545975.7099,0.049623,-0.019825,-0.667076,0.049766,-0.018765,-0.667076,0.161570,0.365287,-0.627642,-1.884064,2.910251,-9.870749
1790545975.7240,0.028362,-0.013196,-0.681560,0.034783,-0.014867,-0.681560,-0.454001,1.760337,-0.594860,-4.413711,4.062831,-17.827042
1790545975.7380,0.024827,0.000633,-0.685278,0.027814,-0.004017,-0.685278,-1.025861,0.581405,-0.564506,-5.371910,1.423051,-12.703965
1790545975.7519,0.022763,0.009575,-0.679968,0.024278,0.005497,-0.679968,-0.768463,0.442992,-0.252472,-3.800463,-0.287229,-8.589979
1790545975.7659,0.013520,0.023891,-0.686215,0.016748,0.018373,-0.686215,-0.939657,0.848516,-0.264613,-1.270816,2.017931,-5.756762
1790545975.7799,0.011079,0.032577,-0.683993,0.012780,0.028316,-0.683993,-0.666475,0.587475,-0.314393,-1.769080,0.307651,-2.651867
1790545975.7939,0.012571,0.025778,-0.691927,0.012633,0.026539,-0.691927,0.451749,0.050825,-0.446734,-1.769080,2.352551,-16.429840
1790545975.8078,0.009029,0.019736,-0.684296,0.010110,0.021777,-0.684296,0.420182,0.122459,0.575573,0.722239,3.133331,-17.671798
1790545975.8218,0.003115,0.009680,-0.672862,0.005213,0.013309,-0.672862,0.635085,0.262085,1.012664,-0.389272,0.753811,-12.587532
1790545975.8358,-0.000692,-0.003070,-0.654961,0.001080,0.001843,-0.654961,0.857273,-0.053592,1.124365,1.987063,0.939711,-8.745224
1790545975.8498,-0.012608,-0.011815,-0.644763,-0.008501,-0.007717,-0.644763,0.649655,0.711318,0.784406,0.492271,1.832031,-7.969000
1790545975.8638,-0.029333,-0.018283,-0.630703,-0.023083,-0.015114,-0.630703,0.563451,0.982072,0.777121,1.297159,2.166651,-5.679140
1790545975.8777,-0.040867,-0.029109,-0.621303,-0.035532,-0.024910,-0.621303,0.789281,0.729530,0.772264,0.377287,2.092291,-9.366203
1790545975.8913,-0.058051,-0.040144,-0.607308,-0.051295,-0.035574,-0.607308,0.822063,1.052492,0.939816,2.332014,2.464091,-10.336483
1790545975.9050,-0.065934,-0.048131,-0.597050,-0.061543,-0.044364,-0.597050,0.621729,0.549837,0.939816,-0.695896,3.058971,-10.064805
1790545975.9190,-0.065041,-0.051991,-0.583748,-0.063991,-0.049703,-0.583748,0.332764,-0.122798,0.942244,-0.235960,4.174371,-11.694875
1790545975.9330,-0.055954,-0.054558,-0.571729,-0.058365,-0.053101,-0.571729,0.059582,-0.754152,0.794119,1.028863,0.344831,-13.829490
1790545975.9471,-0.049241,-0.052860,-0.556535,-0.051978,-0.052933,-0.556535,-0.219671,-0.664305,0.700630,2.983590,0.530731,-12.975644
1790545975.9617,-0.043792,-0.048859,-0.536095,-0.046248,-0.050081,-0.536095,-0.439431,-0.655806,0.670276,3.673494,-0.882109,-8.745224
1790545975.9757,-0.034442,-0.040637,-0.523086,-0.037984,-0.043470,-0.523086,-0.723540,-0.860996,0.482084,2.408670,-0.435949,-9.249770
1790545975.9897,-0.025007,-0.028999,-0.511785,-0.028900,-0.033340,-0.511785,-1.007649,-0.914418,0.276894,3.060246,-1.105189,-8.007811
1790545976.0038,-0.015780,-0.010998,-0.506118,-0.019716,-0.017700,-0.506118,-1.353680,-0.931416,0.193118,4.133430,0.344831,-8.861658
1790545976.0178,0.000019,0.008842,-0.500449,-0.005902,0.000879,-0.500449,-1.489664,-1.338154,0.059563,3.021918,0.753811,-9.521448
1790545976.0318,0.013438,0.030758,-0.497301,0.007636,0.021794,-0.497301,-1.656001,-1.247093,-0.002358,3.711822,0.382011,-7.697322
1790545976.0458,0.003075,0.038584,-0.494688,0.004443,0.033547,-0.494688,-0.732039,0.706461,-0.404240,4.286742,-1.365448,-17.632987
1790545976.0598,0.016699,0.028620,-0.504665,0.013022,0.030098,-0.504665,0.700649,-0.544105,-0.746628,-6.253454,2.017931,-11.462007
1790545976.0737,0.017468,0.025503,-0.533036,0.016134,0.026881,-0.533036,0.429895,0.222019,-0.766054,-2.382327,5.996190,-9.948371
1790545976.0878,0.008987,0.020931,-0.546055,0.011131,0.022716,-0.546055,0.378901,0.714960,-0.554793,0.185647,2.203831,-7.619700
1790545976.1017,0.013439,0.022457,-0.549847,0.012747,0.022535,-0.549847,-0.163821,-0.000169,-0.520797,-3.340527,0.865351,-8.745224
1790545976.1155,0.019365,0.015676,-0.552235,0.017379,0.017734,-0.552235,0.307267,-0.006240,-0.700490,-4.375383,-1.253909,-8.124245
1790545976.1292,0.025257,0.016715,-0.562092,0.022894,0.017021,-0.562092,-0.001126,-0.020810,-0.597288,-3.992103,2.352551,-6.727042
1790545976.1432,0.026857,0.021275,-0.569576,0.025668,0.019998,-0.569576,-0.349584,0.190451,-0.551151,-2.995575,1.385871,-8.357112
1790545976.1573,0.029122,0.024574,-0.575425,0.028086,0.023201,-0.575425,-0.213600,0.043540,-0.497728,-2.075704,2.612811,-10.375294
1790545976.1714,0.029849,0.030462,-0.580728,0.029320,0.028284,-0.580728,-0.292520,0.111532,-0.506227,-0.925864,3.356411,-7.348021
1790545976.1855,0.023844,0.040543,-0.583437,0.025487,0.036865,-0.583437,-0.418790,0.485487,-0.167482,-0.312616,5.587211,-6.222497
1790545976.1998,0.018608,0.043173,-0.591287,0.020672,0.041281,-0.591287,-0.171105,0.535267,-0.288896,-2.075704,3.133331,-12.471098
1790545976.2144,0.013044,0.045606,-0.597658,0.015332,0.044309,-0.597658,-0.126182,0.512199,-0.328963,-0.964192,3.393591,-11.345574
1790545976.2285,0.012697,0.047793,-0.597897,0.013488,0.046747,-0.597897,-0.084901,0.062966,-0.146841,-0.082648,4.137191,-11.772497
1790545976.2425,0.015764,0.045761,-0.590216,0.015081,0.046057,-0.590216,0.239275,-0.351056,0.128769,1.488799,3.542311,-8.978091
1790545976.2566,0.017776,0.034353,-0.573520,0.016968,0.037864,-0.573520,0.877913,-0.490683,0.732197,2.485326,2.538451,-7.697322
1790545976.2706,0.003920,0.021424,-0.556235,0.007834,0.026356,-0.556235,0.999328,0.563193,1.085513,3.251886,2.687171,-7.697322
1790545976.2844,-0.005873,0.017652,-0.541782,-0.001761,0.020263,-0.541782,0.301196,0.497629,1.380549,-0.657568,3.170511,-11.345574
1790545976.2984,-0.009929,0.013612,-0.527869,-0.007478,0.015607,-0.527869,0.174925,0.099390,1.240923,-0.619240,0.605091,-13.130889
1790545976.3124,-0.015125,0.013704,-0.507242,-0.012831,0.014275,-0.507242,-0.082473,0.022899,1.257921,2.063719,1.088431,-9.366203
1790545976.3265,-0.022957,0.009713,-0.489615,-0.019919,0.011082,-0.489615,0.258701,0.299724,1.278561,0.645583,1.757671,-8.201867
1790545976.3406,-0.030400,0.007515,-0.470831,-0.027256,0.008585,-0.470831,0.161570,0.207449,1.276133,1.718767,2.315371,-8.201867
1790545976.3542,-0.033380,0.007441,-0.455934,-0.031543,0.007784,-0.455934,0.007373,-0.006240,1.185072,0.683911,2.798711,-10.025993
1790545976.3678,-0.029593,0.008781,-0.439356,-0.030178,0.008482,-0.439356,-0.123754,-0.507681,1.181430,0.607255,2.612811,-10.879840
1790545976.3818,-0.026942,0.012489,-0.420976,-0.027913,0.011287,-0.420976,-0.275522,-0.462758,1.169289,1.412143,2.835891,-10.841028
1790545976.3958,-0.024653,0.015761,-0.402267,-0.025631,0.014419,-0.402267,-0.260952,-0.451830,1.101297,1.642111,2.278191,-9.987182
1790545976.4100,-0.021925,0.018272,-0.385484,-0.023037,0.017116,-0.385484,-0.247596,-0.416620,0.941030,0.990535,1.423051,-10.142427
1790545976.4240,-0.013094,0.027607,-0.378376,-0.016077,0.024460,-0.378376,-0.593627,-0.777220,0.752838,0.070663,3.170511,-8.279490
1790545976.4381,-0.006711,0.034625,-0.366423,-0.009521,0.031576,-0.366423,-0.532920,-0.616954,0.588929,0.837223,2.129471,-11.656063
1790545976.4522,-0.006418,0.034366,-0.354654,-0.007348,0.033529,-0.354654,-0.078831,-0.202931,0.367955,3.021918,0.976891,-15.964105
1790545976.4666,-0.004679,0.029830,-0.353420,-0.005480,0.030940,-0.353420,0.207707,-0.090016,-0.098276,-0.044320,0.270471,-13.713056
1790545976.4806,0.003166,0.028456,-0.366069,0.000572,0.029201,-0.366069,-0.015695,-0.306133,-0.607001,-1.999048,-0.064149,-9.172147
1790545976.4947,0.006674,0.025606,-0.393048,0.004843,0.026685,-0.393048,-0.037550,0.146742,-0.889896,-3.225543,-2.257768,-8.473546
1790545976.5088,0.009296,0.029569,-0.411184,0.007960,0.028704,-0.411184,-0.455215,0.224447,-0.427308,-4.758662,-1.142369,-7.580888
1790545976.5228,0.011211,0.033905,-0.417151,0.010236,0.032345,-0.417151,-0.403007,-0.023238,-0.371458,-0.734224,0.642271,-12.432287
1790545976.5369,0.002513,0.037207,-0.430888,0.004830,0.035749,-0.430888,-0.314374,0.756241,-0.727201,0.683911,0.753811,-11.151518
1790545976.5509,-0.004876,0.046662,-0.447192,-0.001964,0.043388,-0.447192,-0.628837,0.816948,-1.075660,-0.465928,2.724351,-10.025993
1790545976.5650,-0.011527,0.056354,-0.465225,-0.008658,0.052464,-0.465225,-0.679831,0.665180,-1.070804,1.028863,1.534591,-7.425644
1790545976.5785,-0.018847,0.065059,-0.482595,-0.015790,0.061280,-0.482595,-0.562059,0.824233,-1.131511,0.262303,2.203831,-6.998721
1790545976.5922,-0.018794,0.070590,-0.497183,-0.017893,0.067797,-0.497183,-0.398150,0.316722,-1.061090,-0.580912,1.980751,-9.987182
1790545976.6062,-0.020556,0.075442,-0.512559,-0.019757,0.073148,-0.512559,-0.292520,0.317936,-0.991884,1.642111,3.356411,-11.539630
1790545976.6201,-0.024593,0.081650,-0.527649,-0.023142,0.079099,-0.527649,-0.342299,0.491558,-0.949389,1.258831,3.616671,-9.521448
1790545976.6341,-0.016166,0.083430,-0.536772,-0.018259,0.082131,-0.536772,-0.030265,-0.365626,-0.800050,-0.580912,4.843611,-12.160609
1790545976.6480,-0.004882,0.072807,-0.538556,-0.008895,0.075604,-0.538556,0.727360,-0.843998,-0.307108,2.600310,3.058971,-16.779140
1790545976.6620,-0.006312,0.066613,-0.537009,-0.007087,0.069310,-0.537009,0.570735,-0.281850,0.297535,6.356453,5.029511,-9.172147
1790545976.6759,-0.008449,0.060231,-0.531360,-0.008040,0.062955,-0.531360,0.580449,-0.195646,0.534292,3.865134,4.323091,-8.357112
1790545976.6899,-0.003745,0.053591,-0.524764,-0.005034,0.056400,-0.524764,0.630228,-0.663091,0.592571,2.217030,3.467951,-5.989630
1790545976.7042,-0.003192,0.048281,-0.515382,-0.003744,0.050717,-0.515382,0.587733,-0.450616,0.785620,2.830278,3.988471,-5.174595
1790545976.7185,0.005590,0.034315,-0.500836,0.002789,0.039235,-0.500836,1.026039,-0.899849,0.973812,0.837223,2.464091,-7.503266
1790545976.7326,0.014150,0.014320,-0.466290,0.010742,0.021795,-0.466290,1.330788,-1.039475,1.433972,1.412143,0.419191,-6.649420
1790545976.7466,-0.011385,0.009021,-0.439897,-0.004747,0.012853,-0.439897,0.342477,1.393666,1.787287,3.060246,2.017931,-12.626343
1790545976.7606,-0.016820,0.013140,-0.423178,-0.013198,0.013054,-0.423178,-0.318017,0.240231,1.968194,-5.065286,3.542311,-14.722147
1790545976.7745,0.000444,0.017056,-0.393194,-0.003649,0.015855,-0.393194,-0.435788,-1.270162,1.935412,-5.678534,-0.101329,-8.085434
1790545976.7885,-0.005165,0.020274,-0.365163,-0.004710,0.018948,-0.365163,-0.420005,0.195308,1.588168,-1.462456,-0.770569,-10.142427
1790545976.8021,-0.010061,0.020400,-0.343726,-0.008456,0.019964,-0.343726,-0.144394,0.132172,1.329555,-0.197632,0.270471,-10.297672
1790545976.8157,-0.001791,0.020531,-0.331066,-0.003790,0.020361,-0.331066,-0.024194,-0.625453,0.899749,-2.382327,1.869211,-8.900469
1790545976.8294,0.002923,0.025003,-0.321819,0.000909,0.023611,-0.321819,-0.358083,-0.383838,0.580430,-1.117504,1.497411,-9.016902
1790545976.8441,0.008188,0.033739,-0.313476,0.006004,0.030700,-0.313476,-0.535348,-0.474899,0.597428,-0.159304,2.798711,-8.395923
1790545976.8602,0.012518,0.036708,-0.302781,0.010564,0.034906,-0.302781,-0.223314,-0.431190,0.525793,0.913879,1.571771,-10.918651
1790545976.8752,0.012583,0.040355,-0.297586,0.011977,0.038720,-0.297586,-0.277950,-0.141010,0.272038,1.373815,1.534591,-9.909560
1790545976.8900,0.005146,0.029888,-0.299673,0.007195,0.032537,-0.299673,0.633871,0.500057,-0.173553,1.335487,1.125611,-14.256413
1790545976.9050,0.001501,0.020309,-0.314899,0.003209,0.023977,-0.314899,0.791709,0.463633,-0.568149,-1.730752,4.657711,-9.637881
1790545976.9190,0.004247,0.017677,-0.326946,0.003935,0.019567,-0.326946,0.287840,-0.003812,-0.673779,-1.194160,4.360271,-12.121798
1790545976.9333,0.006638,0.019278,-0.343281,0.005827,0.019365,-0.343281,-0.067903,0.095748,-1.051377,-1.194160,3.207691,-12.471098
1790545976.9473,0.003489,0.024047,-0.362384,0.004190,0.022642,-0.362384,-0.291305,0.430851,-1.316060,0.990535,2.352551,-8.939280
1790545976.9618,0.001142,0.030751,-0.383848,0.002057,0.028319,-0.383848,-0.335015,0.429637,-1.262638,0.032335,3.244871,-7.736133
1790545976.9761,-0.001332,0.036335,-0.402155,-0.000315,0.033930,-0.402155,-0.393293,0.427209,-1.288135,0.530599,1.757671,-10.064805
1790545976.9901,0.002249,0.039228,-0.419032,0.001480,0.037639,-0.419032,-0.293734,0.093320,-1.240783,-1.232488,0.382011,-9.676693
1790545977.0042,-0.006777,0.045754,-0.434996,-0.004300,0.043320,-0.434996,-0.502566,0.843659,-1.096300,1.258831,1.385871,-11.656063
1790545977.0182,-0.020276,0.061643,-0.451631,-0.015484,0.056146,-0.451631,-1.090211,1.155694,-0.993098,1.488799,2.649991,-9.987182
1790545977.0319,-0.036656,0.077234,-0.465101,-0.030305,0.070907,-0.465101,-1.183700,1.420377,-0.829189,0.952207,1.162791,-11.462007
1790545977.0456,-0.044561,0.079252,-0.468546,-0.040284,0.076749,-0.468546,-0.286449,0.705247,-0.335033,0.262303,-0.175689,-11.112707
1790545977.0593,-0.053688,0.079762,-0.470509,-0.049667,0.078858,-0.470509,-0.118897,0.524340,-0.031498,1.373815,0.382011,-3.932637
1790545977.0734,-0.056176,0.085813,-0.475783,-0.054223,0.083727,-0.475783,-0.352013,0.188023,-0.143199,1.220503,3.579491,-9.288581
1790545977.0874,-0.046750,0.077354,-0.469388,-0.048992,0.079266,-0.469388,0.508814,-0.703158,0.081417,0.530599,1.794851,-14.566903
1790545977.1015,-0.042733,0.067580,-0.466662,-0.044611,0.071086,-0.466662,0.783210,-0.607240,0.593785,3.213558,4.360271,-8.628791
1790545977.1154,-0.036106,0.061471,-0.458711,-0.038658,0.064355,-0.458711,0.491816,-0.782077,0.745553,2.025391,3.430771,-7.969000
1790545977.1294,-0.024573,0.053729,-0.444714,-0.028798,0.056917,-0.444714,0.539168,-1.074685,0.903392,0.530599,2.426911,-8.201867
1790545977.1440,-0.020832,0.048360,-0.434802,-0.023222,0.050927,-0.434802,0.477246,-0.590242,1.013878,1.757095,4.137191,-7.891378
1790545977.1583,-0.015637,0.043343,-0.423172,-0.017912,0.045618,-0.423172,0.418968,-0.615739,1.098868,0.300631,3.988471,-9.482637
1790545977.1726,-0.008800,0.035726,-0.408426,-0.011534,0.038694,-0.408426,0.612016,-0.757794,1.325913,-0.082648,3.951291,-9.249770
1790545977.1866,-0.000121,0.025788,-0.388820,-0.003544,0.029660,-0.388820,0.733430,-0.739582,1.551743,-2.267343,1.906391,-6.144874
1790545977.2007,0.011278,0.013921,-0.356915,0.006831,0.018643,-0.356915,0.774711,-0.882851,1.800643,-3.187215,0.642271,-5.834385
1790545977.2152,0.008243,0.008887,-0.330669,0.007820,0.011814,-0.330669,0.302410,-0.049949,1.884418,-1.999048,1.646131,-13.441378
1790545977.2293,0.008902,0.013635,-0.304107,0.008577,0.013089,-0.304107,-0.305875,-0.324345,1.966980,-2.152360,3.765391,-14.178791
1790545977.2433,0.009715,0.022126,-0.281010,0.009373,0.019415,-0.281010,-0.654334,-0.300062,1.695012,-1.922392,1.869211,-13.441378
1790545977.2573,0.006846,0.022252,-0.261314,0.007604,0.021401,-0.261314,-0.131039,-0.058448,1.245780,0.377287,0.084571,-10.879840
1790545977.2709,0.005503,0.021508,-0.249609,0.006133,0.021476,-0.249609,-0.033907,-0.073018,0.756480,0.415615,0.605091,-9.327392
1790545977.2846,0.007876,0.020733,-0.244625,0.007353,0.020956,-0.244625,0.020729,-0.222357,0.313318,-0.159304,1.125611,-7.852567
1790545977.2986,0.011414,0.023596,-0.243833,0.010196,0.022804,-0.243833,-0.167463,-0.261210,0.007355,0.070663,2.389731,-9.016902
1790545977.3124,0.012094,0.028390,-0.241589,0.011525,0.026714,-0.241589,-0.342299,-0.142224,0.030423,1.488799,2.241011,-10.414105
1790545977.3263,0.010124,0.023473,-0.242476,0.010544,0.024446,-0.242476,0.309695,0.161312,-0.078849,0.032335,1.571771,-12.238231
1790545977.3403,0.006710,0.014770,-0.249493,0.007860,0.017673,-0.249493,0.726146,0.336148,-0.434593,0.032335,3.058971,-8.201867
1790545977.3543,0.002879,0.011109,-0.259073,0.004373,0.013078,-0.259073,0.438394,0.453920,-0.651924,-0.657568,4.174371,-8.318301
1790545977.3683,0.002088,0.005168,-0.272436,0.002773,0.007541,-0.272436,0.541596,0.307009,-0.826761,-1.385800,3.319231,-8.900469
1790545977.3821,0.008089,0.003989,-0.288449,0.006494,0.005055,-0.288449,0.133644,-0.165293,-1.074446,-1.424128,2.798711,-11.345574
1790545977.3960,0.007711,0.005570,-0.303807,0.007346,0.005416,-0.303807,-0.094614,0.195308,-1.285707,1.527127,2.687171,-13.363756
1790545977.4100,0.008121,0.009340,-0.315635,0.007889,0.008163,-0.315635,-0.179604,0.096962,-1.183719,1.603783,3.319231,-9.948371
1790545977.4240,0.005411,0.013499,-0.337641,0.006154,0.011898,-0.337641,-0.383580,0.553479,-1.311204,-1.309144,0.196111,-7.852567
1790545977.4381,0.015017,0.017823,-0.355797,0.012359,0.016046,-0.355797,-0.396936,-0.153151,-1.221357,-4.222071,0.047391,-7.386832
1790545977.4522,0.010909,0.020547,-0.374940,0.011344,0.019197,-0.374940,-0.354441,0.572906,-1.031951,-1.002520,-0.696209,-8.939280
1790545977.4664,0.003468,0.030314,-0.390120,0.005830,0.026979,-0.390120,-0.727182,0.661538,-0.963959,1.488799,1.497411,-11.811308
1790545977.4808,-0.011347,0.044668,-0.404178,-0.006194,0.039361,-0.404178,-1.047716,1.120484,-0.827975,2.332014,1.088431,-10.802217
1790545977.4945,-0.025026,0.058556,-0.416184,-0.019376,0.052798,-0.416184,-1.053787,1.107128,-0.622785,1.258831,1.125611,-9.405014
1790545977.5082,-0.034888,0.064991,-0.423468,-0.030235,0.061333,-0.423468,-0.585128,0.779310,-0.369029,1.182175,0.084571,-9.443825
1790545977.5223,-0.043440,0.065623,-0.426905,-0.039478,0.064336,-0.426905,-0.097043,0.491558,-0.222118,2.102047,0.642271,-5.485084
1790545977.5362,-0.046352,0.069380,-0.430373,-0.044290,0.067867,-0.430373,-0.273093,0.200164,-0.171124,1.642111,2.315371,-10.297672
1790545977.5501,-0.041762,0.066557,-0.429805,-0.042521,0.066950,-0.429805,0.161570,-0.355913,-0.048496,1.488799,2.575631,-14.334035
1790545977.5641,-0.031150,0.056158,-0.421630,-0.034561,0.059395,-0.421630,0.695792,-0.952057,0.420163,2.140375,2.724351,-13.130889
1790545977.5780,-0.027498,0.050547,-0.410223,-0.029617,0.053202,-0.410223,0.510028,-0.586600,0.750410,2.600310,4.248731,-8.395923
1790545977.5919,-0.022961,0.042633,-0.395546,-0.024958,0.045804,-0.395546,0.625372,-0.650950,1.030876,1.527127,3.282051,-8.085434
1790545977.6058,-0.018643,0.036006,-0.377821,-0.020537,0.038945,-0.377821,0.565879,-0.698301,1.172931,2.255358,3.951291,-8.279490
1790545977.6199,-0.016229,0.030078,-0.359155,-0.017522,0.032738,-0.359155,0.536739,-0.564745,1.301630,2.063719,4.248731,-8.279490
1790545977.6339,-0.007583,0.019387,-0.339930,-0.010564,0.023393,-0.339930,0.828134,-0.892564,1.500749,-0.350944,3.244871,-8.240679
1790545977.6480,0.002780,0.007750,-0.319032,-0.001224,0.012443,-0.319032,0.953190,-0.961770,1.634305,-1.002520,2.984611,-6.183686
1790545977.6625,0.011547,-0.000573,-0.293651,0.007716,0.003332,-0.293651,0.722503,-0.761436,1.812784,-2.343999,3.542311,-6.843476
1790545977.6765,-0.000407,-0.001854,-0.272028,0.002030,-0.000298,-0.272028,0.102077,0.602045,1.856493,-1.040848,2.761531,-12.548721
1790545977.6908,-0.000419,0.001525,-0.246562,0.000316,0.000978,-0.246562,-0.252453,-0.228428,2.007047,-3.148887,3.319231,-16.002917
1790545977.7050,0.003532,0.006199,-0.220291,0.002567,0.004633,-0.220291,-0.486782,-0.494325,1.614879,-1.615768,-0.621849,-12.898021
1790545977.7191,-0.000414,0.009510,-0.200854,0.000480,0.008047,-0.200854,-0.381152,0.062966,1.083085,0.568927,-0.473129,-12.393476
1790545977.7334,-0.000019,0.010061,-0.190436,0.000131,0.009457,-0.190436,-0.154107,-0.110656,0.576787,-0.235960,0.047391,-8.318301
1790545977.7470,0.004664,0.009932,-0.187196,0.003304,0.009790,-0.187196,-0.024194,-0.349842,0.183405,-0.312616,0.976891,-7.153965
1790545977.7610,0.007072,0.015949,-0.180869,0.005941,0.014101,-0.180869,-0.319231,-0.290349,0.146981,1.067191,2.649991,-6.649420
1790545977.7749,0.006005,0.014329,-0.173650,0.005986,0.014261,-0.173650,0.077794,-0.076660,0.117842,2.063719,1.162791,-9.133336
1790545977.7888,0.000168,0.010977,-0.173235,0.001913,0.011962,-0.173235,0.230776,0.350718,-0.117702,1.833751,1.794851,-10.530539
1790545977.8029,-0.004874,0.002379,-0.181733,-0.002838,0.005254,-0.181733,0.582877,0.566835,-0.524440,-1.960720,1.385871,-12.859210
1790545977.8167,0.000438,-0.001013,-0.194021,-0.000545,0.000867,-0.194021,0.357046,-0.158008,-0.807335,-1.577440,4.062831,-11.578441
1790545977.8307,0.004324,-0.000228,-0.204560,0.002863,0.000100,-0.204560,-0.007196,-0.153151,-0.785480,0.300631,2.798711,-11.423196
1790545977.8447,0.006082,-0.001740,-0.220517,0.005117,-0.001188,-0.220517,0.108147,0.098176,-1.103585,-0.465928,1.646131,-10.530539
1790545977.8586,0.005518,0.001937,-0.239618,0.005397,0.001000,-0.239618,-0.228170,0.286368,-1.300276,-0.159304,2.092291,-9.599070
1790545977.8725,0.004314,0.007863,-0.256226,0.004639,0.005804,-0.256226,-0.413934,0.319150,-1.107228,-0.389272,1.906391,-10.181238
1790545977.8866,0.006261,0.012952,-0.269476,0.005775,0.010807,-0.269476,-0.486782,0.231732,-1.001597,-2.918919,-0.473129,-9.560259
1790545977.9006,0.006937,0.017197,-0.284154,0.006588,0.015280,-0.284154,-0.376295,0.188023,-0.988242,-0.734224,0.605091,-10.802217
1790545977.9147,-0.005840,0.024803,-0.294146,-0.002111,0.021946,-0.294146,-0.555988,0.925007,-0.834046,2.868606,1.423051,-9.405014
1790545977.9286,-0.017914,0.038756,-0.306681,-0.013173,0.033713,-0.306681,-1.024647,0.986928,-0.784266,1.335487,1.311511,-9.987182
1790545977.9427,-0.032739,0.053002,-0.317260,-0.026869,0.047215,-0.317260,-1.036789,1.139910,-0.610644,1.450471,1.088431,-8.279490
1790545977.9563,-0.042406,0.062471,-0.324171,-0.037745,0.057895,-0.324171,-0.764821,0.897082,-0.447949,-0.389272,0.753811,-10.336483
1790545977.9705,-0.051151,0.061975,-0.324700,-0.047129,0.060751,-0.324700,-0.149251,0.595974,-0.182052,1.297159,-0.733389,-6.338930
1790545977.9853,-0.055725,0.065928,-0.329286,-0.053146,0.064375,-0.329286,-0.195388,0.222019,-0.106775,2.868606,3.467951,-9.521448
1790545977.9998,-0.053193,0.064849,-0.329320,-0.053179,0.064707,-0.329320,0.092363,-0.244212,0.019496,2.140375,3.505131,-12.199420
1790545978.0139,-0.041555,0.055337,-0.321344,-0.045042,0.058148,-0.321344,0.678794,-0.995766,0.443232,1.450471,3.579491,-11.423196
1790545978.0280,-0.036534,0.050091,-0.309886,-0.039086,0.052508,-0.309886,0.465105,-0.750509,0.790476,2.983590,3.430771,-6.649420
1790545978.0419,-0.031592,0.042562,-0.297139,-0.033840,0.045546,-0.297139,0.620515,-0.670376,1.057588,1.105519,2.984611,-6.261308
1790545978.0559,-0.027691,0.035761,-0.282724,-0.029536,0.038697,-0.282724,0.536739,-0.599956,1.104939,1.603783,3.616671,-8.939280
1790545978.0699,-0.024410,0.031611,-0.269992,-0.025948,0.033737,-0.269992,0.395899,-0.538034,1.058802,1.642111,4.397451,-9.133336
1790545978.0839,-0.018527,0.027462,-0.257110,-0.020753,0.029345,-0.257110,0.432323,-0.698301,1.177788,0.683911,4.397451,-8.007811
1790545978.0978,-0.006354,0.016788,-0.241113,-0.010674,0.020555,-0.241113,0.815992,-1.004265,1.397547,-1.769080,2.426911,-6.688231
1790545978.1119,0.007551,0.002563,-0.221161,0.002084,0.007960,-0.221161,1.130455,-1.160889,1.611236,-1.117504,1.980751,-4.398371
1790545978.1259,0.003210,-0.007398,-0.191937,0.002872,-0.002790,-0.191937,0.919194,0.205021,2.016760,-2.114032,2.873071,-4.243126
1790545978.1398,-0.007915,-0.010616,-0.169268,-0.004679,-0.008268,-0.169268,0.194351,0.578976,2.093251,-2.727279,2.575631,-15.886483
1790545978.1537,0.000073,-0.007599,-0.142954,-0.001353,-0.007799,-0.142954,-0.309518,-0.733511,2.044685,-4.796990,1.274331,-15.614805
1790545978.1677,0.003438,-0.002565,-0.122308,0.002001,-0.004135,-0.122308,-0.506209,-0.334058,1.467968,-3.072231,-0.473129,-11.694875
1790545978.1818,-0.000775,-0.002675,-0.108035,0.000058,-0.003113,-0.108035,-0.152893,0.168596,0.880323,-0.197632,-0.844929,-10.724595
1790545978.1960,0.000319,-0.005526,-0.103751,0.000241,-0.004803,-0.103751,0.093578,-0.065733,0.330316,-0.887536,-0.026969,-8.784035
1790545978.2098,0.004995,-0.007557,-0.104040,0.003569,-0.006730,-0.104040,0.131216,-0.236927,0.014640,-1.002520,0.865351,-5.989630
1790545978.2239,0.002819,-0.006851,-0.101687,0.003044,-0.006815,-0.101687,-0.049691,0.086035,-0.046068,1.603783,1.906391,-11.306763
1790545978.2383,0.004122,-0.009202,-0.100447,0.003799,-0.008486,-0.100447,0.115432,-0.125226,0.019496,0.722239,1.014071,-11.966553
1790545978.2523,-0.002680,-0.011338,-0.103126,-0.000736,-0.010483,-0.103126,0.115432,0.474560,-0.230617,1.335487,1.162791,-12.199420
1790545978.2662,-0.005388,-0.017295,-0.111419,-0.003993,-0.015251,-0.111419,0.491816,0.362859,-0.568149,-1.194160,2.873071,-11.656063
1790545978.2803,-0.004156,-0.022337,-0.121572,-0.004107,-0.020212,-0.121572,0.423824,0.047182,-0.783052,-0.044320,2.687171,-11.151518
1790545978.2942,0.001543,-0.020546,-0.129374,-0.000152,-0.020445,-0.129374,-0.008410,-0.268495,-0.827975,-0.197632,3.914111,-11.384385
1790545978.3082,0.001953,-0.021345,-0.145030,0.001322,-0.021075,-0.145030,0.017087,0.116388,-1.180076,0.798895,0.679451,-10.841028
1790545978.3222,0.001052,-0.017682,-0.164024,0.001133,-0.018700,-0.164024,-0.251239,0.251158,-1.422905,0.645583,1.274331,-8.667602
1790545978.3361,0.000482,-0.013697,-0.184353,0.000677,-0.015198,-0.184353,-0.318017,0.303366,-1.339129,-0.542584,0.679451,-8.861658
1790545978.3500,0.005306,-0.011932,-0.203321,0.003918,-0.012911,-0.203321,-0.201459,0.002259,-1.325773,-1.960720,0.084571,-9.133336
1790545978.3640,0.005560,-0.008697,-0.219252,0.005067,-0.009961,-0.219252,-0.350798,0.338576,-1.150937,-2.267343,-0.510309,-8.434735
1790545978.3779,-0.005101,0.001154,-0.235427,-0.002051,-0.002181,-0.235427,-0.789104,0.910437,-0.898395,0.683911,0.233291,-11.927742
1790545978.3919,-0.016191,0.013799,-0.249996,-0.011949,0.009005,-0.249996,-0.977296,0.912865,-0.790337,1.143847,0.382011,-11.656063
1790545978.4059,-0.027628,0.025542,-0.263932,-0.022925,0.020581,-0.263932,-0.889878,0.962645,-0.721131,0.607255,0.605091,-10.491728
1790545978.4196,-0.036464,0.035086,-0.275359,-0.032402,0.030734,-0.275359,-0.739324,0.806021,-0.615500,0.185647,0.679451,-7.813756
1790545978.4338,-0.046481,0.043707,-0.286443,-0.042258,0.039815,-0.286443,-0.621552,0.833946,-0.536581,0.607255,1.125611,-8.628791
1790545978.4479,-0.050431,0.052087,-0.293988,-0.047979,0.048405,-0.293988,-0.542633,0.387142,-0.484373,0.722239,2.241011,-8.589979
1790545978.4622,-0.045457,0.048359,-0.297857,-0.046213,0.048373,-0.297857,0.174925,-0.285493,-0.285254,0.722239,0.828171,-14.877392
1790545978.4765,-0.039952,0.039436,-0.292444,-0.041830,0.042117,-0.292444,0.624158,-0.567174,0.247755,2.676966,2.612811,-10.064805
1790545978.4912,-0.037393,0.029532,-0.278543,-0.038724,0.033308,-0.278543,0.672723,-0.491897,0.715200,3.481854,2.798711,-9.754315
1790545978.5055,-0.025227,0.019586,-0.261532,-0.029276,0.023703,-0.261532,0.703077,-1.132964,0.938602,1.718767,2.984611,-9.715504
1790545978.5200,-0.020223,0.012625,-0.239013,-0.022939,0.015949,-0.239013,0.527026,-0.746867,1.174145,3.060246,3.207691,-8.745224
1790545978.5340,-0.016338,0.007370,-0.217326,-0.018318,0.009944,-0.217326,0.463891,-0.597527,1.325913,1.373815,3.802571,-8.745224
1790545978.5482,-0.014522,0.001144,-0.193744,-0.015661,0.003784,-0.193744,0.524598,-0.450616,1.521390,0.913879,3.393591,-8.085434
1790545978.5624,-0.007579,-0.008315,-0.164795,-0.010003,-0.004686,-0.164795,0.815992,-0.760222,1.731436,-0.197632,3.319231,-5.912007
1790545978.5764,0.000430,-0.019406,-0.131862,-0.002700,-0.014990,-0.131862,0.959261,-0.751723,2.064111,-1.654096,3.170511,-5.601518
1790545978.5904,-0.014833,-0.022150,-0.102730,-0.011193,-0.020002,-0.102730,0.221062,0.779310,2.252303,-0.120976,3.021791,-10.918651
1790545978.6046,-0.011628,-0.018367,-0.072682,-0.011498,-0.018858,-0.072682,-0.316802,-0.386267,2.289942,-4.490366,2.649991,-13.984735
1790545978.6187,0.000396,-0.008412,-0.046127,-0.003172,-0.011546,-0.046127,-0.803673,-0.965412,1.940269,-3.992103,0.828171,-11.112707
1790545978.6327,-0.001365,-0.004211,-0.026956,-0.001907,-0.006411,-0.026956,-0.534134,-0.002598,1.469182,-1.845736,-1.848788,-9.831937
1790545978.6464,-0.005007,-0.005592,-0.016162,-0.004077,-0.005837,-0.016162,-0.058190,0.179524,0.995666,-1.079176,-0.584669,-9.599070
1790545978.6602,-0.002132,-0.008247,-0.009061,-0.002716,-0.007524,-0.009061,0.161570,-0.213858,0.535506,-1.040848,1.088431,-8.163056
1790545978.6742,-0.004497,-0.003042,0.009333,-0.003963,-0.004387,0.009333,-0.202673,0.015614,0.421377,1.182175,3.467951,-6.959909
1790545978.6882,-0.004150,-0.004650,0.016406,-0.004094,-0.004571,0.016406,0.140929,-0.139796,0.281751,1.258831,2.203831,-9.831937
1790545978.7022,-0.004268,-0.007078,0.019303,-0.004215,-0.006326,0.019303,0.184638,-0.051163,0.082631,1.028863,2.092291,-10.879840
1790545978.7163,-0.008701,-0.010015,0.019683,-0.007356,-0.008908,0.019683,0.256273,0.277869,-0.156555,1.373815,2.389731,-9.948371
1790545978.7305,-0.009534,-0.015871,0.012927,-0.008881,-0.013782,0.012927,0.496673,0.189237,-0.501371,-0.695896,3.430771,-12.005364
1790545978.7449,-0.010204,-0.020327,0.001749,-0.009807,-0.018364,0.001749,0.377687,0.208663,-0.764840,-0.580912,3.096151,-12.665154
1790545978.7590,-0.005375,-0.018888,-0.005644,-0.006705,-0.018731,-0.005644,0.062010,-0.201717,-0.925106,0.147319,4.360271,-10.452916
1790545978.7730,-0.003212,-0.017769,-0.022345,-0.004260,-0.018058,-0.022345,-0.036336,0.010758,-1.404693,1.182175,2.055111,-10.957462
1790545978.7870,0.000662,-0.015442,-0.044679,-0.000814,-0.016227,-0.044679,-0.156536,-0.041450,-1.693658,0.492271,1.051251,-7.813756
1790545978.8010,0.004013,-0.011097,-0.069312,0.002565,-0.012636,-0.069312,-0.262166,0.055681,-1.801717,0.032335,1.757671,-8.434735
1790545978.8150,0.012181,-0.012338,-0.099670,0.009296,-0.012427,-0.099670,0.006159,-0.176220,-1.744652,-1.730752,0.047391,-8.395923
1790545978.8290,0.008314,-0.011357,-0.122732,0.008608,-0.011678,-0.122732,-0.140752,0.496415,-1.505466,0.492271,0.307651,-8.357112
1790545978.8430,-0.000503,-0.006189,-0.144880,0.002231,-0.007836,-0.144880,-0.458857,0.843659,-1.303919,0.492271,-0.026969,-12.044175
1790545978.8569,-0.011512,0.004281,-0.162773,-0.007389,0.000646,-0.162773,-0.813387,0.931078,-1.101157,1.527127,0.419191,-11.423196
1790545978.8709,-0.022918,0.016728,-0.179796,-0.018260,0.011903,-0.179796,-0.940871,0.996641,-0.929963,0.492271,0.493551,-9.793126
1790545978.8845,-0.030167,0.025986,-0.194613,-0.026595,0.021761,-0.194613,-0.762393,0.764740,-0.778195,-0.580912,0.010211,-8.861658
1790545978.8982,-0.034693,0.032208,-0.205419,-0.032264,0.029074,-0.205419,-0.496495,0.513413,-0.590003,-0.274288,0.790991,-8.512357
1790545978.9122,-0.042132,0.040156,-0.213836,-0.039171,0.036832,-0.213836,-0.560845,0.606902,-0.424880,0.837223,1.497411,-8.512357
1790545978.9266,-0.038978,0.039523,-0.217017,-0.039036,0.038716,-0.217017,-0.025408,-0.171363,-0.146841,0.223975,1.088431,-12.393476
1790545978.9424,-0.031595,0.027608,-0.212887,-0.033827,0.030941,-0.212887,0.723717,-0.550176,0.194333,1.182175,1.980751,-11.112707
1790545978.9574,-0.027005,0.014727,-0.197544,-0.029052,0.019591,-0.197544,0.859701,-0.579315,0.834185,2.370342,2.761531,-10.414105
1790545978.9719,-0.019318,0.002122,-0.180514,-0.022238,0.007362,-0.180514,0.870629,-0.774792,0.972598,1.373815,2.649991,-10.336483
1790545978.9870,-0.010149,-0.008380,-0.158722,-0.013776,-0.003657,-0.158722,0.712790,-0.899849,1.203285,1.373815,2.315371,-8.628791
1790545979.0010,-0.006056,-0.012465,-0.134378,-0.008372,-0.009823,-0.134378,0.399541,-0.534392,1.401190,0.262303,3.058971,-7.270399
1790545979.0149,-0.008713,-0.014325,-0.110663,-0.008611,-0.012974,-0.110663,0.216206,-0.000169,1.582097,-0.772552,3.467951,-9.482637
1790545979.0291,-0.012694,-0.017214,-0.085800,-0.011469,-0.015942,-0.085800,0.184638,0.078750,1.810356,-1.232488,2.166651,-10.414105
1790545979.0439,-0.008875,-0.018036,-0.055730,-0.009653,-0.017408,-0.055730,-0.002340,-0.410549,2.090822,-2.995575,1.534591,-9.793126
1790545979.0581,-0.012357,-0.018649,-0.029072,-0.011546,-0.018277,-0.029072,-0.043620,0.044754,2.081109,-1.807408,1.014071,-9.987182
1790545979.0724,-0.011698,-0.020476,-0.007954,-0.011652,-0.019817,-0.007954,-0.014481,-0.139796,1.729008,-2.842263,-0.064149,-10.103616
1790545979.0865,-0.009321,-0.019620,0.008383,-0.010020,-0.019679,0.008383,-0.143180,-0.235713,1.297988,-2.114032,0.790991,-10.258860
1790545979.1007,-0.010804,-0.021022,0.018044,-0.010569,-0.020619,0.018044,0.029228,-0.012311,0.870610,-0.044320,0.753811,-9.870749
1790545979.1147,-0.009569,-0.023698,0.026743,-0.009869,-0.022774,0.026743,0.183424,-0.206574,0.551290,0.875551,1.832031,-11.345574
1790545979.1283,-0.012626,-0.024829,0.032039,-0.011799,-0.024213,0.032039,0.104505,0.144314,0.265967,0.990535,2.055111,-10.491728
1790545979.1424,-0.010816,-0.027516,0.035188,-0.011111,-0.026525,0.035188,0.225919,-0.144652,0.059563,0.338959,2.055111,-9.831937
1790545979.1564,-0.011285,-0.028992,0.037240,-0.011233,-0.028252,0.037240,0.171283,0.003473,-0.158983,1.105519,2.389731,-9.521448
1790545979.1704,-0.012673,-0.030927,0.040237,-0.012241,-0.030124,0.040237,0.223491,0.048396,-0.192979,1.488799,2.575631,-9.172147
1790545979.1844,-0.006616,-0.030573,0.042026,-0.008304,-0.030439,0.042026,0.088721,-0.434832,-0.371458,1.105519,3.430771,-10.452916
1790545979.1982,-0.001107,-0.029055,0.038757,-0.003266,-0.029470,0.038757,-0.100685,-0.411764,-0.455233,1.680439,1.832031,-12.238231
1790545979.2121,-0.001698,-0.031430,0.029672,-0.002168,-0.030842,0.029672,0.093578,0.050825,-0.608215,1.872079,0.010211,-12.626343
1790545979.2261,0.000578,-0.031607,0.015277,-0.000246,-0.031378,0.015277,-0.033907,-0.014739,-0.891110,-0.159304,0.382011,-8.357112
1790545979.2402,0.003111,-0.029502,-0.002581,0.002104,-0.030065,-0.002581,-0.166249,0.039897,-1.147294,-0.657568,0.790991,-8.512357
1790545979.2544,0.012198,-0.030151,-0.026471,0.009170,-0.030125,-0.026471,-0.036336,-0.261210,-1.455687,-2.688951,-0.138509,-9.133336
1790545979.2685,0.017808,-0.030564,-0.045600,0.015217,-0.030432,-0.045600,0.049868,-0.013525,-1.472685,-2.957247,1.720491,-9.637881
1790545979.2824,0.019352,-0.029568,-0.064553,0.018111,-0.029827,-0.064553,-0.090972,0.126101,-1.288135,-0.925864,1.311511,-10.685784
1790545979.2964,0.021284,-0.030263,-0.087848,0.020332,-0.030132,-0.087848,-0.059404,0.089677,-1.279636,-0.925864,-0.250049,-12.548721
1790545979.3104,0.020611,-0.028644,-0.107980,0.020527,-0.029091,-0.107980,-0.186889,0.211091,-1.184933,0.147319,0.530731,-11.462007
1790545979.3243,0.020838,-0.023497,-0.126707,0.020745,-0.025175,-0.126707,-0.456429,0.122459,-1.036808,0.185647,0.196111,-8.978091
1790545979.3379,0.018796,-0.018707,-0.142982,0.019381,-0.020647,-0.142982,-0.441859,0.283940,-0.869256,-0.005993,0.196111,-8.939280
1790545979.3515,0.017166,-0.015548,-0.154548,0.017830,-0.017077,-0.154548,-0.302233,0.217162,-0.596074,-0.044320,0.493551,-9.327392
1790545979.3655,0.017392,-0.013471,-0.161885,0.017523,-0.014553,-0.161885,-0.199031,0.024113,-0.337462,0.185647,0.790991,-9.599070
1790545979.3794,0.015044,-0.010784,-0.165672,0.015787,-0.011915,-0.165672,-0.222099,0.133386,-0.087348,0.837223,1.199971,-9.948371
1790545979.3933,0.009685,-0.007820,-0.166772,0.011516,-0.009048,-0.166772,-0.235455,0.328863,0.111771,0.837223,1.497411,-11.306763
1790545979.4072,0.003447,-0.006534,-0.165392,0.005867,-0.007288,-0.165392,-0.107970,0.425995,0.204046,-0.005993,1.497411,-10.297672
1790545979.4212,0.006954,-0.009690,-0.158585,0.006628,-0.008969,-0.158585,0.201636,-0.239355,0.329102,-1.002520,1.199971,-9.249770
1790545979.4354,0.010370,-0.017778,-0.143266,0.009248,-0.015135,-0.143266,0.661796,-0.409335,0.682418,0.952207,3.058971,-9.405014
1790545979.4495,0.001639,-0.010329,-0.123748,0.003921,-0.011771,-0.123748,-0.377510,0.418710,0.812331,1.412143,4.100011,-9.094525
1790545979.4634,-0.003200,-0.005435,-0.106868,-0.001063,-0.007335,-0.106868,-0.299804,0.177095,1.033305,0.223975,2.798711,-9.793126
